t_s,phase,roll_deg,pitch_deg,gyro_x_dps,gyro_y_dps,gyro_z_dps,height_ref_mm,vx_ref_mps,vy_ref_mps,max_cur_a,q0_deg,q1_deg,q2_deg,q3_deg,q4_deg,q5_deg,q6_deg,q7_deg,q8_deg,q9_deg,q10_deg,q11_deg,q12_deg,q13_deg,q14_deg,q15_deg,q16_deg,q17_deg,cmd0_deg,cmd1_deg,cmd2_deg,cmd3_deg,cmd4_deg,cmd5_deg,cmd6_deg,cmd7_deg,cmd8_deg,cmd9_deg,cmd10_deg,cmd11_deg,cmd12_deg,cmd13_deg,cmd14_deg,cmd15_deg,cmd16_deg,cmd17_deg,act0,act1,act2,act3,act4,act5,act6,act7,act8,act9,act10,act11,act12,act13,act14,act15,act16,act17,cur0_a,cur1_a,cur2_a,cur3_a,cur4_a,cur5_a,cur6_a,cur7_a,cur8_a,cur9_a,cur10_a,cur11_a,cur12_a,cur13_a,cur14_a,cur15_a,cur16_a,cur17_a,obs0,obs1,obs2,obs3,obs4,obs5,obs6,obs7,obs8,obs9,obs10,obs11,obs12,obs13,obs14,obs15,obs16,obs17,obs18,obs19,obs20,obs21,obs22,obs23,obs24,obs25,obs26,obs27,obs28,obs29,obs30,obs31,obs32,obs33,obs34,obs35,obs36,obs37,obs38,obs39,obs40,obs41,obs42,obs43,obs44,obs45,obs46,obs47,obs48,obs49,obs50,obs51,obs52,obs53,obs54,obs55,obs56,obs57,obs58,obs59,obs60,obs61,obs62,obs63,obs64,obs65,obs66,obs67,rot60_k
0.0,run,0.4,6.07,-1.98,0.66,5.19,0.0,0.0,0.0,0.104,-0.09,16.7,77.96,0.53,14.15,77.34,-0.44,15.29,77.52,0.09,14.94,77.87,-0.26,15.29,77.78,0.26,14.59,76.55,-0.05,15.73,76.81,2.03,13.18,76.2,1.06,14.5,76.37,-1.41,13.88,76.81,1.24,14.67,76.81,1.68,13.71,75.4,-0.0013,0.3363,-0.0673,0.1303,0.4428,-0.3022,0.1623,-0.0733,-0.1937,-0.2269,0.5789,-0.0669,0.0659,-0.0209,-0.2541,0.4128,0.44,-0.1609,0.0,0.0,0.026,0.0,0.006,0.071,0.013,0.039,0.026,0.013,0.006,0.071,0.006,0.033,0.104,0.0,0.019,0.026,0.0,0.0,-0.0031,0.0,0.0,-0.0061,0.0,0.0,-0.0031,0.0,0.0,-0.0077,0.0,0.0,-0.0077,0.0031,0.0,-0.0015,0.0,0.0,-0.0074,0.0,0.0,-0.0148,0.0,0.0,-0.0074,0.0,0.0,-0.0185,0.0,0.0,-0.0185,0.0074,0.0,-0.0037,0.0,0.0,-0.0035,-0.0106,0.0068,0.0,0.0,0.0,0.0,0.0,0.0,0.0,0.0,0.0,0.0,0.0,0.0,0.0,0.0,0.0,0.0,0.0,0.0,0.0,0.0,0.0,0.0,0.0,0.0,0.0,0.0,0.0,
0.04,run,0.42,6.02,0.16,-0.64,-0.91,0.0,0.0,0.0,0.104,-0.09,16.7,77.96,0.53,13.89,77.34,-0.35,14.85,77.52,0.09,14.77,78.22,-0.09,15.21,77.78,0.26,14.24,76.55,-0.47,14.23,75.31,3.53,11.68,74.7,2.56,13.0,74.87,-2.15,12.38,75.31,2.74,13.17,75.31,3.18,12.21,73.9,-0.0133,0.556,-0.2256,0.1626,0.5737,-0.3866,0.1723,0.2089,-0.1436,-0.0613,0.6322,-0.3326,0.133,0.1703,0.0048,0.3063,0.5779,-0.4598,0.0,0.0,0.026,0.0,0.006,0.071,0.013,0.039,0.026,0.013,0.006,0.071,0.006,0.033,0.104,0.0,0.019,0.026,0.0,-0.0092,-0.0061,0.0,-0.0092,-0.0061,0.0,-0.0123,-0.0061,0.0,-0.0077,-0.0077,0.0,-0.0153,-0.0092,0.0015,-0.0107,-0.0061,0.0,-0.0152,-0.0102,0.0,-0.0152,-0.0104,0.0,-0.0202,-0.0102,0.0,-0.0126,-0.013,0.0,-0.0253,-0.0155,0.0027,-0.0177,-0.0102,-0.0151,0.0049,-0.0345,0.0115,0.0905,-0.0013,0.3363,-0.0673,0.1303,0.4428,-0.3022,0.1623,-0.0733,-0.1937,-0.2269,0.5789,-0.0669,0.0659,-0.0209,-0.2541,0.4128,0.44,-0.1609,0.0,0.0,0.0,0.0,0.0,0.0,0.0,0.0,0.0,
0.08,run,0.4,6.01,-0.33,-0.61,0.96,0.0,0.0,0.0,0.104,-0.09,16.7,77.96,0.53,13.8,77.61,-0.35,14.5,77.61,0.0,14.68,78.31,-0.18,14.94,78.13,0.26,13.89,76.64,-0.19,12.73,73.81,5.03,11.45,73.2,4.06,11.5,73.37,-0.9,11.68,73.81,4.24,11.67,73.81,4.68,10.71,72.4,-0.0054,0.6507,-0.262,0.181,0.6626,-0.3825,0.1878,0.2509,-0.0239,-0.0258,0.6669,-0.3489,0.1625,0.2253,0.01,0.2339,0.5613,-0.3991,0.0,0.0,0.026,0.0,0.006,0.071,0.013,0.039,0.026,0.013,0.006,0.071,0.006,0.033,0.104,0.0,0.019,0.026,0.0,-0.0092,-0.0061,0.0,-0.0138,-0.0061,0.0015,-0.0199,-0.0061,0.0,-0.0107,-0.0015,0.0031,-0.0169,-0.0092,0.0015,-0.0169,-0.0061,0.0,-0.0106,-0.0072,0.0,-0.0277,-0.0073,0.0057,-0.0427,-0.0072,0.0,-0.0203,0.0137,0.0114,-0.0234,-0.0109,0.0019,-0.0352,-0.0071,-0.0131,0.0012,0.0028,-0.0113,-0.0159,-0.0133,0.556,-0.2256,0.1626,0.5737,-0.3866,0.1723,0.2089,-0.1436,-0.0613,0.6322,-0.3326,0.133,0.1703,0.0048,0.3063,0.5779,-0.4598,0.0,0.0,0.0,0.0,0.0,0.0,0.0,0.0,0.0,
0.12,run,0.51,6.03,2.58,0.73,2.99,0.0,0.0,0.0,0.104,-0.35,16.52,77.96,0.53,13.54,77.61,-0.26,13.97,77.7,-0.35,14.68,77.96,0.09,14.5,78.13,0.44,13.36,76.73,-0.12,11.79,72.31,5.87,12.95,71.7,5.56,10.0,71.87,-0.32,12.73,72.31,5.66,10.17,72.31,6.18,9.21,70.9,-0.0036,0.6689,-0.2115,0.1677,0.6911,-0.336,0.1858,0.2771,0.0278,-0.009,0.686,-0.2977,0.1617,0.2596,0.0629,0.2034,0.5696,-0.3423,0.006,0.0,0.019,0.013,0.0,0.0,0.026,0.0,0.013,0.006,0.0,0.0,0.019,0.013,0.019,0.0,0.0,0.026,0.0,-0.0092,-0.0061,0.0,-0.0153,-0.0015,0.0015,-0.0261,-0.0046,-0.0015,-0.0123,0.0,0.0015,-0.0215,-0.0031,0.0015,-0.023,-0.0046,0.0,-0.0074,-0.005,0.0,-0.0251,0.012,0.004,-0.0527,0.0007,-0.0057,-0.0199,0.0153,0.0023,-0.0335,0.0152,0.0013,-0.0474,0.0007,-0.0149,-0.0002,-0.0057,-0.0107,0.0168,-0.0054,0.6507,-0.262,0.181,0.6626,-0.3825,0.1878,0.2509,-0.0239,-0.0258,0.6669,-0.3489,0.1625,0.2253,0.01,0.2339,0.5613,-0.3991,0.0,0.0,0.0,0.0,0.0,0.0,0.0,0.0,0.0,
0.16,run,0.55,5.89,0.46,-2.6,9.24,0.0,0.0,0.0,0.104,-0.09,15.73,77.96,0.97,12.83,77.08,0.26,12.92,77.7,-0.7,14.06,77.43,0.62,13.8,78.13,0.88,12.57,76.73,-0.38,11.83,70.81,4.76,12.88,70.2,5.75,8.5,70.48,0.12,12.72,70.81,5.07,8.67,73.81,5.82,7.71,69.4,-0.0108,0.6697,-0.1128,0.1359,0.6886,-0.2295,0.1642,0.3508,0.0645,0.0033,0.6857,-0.1974,0.145,0.3289,0.1115,0.1663,0.5733,-0.2533,0.006,0.0,0.019,0.013,0.0,0.0,0.026,0.0,0.013,0.006,0.0,0.0,0.019,0.013,0.019,0.0,0.0,0.026,-0.0046,-0.0123,-0.0061,0.0,-0.0199,-0.0015,0.0031,-0.0353,-0.0031,-0.0077,-0.0123,-0.0061,0.0061,-0.0291,-0.0031,0.0046,-0.0322,-0.0031,-0.0173,-0.0167,-0.0035,0.0,-0.0348,0.0084,0.0085,-0.0714,0.0062,-0.027,-0.0139,-0.0123,0.0189,-0.0522,0.0106,0.0124,-0.0677,0.0062,-0.0057,0.0018,0.045,0.0127,0.0521,-0.0036,0.6689,-0.2115,0.1677,0.6911,-0.336,0.1858,0.2771,0.0278,-0.009,0.686,-0.2977,0.1617,0.2596,0.0629,0.2034,0.5696,-0.3423,0.0,0.0,0.0,0.0,0.0,0.0,0.0,0.0,0.0,
0.2,run,0.49,5.73,-1.07,-4.19,4.94,0.0,0.0,0.0,0.104,-0.09,15.56,78.05,1.41,12.48,76.73,0.79,12.3,77.78,-0.7,13.62,76.99,0.97,13.18,77.78,1.41,11.95,76.82,-0.6,11.56,72.31,3.26,11.75,68.7,4.25,7.0,71.98,0.27,12.66,69.31,3.57,7.17,75.31,4.32,6.21,67.9,-0.0172,0.6647,0.0932,0.0754,0.6681,0.0031,0.1068,0.5269,0.1207,0.0078,0.6847,0.0185,0.0944,0.4966,0.1826,0.0823,0.5643,-0.0305,0.006,0.0,0.019,0.013,0.0,0.0,0.026,0.0,0.013,0.006,0.0,0.0,0.019,0.013,0.019,0.0,0.0,0.026,0.0,-0.0261,-0.0061,0.0077,-0.0322,-0.0107,0.0123,-0.0537,-0.0031,-0.0138,-0.023,-0.0153,0.0153,-0.0414,-0.0031,0.0123,-0.046,-0.0031,0.0053,-0.0637,-0.0025,0.0289,-0.0706,-0.0288,0.0406,-0.1193,0.0044,-0.042,-0.0502,-0.0433,0.0479,-0.0828,0.0074,0.0376,-0.0994,0.0044,-0.0023,-0.0105,0.008,-0.0454,0.1613,-0.0108,0.6697,-0.1128,0.1359,0.6886,-0.2295,0.1642,0.3508,0.0645,0.0033,0.6857,-0.1974,0.145,0.3289,0.1115,0.1663,0.5733,-0.2533,0.0,0.0,0.0,0.0,0.0,0.0,0.0,0.0,0.0,
0.24,run,0.28,5.75,-4.01,-0.39,11.53,0.0,0.0,0.0,0.104,-0.26,14.85,77.7,1.93,12.3,76.03,1.41,11.43,77.43,-0.26,13.1,76.11,1.49,12.39,77.08,2.02,11.16,76.73,0.15,10.54,73.81,1.76,10.25,70.2,2.75,8.5,73.48,0.05,12.98,70.81,2.07,8.67,76.81,2.82,7.71,69.4,0.0043,0.6462,0.3093,0.0144,0.6339,0.2608,0.0203,0.6505,0.2111,0.0014,0.6905,0.2575,0.0304,0.6356,0.2543,-0.0007,0.6232,0.2253,0.006,0.0,0.0,0.006,0.0,0.0,0.019,0.0,0.0,0.006,0.0,0.006,0.039,0.0,0.006,0.006,0.0,0.0,0.0,-0.0291,-0.0046,0.0153,-0.0383,-0.0169,0.0215,-0.0644,-0.0015,-0.0138,-0.0307,-0.023,0.0215,-0.0522,-0.0092,0.0215,-0.0568,-0.0015,0.0037,-0.056,0.004,0.0488,-0.0723,-0.043,0.0628,-0.1236,0.0088,-0.0294,-0.0637,-0.0589,0.0564,-0.098,-0.0177,0.0606,-0.1096,0.0088,-0.0076,-0.0249,-0.0186,-0.0731,0.0862,-0.0172,0.6647,0.0932,0.0754,0.6681,0.0031,0.1068,0.5269,0.1207,0.0078,0.6847,0.0185,0.0944,0.4966,0.1826,0.0823,0.5643,-0.0305,0.0,0.0,0.0,0.0,0.0,0.0,0.0,0.0,0.0,
0.28,run,0.12,5.76,-4.34,0.58,15.4,0.0,0.0,0.0,0.104,-0.26,13.97,77.08,2.64,11.87,75.15,2.2,10.2,77.08,0.09,12.66,75.41,2.37,11.34,76.73,2.64,10.02,76.38,1.21,9.53,75.31,0.68,9.56,71.7,1.25,9.28,74.98,0.11,13.45,72.31,0.57,10.08,78.31,1.32,9.21,70.9,0.0346,0.6278,0.328,0.0193,0.6284,0.3235,-0.0095,0.6232,0.2763,0.003,0.6992,0.3227,-0.0089,0.6377,0.2747,-0.0352,0.6745,0.3057,0.006,0.0,0.0,0.006,0.0,0.0,0.019,0.0,0.0,0.006,0.0,0.006,0.039,0.0,0.006,0.006,0.0,0.0,-0.0031,-0.0414,-0.0107,0.0245,-0.0414,-0.0291,0.0322,-0.0798,-0.0077,-0.0061,-0.0399,-0.0383,0.0307,-0.066,-0.0215,0.0322,-0.0706,-0.0031,-0.0089,-0.0853,-0.0202,0.0687,-0.0621,-0.0762,0.0843,-0.1441,-0.0169,0.0082,-0.0792,-0.0988,0.074,-0.1204,-0.0584,0.0827,-0.1286,0.0004,-0.0256,-0.0228,-0.0699,-0.0069,0.2012,0.0043,0.6462,0.3093,0.0144,0.6339,0.2608,0.0203,0.6505,0.2111,0.0014,0.6905,0.2575,0.0304,0.6356,0.2543,-0.0007,0.6232,0.2253,0.0,0.0,0.0,0.0,0.0,0.0,0.0,0.0,0.0,
0.32,run,0.21,6.01,1.73,5.84,8.09,0.0,0.0,0.0,0.104,0.09,13.36,76.46,2.9,11.43,74.36,2.72,9.4,76.55,0.18,12.39,74.53,2.72,10.63,76.38,3.08,9.14,75.94,1.52,9.46,76.81,1.09,9.76,73.2,-0.25,8.02,76.48,0.09,13.72,73.81,-0.57,9.06,79.81,-0.18,10.71,72.4,0.0436,0.6265,0.3194,0.0311,0.632,0.3248,-0.0165,0.6004,0.2825,0.0025,0.704,0.321,-0.0164,0.6193,0.2679,-0.0456,0.6792,0.3108,0.006,0.0,0.0,0.006,0.0,0.0,0.019,0.0,0.0,0.006,0.0,0.006,0.039,0.0,0.006,0.006,0.0,0.0,-0.0031,-0.0568,-0.0215,0.0368,-0.0491,-0.0445,0.046,-0.1012,-0.0138,0.0,-0.0476,-0.0506,0.046,-0.0844,-0.0276,0.043,-0.0905,-0.0092,-0.0063,-0.1175,-0.0546,0.0944,-0.0724,-0.1112,0.111,-0.1818,-0.035,0.0289,-0.0843,-0.1154,0.1096,-0.1537,-0.064,0.0984,-0.1652,-0.0229,-0.0392,-0.0216,-0.0757,0.0101,0.2688,0.0346,0.6278,0.328,0.0193,0.6284,0.3235,-0.0095,0.6232,0.2763,0.003,0.6992,0.3227,-0.0089,0.6377,0.2747,-0.0352,0.6745,0.3057,0.0,0.0,0.0,0.0,0.0,0.0,0.0,0.0,0.0,
0.36,run,0.57,6.05,8.52,1.41,0.92,0.0,0.0,0.0,0.104,0.62,12.48,75.94,2.99,10.99,73.65,2.9,8.61,76.29,0.26,12.39,73.65,2.81,10.02,76.46,3.16,8.61,75.32,1.54,9.69,78.31,0.93,9.86,74.7,-0.57,7.47,77.98,0.23,13.68,75.31,-0.48,8.61,81.31,-1.68,12.21,73.9,0.0441,0.6307,0.3273,0.0265,0.6338,0.3315,-0.0163,0.5903,0.2829,0.0067,0.7033,0.3288,-0.0136,0.6111,0.2606,-0.049,0.6985,0.306,0.0,0.0,0.0,0.019,0.0,0.006,0.0,0.0,0.006,0.0,0.039,0.006,0.0,0.0,0.039,0.006,0.0,0.0,0.0031,-0.0675,-0.0322,0.0414,-0.0568,-0.0583,0.0552,-0.115,-0.023,0.0015,-0.0522,-0.066,0.0522,-0.0966,-0.0337,0.0506,-0.1058,-0.0169,0.0185,-0.1223,-0.0783,0.0832,-0.0793,-0.1293,0.112,-0.1788,-0.0588,0.0259,-0.0762,-0.138,0.0996,-0.1533,-0.0677,0.0975,-0.1728,-0.0446,-0.0313,0.0,0.0303,0.102,0.1413,0.0436,0.6265,0.3194,0.0311,0.632,0.3248,-0.0165,0.6004,0.2825,0.0025,0.704,0.321,-0.0164,0.6193,0.2679,-0.0456,0.6792,0.3108,0.0,0.0,0.0,0.0,0.0,0.0,0.0,0.0,0.0,
0.4,run,0.87,6.41,7.5,9.62,1.64,0.0,0.0,0.0,0.104,1.32,11.43,75.59,2.64,10.2,73.3,2.9,8.0,76.03,0.18,12.39,73.21,2.55,9.14,77.08,2.55,8.26,74.62,1.52,9.46,79.81,0.58,9.45,76.2,-0.52,7.04,79.48,0.42,14.05,76.81,-0.44,8.28,82.81,-1.65,13.71,75.4,0.0434,0.6265,0.3409,0.0165,0.6263,0.3463,-0.015,0.5826,0.285,0.0121,0.7101,0.3192,-0.0127,0.6051,0.2554,-0.0472,0.7099,0.3082,0.0,0.0,0.0,0.019,0.0,0.006,0.0,0.0,0.006,0.0,0.039,0.006,0.0,0.0,0.039,0.006,0.0,0.0,0.0123,-0.0828,-0.0414,0.043,-0.0644,-0.0706,0.0583,-0.1289,-0.0276,0.0031,-0.0522,-0.0813,0.0537,-0.1074,-0.0322,0.0522,-0.115,-0.0276,0.0475,-0.1432,-0.0893,0.064,-0.0843,-0.1365,0.0899,-0.1769,-0.0584,0.0239,-0.0533,-0.1542,0.0755,-0.1476,-0.0416,0.074,-0.1555,-0.0715,-0.0002,0.0035,0.1487,0.0246,0.016,0.0441,0.6307,0.3273,0.0265,0.6338,0.3315,-0.0163,0.5903,0.2829,0.0067,0.7033,0.3288,-0.0136,0.6111,0.2606,-0.049,0.6985,0.306,0.0,0.0,0.0,0.0,0.0,0.0,0.0,0.0,0.0,
0.44,run,0.66,6.2,-3.66,-2.87,-11.54,0.0,0.0,0.0,0.104,1.49,10.28,75.59,1.93,9.67,73.12,2.72,7.21,76.03,0.18,12.74,73.12,1.67,8.44,78.05,1.67,8.17,74.0,1.46,9.61,81.31,0.49,9.52,77.7,-0.43,5.68,80.98,0.77,13.1,78.31,-0.25,8.19,84.31,-1.65,14.5,76.9,0.0417,0.6293,0.3342,0.0141,0.6277,0.3466,-0.0123,0.5578,0.2976,0.0219,0.6927,0.3365,-0.0071,0.6034,0.2634,-0.0471,0.7182,0.3028,0.0,0.0,0.0,0.019,0.0,0.006,0.0,0.0,0.006,0.0,0.039,0.006,0.0,0.0,0.039,0.006,0.0,0.0,0.0245,-0.1012,-0.0476,0.0368,-0.0782,-0.0767,0.0583,-0.1396,-0.0322,0.0015,-0.0522,-0.089,0.0491,-0.1227,-0.0215,0.0414,-0.1212,-0.0399,0.0794,-0.1695,-0.0856,0.0217,-0.1109,-0.1187,0.063,-0.1643,-0.0582,0.011,-0.0373,-0.1368,0.0355,-0.1611,0.0113,0.0114,-0.1319,-0.0962,0.026,0.0345,0.131,0.1679,0.0287,0.0434,0.6265,0.3409,0.0165,0.6263,0.3463,-0.015,0.5826,0.285,0.0121,0.7101,0.3192,-0.0127,0.6051,0.2554,-0.0472,0.7099,0.3082,0.0,0.0,0.0,0.0,0.0,0.0,0.0,0.0,0.0,
0.48,run,0.97,6.47,9.1,10.35,-8.74,0.0,0.0,0.0,0.104,1.41,9.76,75.76,1.49,9.23,73.3,1.85,6.86,76.03,0.18,12.92,73.3,0.79,8.0,79.01,0.7,8.17,74.0,1.12,8.6,82.81,-0.56,9.81,79.2,-0.55,5.5,82.48,1.19,13.16,79.81,-0.5,7.33,85.81,-2.04,13.36,78.4,0.0321,0.6109,0.3696,-0.0159,0.6329,0.3636,-0.0158,0.5545,0.295,0.0339,0.6938,0.3422,-0.0144,0.5878,0.2519,-0.0582,0.6975,0.3384,0.0,0.0,0.033,0.019,0.006,0.033,0.0,0.0,0.026,0.013,0.078,0.019,0.0,0.006,0.071,0.019,0.071,0.006,0.0276,-0.1212,-0.0476,0.0245,-0.0874,-0.0798,0.0552,-0.1534,-0.0322,0.0015,-0.046,-0.0905,0.0337,-0.135,-0.0046,0.0261,-0.1227,-0.0506,0.0658,-0.185,-0.0599,-0.0256,-0.1083,-0.0933,0.0339,-0.1609,-0.0407,0.0077,-0.0057,-0.1008,-0.0262,-0.1536,0.064,-0.0431,-0.0975,-0.1031,0.0076,0.0164,-0.0638,-0.05,-0.2014,0.0417,0.6293,0.3342,0.0141,0.6277,0.3466,-0.0123,0.5578,0.2976,0.0219,0.6927,0.3365,-0.0071,0.6034,0.2634,-0.0471,0.7182,0.3028,0.0,0.0,0.0,0.0,0.0,0.0,0.0,0.0,0.0,
0.52,run,0.87,6.16,-3.3,-9.89,-8.85,0.0,0.0,0.0,0.104,1.41,9.14,76.46,1.05,9.14,74.0,0.97,6.15,76.82,0.7,12.92,73.92,-0.09,7.56,80.33,-0.35,8.44,74.0,1.22,9.33,84.31,-0.35,10.54,80.7,-0.02,4.69,83.98,1.32,13.08,81.31,-0.31,7.27,87.31,-1.5,14.74,79.9,0.0348,0.6242,0.3589,-0.01,0.6463,0.3579,-0.0006,0.5398,0.312,0.0376,0.6923,0.345,-0.0087,0.5868,0.2664,-0.0429,0.7226,0.322,0.0,0.0,0.033,0.019,0.006,0.033,0.0,0.0,0.026,0.013,0.078,0.019,0.0,0.006,0.071,0.019,0.071,0.006,0.0261,-0.1304,-0.0445,0.0169,-0.0951,-0.0767,0.0399,-0.1595,-0.0322,0.0015,-0.043,-0.0874,0.0184,-0.1427,0.0123,0.0092,-0.1227,-0.0506,0.0395,-0.1691,-0.0288,-0.0509,-0.1088,-0.0521,-0.0422,-0.139,-0.0285,0.0054,0.0092,-0.0574,-0.0842,-0.1405,0.1173,-0.1027,-0.0682,-0.0722,0.035,0.0404,0.1588,0.1806,-0.1525,0.0321,0.6109,0.3696,-0.0159,0.6329,0.3636,-0.0158,0.5545,0.295,0.0339,0.6938,0.3422,-0.0144,0.5878,0.2519,-0.0582,0.6975,0.3384,0.0,0.0,0.0,0.0,0.0,0.0,0.0,0.0,0.0,
0.56,run,1.15,5.89,6.97,-9.7,-4.66,0.0,0.0,0.0,0.104,1.14,8.61,77.43,0.62,9.14,74.79,0.35,5.36,77.7,0.79,12.92,74.88,-0.35,6.94,81.65,-1.05,9.23,74.18,0.95,8.33,85.81,-1.12,10.15,82.2,-0.13,4.7,85.48,1.62,13.29,82.81,-0.47,7.0,87.2,-1.66,13.24,81.4,0.0272,0.6061,0.386,-0.0321,0.639,0.3699,-0.0037,0.5399,0.3026,0.0462,0.6961,0.3362,-0.0134,0.5819,0.2612,-0.0473,0.6933,0.3449,0.0,0.0,0.033,0.019,0.006,0.033,0.0,0.0,0.026,0.013,0.078,0.019,0.0,0.006,0.071,0.019,0.071,0.006,0.0261,-0.1411,-0.0322,0.0092,-0.0966,-0.0644,0.0245,-0.1718,-0.0184,0.0107,-0.043,-0.0767,0.0031,-0.1503,0.0353,-0.0092,-0.1181,-0.0506,0.0276,-0.1586,0.0259,-0.0644,-0.0819,0.0096,-0.0871,-0.1434,0.0319,0.0383,0.0064,0.0001,-0.1165,-0.1271,0.1685,-0.1409,-0.0305,-0.0505,0.0256,0.0126,-0.0575,-0.1726,-0.1545,0.0348,0.6242,0.3589,-0.01,0.6463,0.3579,-0.0006,0.5398,0.312,0.0376,0.6923,0.345,-0.0087,0.5868,0.2664,-0.0429,0.7226,0.322,0.0,0.0,0.0,0.0,0.0,0.0,0.0,0.0,0.0,
0.6,run,1.25,5.96,3.02,0.9,-5.95,0.0,0.0,0.0,0.201,0.79,8.26,78.66,0.26,9.14,76.03,0.0,4.75,78.84,0.79,12.83,75.94,-0.62,6.68,82.88,-1.41,10.02,74.97,0.99,8.15,87.31,-1.12,10.61,83.7,0.38,4.96,86.98,1.53,14.05,84.31,-0.61,7.14,86.69,-1.0,13.65,82.9,0.0282,0.6027,0.3798,-0.0319,0.6475,0.3708,0.0109,0.5447,0.2977,0.0436,0.71,0.3175,-0.0175,0.5844,0.2551,-0.0286,0.7028,0.3352,0.006,0.0,0.058,0.026,0.033,0.117,0.0,0.006,0.058,0.026,0.0,0.052,0.0,0.019,0.104,0.019,0.201,0.078,0.0215,-0.1503,-0.0153,0.0015,-0.0966,-0.0506,0.0138,-0.1856,-0.0031,0.0123,-0.043,-0.0598,-0.0015,-0.1611,0.0583,-0.0215,-0.1043,-0.0476,0.0021,-0.1456,0.0815,-0.0739,-0.0573,0.0585,-0.1013,-0.1522,0.0799,0.0326,0.0045,0.0634,-0.0989,-0.1293,0.2043,-0.1447,0.0305,-0.0238,0.0501,-0.0101,0.1217,-0.1693,-0.0814,0.0272,0.6061,0.386,-0.0321,0.639,0.3699,-0.0037,0.5399,0.3026,0.0462,0.6961,0.3362,-0.0134,0.5819,0.2612,-0.0473,0.6933,0.3449,0.0,0.0,0.0,0.0,0.0,0.0,0.0,0.0,0.0,
0.64,run,1.18,5.99,-1.75,1.65,-4.68,0.0,0.0,0.0,0.201,0.7,7.82,80.24,-0.18,9.05,77.61,0.0,4.31,80.42,0.97,12.83,77.43,-0.7,6.59,84.29,-1.49,10.72,76.11,0.83,8.56,88.81,-1.5,11.5,85.2,0.42,6.02,88.48,1.71,13.8,85.81,-0.76,8.43,85.73,-0.82,13.74,84.4,0.0238,0.6103,0.3684,-0.0429,0.6636,0.3612,0.0121,0.5641,0.2865,0.0488,0.7055,0.3294,-0.0218,0.6079,0.2439,-0.0235,0.7044,0.3181,0.006,0.0,0.058,0.026,0.033,0.117,0.0,0.006,0.058,0.026,0.0,0.052,0.0,0.019,0.104,0.019,0.201,0.078,0.0153,-0.1565,0.0061,-0.0046,-0.0966,-0.0291,0.0077,-0.1963,0.0169,0.0123,-0.0445,-0.0414,-0.0061,-0.1657,0.0798,-0.0276,-0.0905,-0.0337,-0.0215,-0.1249,0.1375,-0.0747,-0.0401,0.1214,-0.0939,-0.1467,0.1306,0.0228,-0.0026,0.1133,-0.0864,-0.1077,0.2234,-0.1243,0.073,0.035,0.0589,-0.0049,0.0526,0.0158,-0.1039,0.0282,0.6027,0.3798,-0.0319,0.6475,0.3708,0.0109,0.5447,0.2977,0.0436,0.71,0.3175,-0.0175,0.5844,0.2551,-0.0286,0.7028,0.3352,0.0,0.0,0.0,0.0,0.0,0.0,0.0,0.0,0.0,
0.68,run,1.24,5.83,0.86,-3.34,-2.59,0.0,0.0,0.0,0.201,0.62,7.73,81.56,-0.26,8.96,78.84,0.0,4.22,81.65,0.97,12.74,78.75,-0.7,6.5,84.99,-1.32,11.07,77.26,0.71,8.18,90.31,-1.83,11.88,86.7,0.28,6.82,88.35,1.8,13.49,87.31,-0.9,9.36,85.27,-0.76,13.09,85.9,0.0204,0.6032,0.3547,-0.0524,0.6705,0.3512,0.008,0.5785,0.2747,0.0513,0.6998,0.3228,-0.0256,0.6247,0.2384,-0.0217,0.6925,0.3088,0.006,0.0,0.058,0.026,0.033,0.117,0.0,0.006,0.058,0.026,0.0,0.052,0.0,0.019,0.104,0.019,0.201,0.078,0.0138,-0.1641,0.0337,-0.0123,-0.0982,-0.0015,0.0077,-0.204,0.0445,0.0153,-0.0445,-0.0153,-0.0077,-0.1672,0.1043,-0.0291,-0.0782,-0.0138,-0.0199,-0.1116,0.1831,-0.0764,-0.0329,0.1718,-0.0657,-0.1268,0.1783,0.0256,-0.0018,0.1613,-0.0653,-0.0802,0.2336,-0.0918,0.0897,0.0872,0.0527,-0.0021,-0.0305,0.0289,-0.0818,0.0238,0.6103,0.3684,-0.0429,0.6636,0.3612,0.0121,0.5641,0.2865,0.0488,0.7055,0.3294,-0.0218,0.6079,0.2439,-0.0235,0.7044,0.3181,0.0,0.0,0.0,0.0,0.0,0.0,0.0,0.0,0.0,
0.72,run,1.26,5.83,0.28,-0.39,-1.71,0.0,0.0,0.0,0.227,0.62,7.73,82.79,-0.53,8.96,80.07,0.09,4.22,82.88,0.97,12.74,79.89,-0.97,6.5,85.43,-0.97,11.16,78.31,0.72,7.52,91.81,-2.03,11.81,88.2,0.22,7.61,87.23,1.73,13.73,88.81,-0.98,9.97,84.56,-0.6,12.81,87.4,0.0205,0.5912,0.3456,-0.058,0.6692,0.3499,0.0063,0.593,0.2615,0.0494,0.7042,0.302,-0.0281,0.6358,0.2302,-0.0171,0.6875,0.301,0.0,0.0,0.091,0.033,0.182,0.189,0.0,0.201,0.091,0.045,0.013,0.149,0.006,0.227,0.136,0.006,0.182,0.169,0.0123,-0.1657,0.0568,-0.0138,-0.0997,0.0199,0.0077,-0.2056,0.066,0.0153,-0.046,0.0077,-0.0077,-0.1687,0.1166,-0.0261,-0.0721,0.0061,-0.0196,-0.0838,0.2137,-0.0592,-0.0287,0.2001,-0.046,-0.0945,0.2047,0.0179,-0.007,0.1985,-0.0457,-0.0619,0.2092,-0.0529,0.0856,0.1352,0.058,-0.0159,0.0149,-0.0583,-0.0453,0.0204,0.6032,0.3547,-0.0524,0.6705,0.3512,0.008,0.5785,0.2747,0.0513,0.6998,0.3228,-0.0256,0.6247,0.2384,-0.0217,0.6925,0.3088,0.0,0.0,0.0,0.0,0.0,0.0,0.0,0.0,0.0,
0.76,run,1.14,5.88,-3.54,-0.29,-2.01,0.0,0.0,0.0,0.227,0.62,7.47,84.11,-0.88,8.96,81.21,0.09,4.57,84.02,0.97,12.74,81.04,-1.05,6.5,85.69,-0.62,11.16,79.63,0.65,7.27,93.31,-2.15,12.15,89.7,0.11,8.46,86.44,1.77,13.6,90.31,-0.99,10.91,83.92,-0.56,12.64,88.9,0.0186,0.5868,0.3348,-0.0614,0.6754,0.342,0.0032,0.6084,0.2522,0.0506,0.7018,0.2999,-0.0282,0.653,0.2226,-0.0159,0.6844,0.289,0.0,0.0,0.091,0.033,0.182,0.189,0.0,0.201,0.091,0.045,0.013,0.149,0.006,0.227,0.136,0.006,0.182,0.169,0.0123,-0.1657,0.0782,-0.0184,-0.0997,0.0414,0.0092,-0.2056,0.0874,0.0153,-0.046,0.0276,-0.0123,-0.1687,0.1243,-0.0199,-0.0706,0.0245,-0.0137,-0.0587,0.2303,-0.0587,-0.0201,0.2208,-0.0264,-0.0661,0.2239,0.0125,-0.0049,0.2139,-0.0493,-0.0433,0.1752,-0.014,0.0657,0.1638,0.0604,-0.0154,0.0048,-0.0069,-0.0298,0.0205,0.5912,0.3456,-0.058,0.6692,0.3499,0.0063,0.593,0.2615,0.0494,0.7042,0.302,-0.0281,0.6358,0.2302,-0.0171,0.6875,0.301,0.0,0.0,0.0,0.0,0.0,0.0,0.0,0.0,0.0,
0.8,run,1.07,5.92,-3.08,0.63,-1.53,0.0,0.0,0.0,0.227,0.62,7.03,85.43,-1.14,8.96,82.53,0.09,5.19,84.9,0.97,12.66,82.35,-1.05,7.21,85.69,-0.53,11.16,80.86,0.59,7.03,92.59,-2.29,12.49,91.2,-0.11,8.96,86.03,1.78,13.46,90.12,-0.97,11.53,84.28,-0.58,12.2,89.29,0.0169,0.5823,0.3246,-0.0653,0.6816,0.3343,-0.0031,0.6175,0.2475,0.0509,0.6992,0.2955,-0.0279,0.6641,0.2268,-0.0167,0.6764,0.2857,0.0,0.0,0.091,0.033,0.182,0.189,0.0,0.201,0.091,0.045,0.013,0.149,0.006,0.227,0.136,0.006,0.182,0.169,0.0123,-0.1703,0.1012,-0.0245,-0.0997,0.0614,0.0092,-0.1994,0.1074,0.0153,-0.046,0.0476,-0.0138,-0.1687,0.1289,-0.0138,-0.0706,0.0476,-0.0096,-0.0584,0.2478,-0.0642,-0.0141,0.2296,-0.0185,-0.0232,0.2318,0.0088,-0.0034,0.2248,-0.0403,-0.0303,0.14,0.0133,0.046,0.2013,0.0498,-0.0115,-0.0618,-0.005,-0.035,0.0186,0.5868,0.3348,-0.0614,0.6754,0.342,0.0032,0.6084,0.2522,0.0506,0.7018,0.2999,-0.0282,0.653,0.2226,-0.0159,0.6844,0.289,0.0,0.0,0.0,0.0,0.0,0.0,0.0,0.0,0.0,
0.84,run,0.88,5.59,-4.28,-8.45,-1.86,0.0,0.0,0.0,0.396,0.62,6.68,87.01,-1.49,8.96,84.02,0.09,5.71,85.69,0.97,12.66,83.67,-1.05,7.82,85.61,-0.53,11.16,82.35,0.52,7.12,91.6,-2.31,12.64,92.7,-0.16,9.59,85.72,1.7,13.25,89.79,-0.84,12.01,84.93,-0.48,11.92,89.13,0.0147,0.5841,0.3129,-0.0661,0.6844,0.3276,-0.0045,0.6289,0.2438,0.0485,0.6955,0.2916,-0.024,0.6729,0.2345,-0.0138,0.6713,0.2839,0.0,0.013,0.078,0.013,0.292,0.254,0.0,0.396,0.091,0.033,0.019,0.26,0.006,0.357,0.0,0.0,0.033,0.189,0.0123,-0.1779,0.1243,-0.0291,-0.0997,0.0844,0.0092,-0.1887,0.1227,0.0153,-0.0476,0.0706,-0.0138,-0.1565,0.1289,-0.0123,-0.0706,0.069,-0.0067,-0.0696,0.2597,-0.0622,-0.0099,0.247,-0.013,0.024,0.2198,0.0061,-0.0081,0.2436,-0.0282,0.0248,0.098,0.0151,0.0322,0.2214,0.0433,-0.0078,-0.0537,0.011,-0.0267,0.0169,0.5823,0.3246,-0.0653,0.6816,0.3343,-0.0031,0.6175,0.2475,0.0509,0.6992,0.2955,-0.0279,0.6641,0.2268,-0.0167,0.6764,0.2857,0.0,0.0,0.0,0.0,0.0,0.0,0.0,0.0,0.0,
0.88,run,0.85,5.55,-0.72,-1.06,1.97,0.0,0.0,0.0,0.396,0.62,6.68,88.33,-1.49,9.32,85.34,0.09,6.15,86.13,0.97,12.39,84.99,-1.05,8.7,84.73,-0.53,11.07,83.67,0.52,6.55,90.62,-2.39,12.64,92.29,-0.27,9.96,85.34,1.62,13.47,88.29,-0.8,11.75,86.04,-0.38,10.76,90.05,0.015,0.5737,0.3014,-0.0684,0.6844,0.3211,-0.0078,0.6356,0.2393,0.0464,0.6995,0.2662,-0.0228,0.6682,0.2476,-0.011,0.6501,0.2947,0.0,0.013,0.078,0.013,0.292,0.254,0.0,0.396,0.091,0.033,0.019,0.26,0.006,0.357,0.0,0.0,0.033,0.189,0.0123,-0.1841,0.1519,-0.0353,-0.0997,0.1104,0.0092,-0.1795,0.1365,0.0153,-0.0476,0.0936,-0.0138,-0.1457,0.1273,-0.0123,-0.0706,0.0951,-0.0047,-0.0706,0.2803,-0.0654,-0.0069,0.266,-0.0091,0.0497,0.2031,0.0043,-0.0057,0.2526,-0.0197,0.0557,0.0631,0.0106,0.0225,0.248,0.0269,-0.0365,-0.0747,-0.1475,-0.0325,0.0147,0.5841,0.3129,-0.0661,0.6844,0.3276,-0.0045,0.6289,0.2438,0.0485,0.6955,0.2916,-0.024,0.6729,0.2345,-0.0138,0.6713,0.2839,0.0,0.0,0.0,0.0,0.0,0.0,0.0,0.0,0.0,
0.92,run,0.67,5.47,-4.74,-2.45,0.75,0.0,0.0,0.0,0.396,0.62,6.59,89.56,-1.76,9.49,86.84,0.09,7.03,86.4,0.97,12.39,86.31,-1.05,9.4,84.55,-0.53,10.72,84.99,0.48,7.19,89.46,-2.09,13.0,91.55,-0.14,11.23,84.82,1.44,13.46,88.38,-0.68,12.73,86.17,-0.17,10.93,89.36,0.0137,0.5853,0.2878,-0.0598,0.6909,0.3124,-0.004,0.6588,0.2332,0.0411,0.6992,0.2751,-0.0196,0.686,0.249,-0.0048,0.6533,0.2865,0.0,0.013,0.078,0.013,0.292,0.254,0.0,0.396,0.091,0.033,0.019,0.26,0.006,0.357,0.0,0.0,0.033,0.189,0.0123,-0.1841,0.1749,-0.0353,-0.0936,0.1335,0.0092,-0.1718,0.1442,0.0153,-0.0522,0.1166,-0.0138,-0.1304,0.112,-0.0123,-0.0721,0.1181,-0.0033,-0.0494,0.2872,-0.0458,0.0194,0.2771,-0.0063,0.0651,0.1725,0.003,-0.0222,0.2678,-0.0138,0.0996,-0.0164,0.0074,0.0097,0.2646,0.0239,-0.04,-0.0126,-0.0186,0.0344,0.015,0.5737,0.3014,-0.0684,0.6844,0.3211,-0.0078,0.6356,0.2393,0.0464,0.6995,0.2662,-0.0228,0.6682,0.2476,-0.011,0.6501,0.2947,0.0,0.0,0.0,0.0,0.0,0.0,0.0,0.0,0.0,
0.96,run,0.68,5.48,-0.14,0.0,0.11,0.0,0.0,0.0,0.396,0.62,6.42,90.53,-1.85,9.67,88.33,0.09,7.91,86.48,0.97,12.39,87.36,-0.88,10.02,84.46,-0.26,10.37,86.22,0.53,7.52,88.23,-1.86,13.19,90.57,-0.29,11.61,85.16,1.3,13.46,87.67,-0.51,12.76,87.67,-0.25,10.12,89.91,0.0151,0.5913,0.2732,-0.0531,0.6944,0.3008,-0.0082,0.6656,0.2372,0.0371,0.6992,0.2667,-0.0147,0.6866,0.2675,-0.0071,0.6385,0.293,0.006,0.033,0.0,0.0,0.201,0.019,0.006,0.254,0.0,0.013,0.033,0.013,0.006,0.143,0.097,0.0,0.013,0.104,0.0123,-0.1856,0.1963,-0.0399,-0.0905,0.1595,0.0092,-0.1565,0.1488,0.0153,-0.0522,0.1396,-0.0138,-0.1181,0.1089,-0.0123,-0.0782,0.1411,-0.0023,-0.0403,0.281,-0.0492,0.025,0.2911,-0.0044,0.1027,0.1379,0.0021,-0.0155,0.2732,-0.0097,0.1154,-0.0229,0.0052,-0.0161,0.2709,0.0088,-0.0471,-0.0827,-0.0427,0.0131,0.0137,0.5853,0.2878,-0.0598,0.6909,0.3124,-0.004,0.6588,0.2332,0.0411,0.6992,0.2751,-0.0196,0.686,0.249,-0.0048,0.6533,0.2865,0.0,0.0,0.0,0.0,0.0,0.0,0.0,0.0,0.0,
1.0,run,0.64,5.59,-0.02,0.07,0.1,-0.0,0.0,0.0,0.396,0.7,6.5,88.33,-1.76,10.11,90.0,0.09,9.49,85.08,1.05,12.39,87.36,-0.7,10.9,86.31,-0.18,9.4,88.15,0.48,7.83,87.59,-1.67,13.2,89.98,-0.2,11.9,85.12,1.22,13.54,87.39,-0.38,12.96,87.92,-0.13,10.32,89.6,0.0136,0.5968,0.2658,-0.0476,0.6945,0.2939,-0.0057,0.6709,0.2367,0.0349,0.7008,0.2634,-0.011,0.6902,0.2697,-0.0037,0.6421,0.2894,0.013,0.033,0.006,0.0,0.247,0.006,0.006,0.254,0.0,0.006,0.033,0.006,0.006,0.143,0.091,0.0,0.019,0.078,0.0123,-0.1887,0.2132,-0.0414,-0.0874,0.1856,0.0092,-0.1411,0.1503,0.0153,-0.0522,0.158,-0.0107,-0.1074,0.1074,-0.0077,-0.0844,0.1626,-0.0016,-0.0397,0.2599,-0.0402,0.029,0.3014,-0.0031,0.1293,0.1023,0.0015,-0.0109,0.2601,0.0047,0.121,-0.0218,0.0209,-0.0342,0.2701,0.0091,-0.0463,-0.0025,0.0001,0.0019,0.0151,0.5913,0.2732,-0.0531,0.6944,0.3008,-0.0082,0.6656,0.2372,0.0371,0.6992,0.2667,-0.0147,0.6866,0.2675,-0.0071,0.6385,0.293,0.0,0.0,-0.0,0.0,0.0,0.0,0.0,0.0,0.0,
1.04,run,0.62,5.61,-0.41,0.19,-0.02,-0.4,0.0,0.0,0.396,0.62,6.5,88.15,-1.76,10.11,90.0,0.09,9.49,85.08,1.05,12.39,87.1,-0.62,10.9,86.31,-0.18,9.4,88.15,0.46,8.23,87.15,-1.44,12.12,89.92,-0.3,11.06,86.48,1.28,12.71,87.84,0.02,12.15,88.75,-0.12,9.61,89.67,0.0133,0.6042,0.2606,-0.0412,0.6748,0.2931,-0.0087,0.6556,0.2528,0.0366,0.6857,0.2687,0.0007,0.6754,0.2794,-0.0033,0.6293,0.2902,0.013,0.033,0.006,0.0,0.247,0.006,0.006,0.254,0.0,0.006,0.033,0.006,0.006,0.143,0.091,0.0,0.019,0.078,0.0138,-0.1871,0.1749,-0.0399,-0.0798,0.2148,0.0092,-0.1135,0.1258,0.0169,-0.0522,0.158,-0.0077,-0.092,0.1396,-0.0061,-0.1012,0.1963,-0.0016,-0.0397,0.2599,-0.0402,0.029,0.3014,-0.0031,0.1293,0.1023,0.0015,-0.0109,0.2601,0.0047,0.121,-0.0218,0.0209,-0.0342,0.2701,0.0058,-0.0367,-0.0004,0.0011,0.0018,0.0136,0.5968,0.2658,-0.0476,0.6945,0.2939,-0.0057,0.6709,0.2367,0.0349,0.7008,0.2634,-0.011,0.6902,0.2697,-0.0037,0.6421,0.2894,0.0,0.0,-0.0072,0.0,0.0,0.0,0.0,0.0,0.0,
1.08,run,0.61,5.62,-1.07,0.39,0.4,-0.7,0.0,0.0,0.396,0.53,6.5,87.71,-1.76,10.11,89.47,0.09,9.58,85.08,1.05,12.39,86.92,-0.44,10.9,86.48,-0.18,9.4,88.15,0.38,7.53,88.29,-1.43,11.56,90.95,-0.28,10.45,86.52,1.21,12.63,88.92,0.09,12.02,88.35,-0.04,9.56,90.41,0.0108,0.5914,0.274,-0.0407,0.6647,0.3052,-0.0081,0.6445,0.2532,0.0345,0.6841,0.2814,0.0026,0.6731,0.2747,-0.0012,0.6284,0.2989,0.013,0.033,0.006,0.0,0.247,0.006,0.006,0.254,0.0,0.006,0.033,0.006,0.006,0.143,0.091,0.0,0.019,0.078,0.0123,-0.1871,0.1718,-0.0399,-0.0798,0.2148,0.0092,-0.1135,0.1258,0.0169,-0.0522,0.1534,-0.0061,-0.092,0.1396,-0.0061,-0.1012,0.1963,-0.0067,-0.0278,0.1707,-0.0281,0.0203,0.211,-0.0022,0.0905,0.0716,0.001,-0.0076,0.1652,0.0089,0.0847,-0.0153,0.0146,-0.024,0.189,0.0043,-0.0354,-0.0072,0.0034,-0.0004,0.0133,0.6042,0.2606,-0.0412,0.6748,0.2931,-0.0087,0.6556,0.2528,0.0366,0.6857,0.2687,0.0007,0.6754,0.2794,-0.0033,0.6293,0.2902,0.0,0.0,-0.0144,0.0,0.0,0.0,0.0,0.0,0.0,
1.12,run,0.66,5.58,0.97,-1.9,1.7,-1.1,0.0,0.0,0.396,0.35,6.77,87.19,-1.58,10.11,89.21,0.09,9.58,85.08,0.88,12.39,86.92,-0.26,10.9,86.75,-0.18,9.4,88.15,0.33,6.82,89.44,-1.46,10.99,92.17,-0.31,9.78,86.69,1.14,12.38,90.12,0.09,11.82,88.03,-0.05,9.61,91.05,0.0094,0.5786,0.2876,-0.0416,0.6543,0.3196,-0.0088,0.6324,0.2552,0.0326,0.6797,0.2955,0.0027,0.6695,0.271,-0.0013,0.6294,0.3064,0.0,0.052,0.0,0.0,0.163,0.006,0.0,0.214,0.006,0.0,0.026,0.033,0.006,0.182,0.084,0.006,0.006,0.039,0.0107,-0.1871,0.1641,-0.0399,-0.0798,0.2056,0.0092,-0.112,0.1258,0.0169,-0.0522,0.1503,-0.0031,-0.092,0.1427,-0.0061,-0.1012,0.1963,-0.0105,-0.0195,0.0907,-0.0197,0.0142,0.1132,-0.0015,0.0691,0.0501,0.0007,-0.0053,0.1042,0.0177,0.0593,0.0008,0.0102,-0.0168,0.1323,0.0033,-0.0337,-0.0186,0.0069,0.007,0.0108,0.5914,0.274,-0.0407,0.6647,0.3052,-0.0081,0.6445,0.2532,0.0345,0.6841,0.2814,0.0026,0.6731,0.2747,-0.0012,0.6284,0.2989,0.0,0.0,-0.0216,0.0,0.0,0.0,0.0,0.0,0.0,
1.16,run,0.69,5.51,0.8,-1.9,2.24,-1.4,0.0,0.0,0.396,0.35,6.86,86.75,-1.41,10.11,88.77,0.09,9.58,85.08,0.7,12.39,86.92,-0.26,10.9,86.92,0.0,9.4,88.15,0.31,5.91,90.43,-1.55,10.18,93.33,-0.37,9.23,86.48,1.08,12.2,90.58,0.05,11.52,87.23,-0.05,9.6,91.53,0.0089,0.562,0.2992,-0.0443,0.6397,0.3333,-0.0107,0.6224,0.2527,0.0307,0.6764,0.3009,0.0015,0.664,0.2615,-0.0015,0.6291,0.3121,0.0,0.052,0.0,0.0,0.163,0.006,0.0,0.214,0.006,0.0,0.026,0.033,0.006,0.182,0.084,0.006,0.006,0.039,0.0077,-0.1825,0.1549,-0.0368,-0.0798,0.201,0.0092,-0.112,0.1258,0.0138,-0.0522,0.1503,0.0,-0.092,0.1473,-0.0061,-0.1012,0.1963,-0.0187,0.0035,0.0293,-0.0024,0.0099,0.0621,-0.0011,0.0484,0.0351,-0.0109,-0.0037,0.0729,0.0238,0.0415,0.0177,0.0072,-0.0117,0.0926,0.0079,-0.0376,0.0169,-0.0332,0.0296,0.0094,0.5786,0.2876,-0.0416,0.6543,0.3196,-0.0088,0.6324,0.2552,0.0326,0.6797,0.2955,0.0027,0.6695,0.271,-0.0013,0.6294,0.3064,0.0,0.0,-0.0288,0.0,0.0,0.0,0.0,0.0,0.0,
1.2,run,0.66,5.42,-0.98,-2.17,-2.67,-1.8,0.0,0.0,0.396,0.09,7.29,86.13,-1.14,10.11,88.24,0.09,9.93,84.81,0.44,12.39,86.84,-0.26,10.9,86.92,0.0,9.4,88.15,0.3,5.08,91.31,-1.63,9.56,94.16,-0.47,8.79,86.21,1.03,12.02,91.34,0.05,11.27,86.29,-0.05,9.4,91.9,0.0086,0.5469,0.3095,-0.0467,0.6283,0.343,-0.0134,0.6143,0.2495,0.0295,0.6731,0.3099,0.0013,0.6595,0.2505,-0.0015,0.6255,0.3165,0.0,0.052,0.0,0.0,0.163,0.006,0.0,0.214,0.006,0.0,0.026,0.033,0.006,0.182,0.084,0.006,0.006,0.039,0.0077,-0.181,0.1473,-0.0337,-0.0798,0.1933,0.0092,-0.112,0.1258,0.0107,-0.0522,0.1503,0.0,-0.092,0.1503,-0.0031,-0.1012,0.1963,-0.0131,0.0082,-0.0084,0.0099,0.007,0.0145,-0.0007,0.0339,0.0246,-0.0192,-0.0026,0.051,0.0167,0.0291,0.024,0.0166,-0.0082,0.0648,0.0104,-0.0439,0.014,-0.0332,0.0391,0.0089,0.562,0.2992,-0.0443,0.6397,0.3333,-0.0107,0.6224,0.2527,0.0307,0.6764,0.3009,0.0015,0.664,0.2615,-0.0015,0.6291,0.3121,0.0,0.0,-0.036,0.0,0.0,0.0,0.0,0.0,0.0,
1.24,run,0.62,5.39,-0.77,-0.25,1.35,-2.2,0.0,0.0,0.396,0.35,7.91,85.52,-0.88,10.72,87.8,0.09,10.2,84.55,0.09,12.39,86.4,-0.26,11.16,86.4,0.0,9.4,88.15,0.28,4.43,92.24,-1.77,9.06,94.76,-0.66,8.23,85.99,0.93,11.84,92.06,0.07,10.54,85.52,-0.06,9.24,92.63,0.0079,0.5351,0.3205,-0.0506,0.6193,0.3502,-0.0189,0.6041,0.247,0.0267,0.6698,0.3183,0.0019,0.6462,0.2414,-0.0017,0.6226,0.325,0.0,0.045,0.0,0.006,0.117,0.006,0.013,0.182,0.0,0.006,0.039,0.039,0.013,0.182,0.019,0.0,0.033,0.013,0.0031,-0.1733,0.1365,-0.0291,-0.0798,0.1841,0.0092,-0.1058,0.1212,0.0061,-0.0522,0.1488,0.0,-0.092,0.1503,-0.0031,-0.1012,0.1963,-0.0264,0.0344,-0.0461,0.0241,0.0049,-0.0242,-0.0005,0.0466,-0.0,-0.0307,-0.0018,0.03,0.0117,0.0203,0.0168,0.0116,-0.0058,0.0454,0.0078,-0.0511,-0.0172,-0.0379,-0.0466,0.0086,0.5469,0.3095,-0.0467,0.6283,0.343,-0.0134,0.6143,0.2495,0.0295,0.6731,0.3099,0.0013,0.6595,0.2505,-0.0015,0.6255,0.3165,0.0,0.0,-0.0432,0.0,0.0,0.0,0.0,0.0,0.0,
1.28,run,0.57,5.33,-0.7,-3.95,4.95,-2.5,0.0,0.0,0.396,0.44,8.09,84.99,-0.35,10.9,87.71,-0.09,10.28,84.46,0.09,12.48,86.48,-0.26,11.16,85.69,0.0,9.4,88.24,0.25,4.01,93.09,-1.69,8.39,95.35,-0.7,8.17,85.74,0.88,11.55,93.37,0.13,10.38,84.67,-0.03,8.94,92.84,0.0072,0.5275,0.3305,-0.0482,0.6071,0.357,-0.02,0.6031,0.244,0.0252,0.6645,0.3337,0.0036,0.6432,0.2314,-0.001,0.6171,0.3276,0.0,0.045,0.0,0.006,0.117,0.006,0.013,0.182,0.0,0.006,0.039,0.039,0.013,0.182,0.019,0.0,0.033,0.013,0.0077,-0.1626,0.1258,-0.0245,-0.069,0.1764,0.0092,-0.1012,0.1166,0.0,-0.0522,0.1411,0.0,-0.0874,0.1411,-0.0031,-0.1012,0.1963,-0.0011,0.0645,-0.0727,0.0342,0.0438,-0.0458,-0.0004,0.05,-0.0173,-0.0446,-0.0013,-0.0079,0.0082,0.0316,-0.0229,0.0081,-0.004,0.0318,0.0042,-0.054,-0.0134,-0.0043,0.0236,0.0079,0.5351,0.3205,-0.0506,0.6193,0.3502,-0.0189,0.6041,0.247,0.0267,0.6698,0.3183,0.0019,0.6462,0.2414,-0.0017,0.6226,0.325,0.0,0.0,-0.0504,0.0,0.0,0.0,0.0,0.0,0.0,
1.32,run,0.52,5.37,-0.95,1.4,-0.69,-2.9,0.0,0.0,0.396,0.44,8.17,84.73,-0.35,10.9,87.63,-0.18,10.28,84.46,0.44,12.48,86.84,-0.26,11.16,84.99,0.0,9.4,88.24,0.29,3.17,93.79,-1.68,7.6,96.13,-0.88,7.95,85.45,0.75,11.28,93.8,0.05,10.05,84.1,-0.08,8.37,93.85,0.0083,0.5121,0.3387,-0.0479,0.5927,0.3663,-0.0252,0.599,0.2406,0.0215,0.6596,0.3388,0.0014,0.6373,0.2247,-0.0022,0.6068,0.3394,0.0,0.045,0.0,0.006,0.117,0.006,0.013,0.182,0.0,0.006,0.039,0.039,0.013,0.182,0.019,0.0,0.033,0.013,0.0092,-0.1595,0.1166,-0.0153,-0.066,0.1749,0.0061,-0.0997,0.115,0.0,-0.0506,0.1427,0.0,-0.0874,0.1289,-0.0031,-0.1012,0.1979,0.005,0.0567,-0.0855,0.0585,0.0422,-0.0379,-0.0118,0.0408,-0.0179,-0.0312,0.0049,0.0002,0.0057,0.0221,-0.0622,0.0057,-0.0028,0.028,-0.0002,-0.0597,-0.0122,-0.0689,0.0864,0.0072,0.5275,0.3305,-0.0482,0.6071,0.357,-0.02,0.6031,0.244,0.0252,0.6645,0.3337,0.0036,0.6432,0.2314,-0.001,0.6171,0.3276,0.0,0.0,-0.0576,0.0,0.0,0.0,0.0,0.0,0.0,
1.36,run,0.48,5.35,-0.7,-1.06,4.06,-3.2,0.0,0.0,0.396,0.18,8.17,84.64,-0.44,10.9,87.71,-0.18,10.28,84.55,0.53,12.04,87.28,-0.26,11.16,84.2,0.0,8.79,88.24,0.14,2.58,94.93,-1.86,7.28,96.54,-0.92,7.2,84.89,0.67,10.68,95.3,-0.02,9.51,82.85,0.01,8.36,94.5,0.004,0.5014,0.3521,-0.0532,0.5869,0.3711,-0.0264,0.5854,0.2341,0.0192,0.6488,0.3577,-0.0007,0.6275,0.21,0.0003,0.6066,0.347,0.013,0.0,0.006,0.006,0.019,0.065,0.019,0.0,0.013,0.006,0.006,0.084,0.006,0.0,0.0,0.0,0.0,0.156,0.0092,-0.158,0.112,-0.0153,-0.066,0.1733,0.0046,-0.0997,0.115,0.0061,-0.0506,0.1488,0.0,-0.0874,0.1166,-0.0031,-0.1012,0.1979,0.0035,0.0447,-0.075,0.041,0.0296,-0.0315,-0.0133,0.0285,-0.0125,-0.0016,0.0034,0.0204,0.004,0.0155,-0.0839,0.004,-0.002,0.0196,-0.0043,-0.0558,-0.0165,0.0245,-0.0121,0.0083,0.5121,0.3387,-0.0479,0.5927,0.3663,-0.0252,0.599,0.2406,0.0215,0.6596,0.3388,0.0014,0.6373,0.2247,-0.0022,0.6068,0.3394,0.0,0.0,-0.0648,0.0,0.0,0.0,0.0,0.0,0.0,
1.4,run,0.4,5.44,-2.1,2.27,2.7,-3.6,0.0,0.0,0.396,0.26,8.0,84.64,-0.88,10.9,88.15,-0.26,9.67,84.55,0.44,11.34,87.98,-0.18,10.55,83.67,0.0,8.26,88.68,0.13,1.5,96.21,-1.81,6.48,97.46,-1.06,6.57,84.47,0.38,10.55,96.11,-0.05,9.01,81.96,-0.01,7.83,95.7,0.0036,0.4817,0.3671,-0.0517,0.5724,0.3819,-0.0303,0.5741,0.229,0.011,0.6463,0.366,-0.0014,0.6184,0.1996,-0.0003,0.5969,0.3612,0.013,0.0,0.006,0.006,0.019,0.065,0.019,0.0,0.013,0.006,0.006,0.084,0.006,0.0,0.0,0.0,0.0,0.156,0.0046,-0.158,0.1104,-0.0169,-0.066,0.1749,0.0046,-0.0997,0.1166,0.0077,-0.0583,0.1565,0.0,-0.0874,0.1028,-0.0031,-0.112,0.1979,-0.0128,0.0313,-0.0576,0.0236,0.0207,-0.017,-0.0093,0.02,-0.0037,0.0039,-0.023,0.0397,0.0028,0.0108,-0.1044,0.0028,-0.0369,0.0137,-0.0076,-0.0573,-0.0122,-0.0186,0.0708,0.004,0.5014,0.3521,-0.0532,0.5869,0.3711,-0.0264,0.5854,0.2341,0.0192,0.6488,0.3577,-0.0007,0.6275,0.21,0.0003,0.6066,0.347,0.0,0.0,-0.072,0.0,0.0,0.0,0.0,0.0,0.0,
1.44,run,0.38,5.54,-0.34,3.29,2.52,-4.0,0.0,0.0,0.396,0.26,7.47,84.81,-1.23,10.02,88.68,-0.53,8.79,84.55,0.44,10.55,88.95,-0.18,9.67,82.97,0.0,7.82,89.47,-0.11,0.67,97.71,-1.89,6.19,98.27,-1.17,5.61,83.63,0.07,9.94,97.61,-0.24,8.41,80.46,0.08,7.43,96.93,-0.0031,0.4667,0.3879,-0.0539,0.5672,0.3914,-0.0333,0.5565,0.2191,0.0019,0.6352,0.3909,-0.0069,0.6075,0.1749,0.0023,0.5896,0.3756,0.013,0.0,0.006,0.006,0.019,0.065,0.019,0.0,0.013,0.006,0.006,0.084,0.006,0.0,0.0,0.0,0.0,0.156,0.0061,-0.1611,0.1104,-0.0245,-0.066,0.1825,0.0031,-0.1104,0.1166,0.0061,-0.0706,0.1687,0.0015,-0.0982,0.0936,-0.0031,-0.1212,0.2056,-0.0033,0.0105,-0.0403,-0.012,0.0145,0.0166,-0.0122,-0.026,-0.0026,-0.003,-0.0618,0.0734,0.0077,-0.0324,-0.1073,0.002,-0.0601,0.0381,-0.0151,-0.0498,-0.0366,0.0396,0.0472,0.0036,0.4817,0.3671,-0.0517,0.5724,0.3819,-0.0303,0.5741,0.229,0.011,0.6463,0.366,-0.0014,0.6184,0.1996,-0.0003,0.5969,0.3612,0.0,0.0,-0.0792,0.0,0.0,0.0,0.0,0.0,0.0,
1.48,run,0.46,5.59,2.56,1.47,3.65,-4.3,0.0,0.0,0.396,0.26,6.59,85.69,-1.41,8.96,89.74,-0.53,7.73,84.46,0.35,10.02,90.0,-0.18,8.88,82.0,0.0,7.29,90.53,-0.37,-0.73,99.21,-1.99,5.82,99.77,-1.29,4.46,82.64,-0.43,9.24,99.11,-0.61,7.95,78.96,0.22,7.17,98.34,-0.0105,0.4412,0.4122,-0.0568,0.5603,0.4104,-0.0369,0.5357,0.2075,-0.0123,0.6225,0.4126,-0.0173,0.5992,0.1422,0.0062,0.585,0.3922,0.019,0.0,0.033,0.013,0.0,0.123,0.013,0.006,0.0,0.006,0.0,0.156,0.013,0.013,0.013,0.013,0.006,0.136,0.0061,-0.1703,0.1135,-0.0307,-0.0813,0.1917,-0.0015,-0.1258,0.1166,0.0061,-0.0844,0.1856,0.0015,-0.1135,0.0813,-0.0031,-0.1289,0.2194,-0.0023,-0.0267,-0.0168,-0.0311,-0.0467,0.0457,-0.0256,-0.075,-0.0018,-0.0021,-0.0944,0.1139,0.0054,-0.0795,-0.1206,0.0014,-0.0705,0.0778,-0.0164,-0.0411,-0.006,0.0575,0.044,-0.0031,0.4667,0.3879,-0.0539,0.5672,0.3914,-0.0333,0.5565,0.2191,0.0019,0.6352,0.3909,-0.0069,0.6075,0.1749,0.0023,0.5896,0.3756,0.0,0.0,-0.0864,0.0,0.0,0.0,0.0,0.0,0.0,
1.52,run,0.78,5.42,6.57,-4.37,-3.24,-4.7,0.0,0.0,0.396,-0.18,5.1,86.92,-1.58,7.47,91.23,-0.88,6.24,84.2,-0.26,9.23,91.67,-0.7,8.17,80.95,0.09,6.77,92.02,-0.62,-2.23,100.71,-2.17,5.4,101.27,-1.54,3.54,81.27,-0.99,8.6,100.61,-1.2,7.5,77.46,0.4,6.57,99.49,-0.0178,0.4112,0.4394,-0.0621,0.5527,0.4298,-0.0439,0.5189,0.1914,-0.0283,0.6108,0.4313,-0.0343,0.591,0.1028,0.0115,0.5741,0.4058,0.019,0.0,0.033,0.013,0.0,0.123,0.013,0.006,0.0,0.006,0.0,0.156,0.013,0.013,0.013,0.013,0.006,0.136,0.0061,-0.1856,0.1289,-0.0337,-0.0997,0.2102,-0.0015,-0.1442,0.115,0.0046,-0.0936,0.204,0.0015,-0.1273,0.0644,-0.0031,-0.1381,0.2378,-0.0016,-0.0767,0.0462,-0.0334,-0.1022,0.1016,-0.0179,-0.1221,-0.0071,-0.0072,-0.1008,0.1493,0.0038,-0.1078,-0.1482,0.001,-0.0841,0.124,-0.0098,-0.0369,0.0446,0.0257,0.0637,-0.0105,0.4412,0.4122,-0.0568,0.5603,0.4104,-0.0369,0.5357,0.2075,-0.0123,0.6225,0.4126,-0.0173,0.5992,0.1422,0.0062,0.585,0.3922,0.0,0.0,-0.0936,0.0,0.0,0.0,0.0,0.0,0.0,
1.56,run,0.49,5.3,-8.81,-2.96,-3.76,-5.0,0.0,0.0,0.396,-0.18,3.78,88.24,-1.67,6.59,92.72,-0.88,5.27,83.41,-0.44,8.79,93.08,-0.7,7.73,79.45,0.0,6.5,93.34,-1.11,-3.73,102.21,-2.59,5.0,102.77,-1.8,2.26,79.77,-1.6,8.37,102.11,-2.23,6.66,75.96,0.86,5.86,100.99,-0.0317,0.3704,0.4822,-0.0741,0.5454,0.4578,-0.0514,0.4957,0.1705,-0.0458,0.6068,0.442,-0.0637,0.5756,0.0409,0.0246,0.5611,0.4276,0.019,0.0,0.033,0.013,0.0,0.123,0.013,0.006,0.0,0.006,0.0,0.156,0.013,0.013,0.013,0.013,0.006,0.136,-0.0015,-0.2117,0.1503,-0.0368,-0.1258,0.2362,-0.0077,-0.1703,0.1104,-0.0061,-0.1074,0.2332,-0.0077,-0.1396,0.046,-0.0015,-0.1473,0.2638,-0.0252,-0.1355,0.0997,-0.033,-0.1534,0.153,-0.0318,-0.1673,-0.0194,-0.0388,-0.1139,0.196,-0.0263,-0.114,-0.1615,0.0055,-0.0878,0.1687,0.0184,-0.052,0.1147,-0.0763,-0.0566,-0.0178,0.4112,0.4394,-0.0621,0.5527,0.4298,-0.0439,0.5189,0.1914,-0.0283,0.6108,0.4313,-0.0343,0.591,0.1028,0.0115,0.5741,0.4058,0.0,0.0,-0.1008,0.0,0.0,0.0,0.0,0.0,0.0,
1.6,run,0.46,5.37,-1.85,-0.82,-7.72,-5.4,0.0,0.0,0.396,-0.7,2.37,89.65,-1.93,5.54,94.04,-1.14,4.22,82.62,-0.97,8.09,94.31,-1.32,7.29,78.75,0.44,6.06,94.75,-1.74,-5.23,103.71,-3.32,5.4,104.27,-2.33,1.14,78.27,-2.07,6.87,103.61,-3.3,6.58,74.46,1.01,4.36,102.49,-0.0496,0.3207,0.5197,-0.0947,0.5527,0.4762,-0.0667,0.4752,0.1496,-0.0592,0.5683,0.4861,-0.0942,0.5741,-0.0194,0.0288,0.5191,0.4465,0.013,0.0,0.026,0.019,0.006,0.156,0.013,0.0,0.026,0.006,0.013,0.182,0.0,0.0,0.033,0.0,0.0,0.143,-0.0015,-0.2347,0.1733,-0.0383,-0.1411,0.2623,-0.0077,-0.1871,0.0966,-0.0092,-0.115,0.2577,-0.0077,-0.1473,0.0199,-0.0031,-0.1519,0.2869,-0.0176,-0.1806,0.1555,-0.0288,-0.1645,0.2042,-0.0223,-0.18,-0.065,-0.0386,-0.1083,0.2286,-0.0184,-0.1084,-0.2102,-0.0019,-0.0786,0.2038,-0.0069,-0.0623,-0.1537,-0.0516,-0.0656,-0.0317,0.3704,0.4822,-0.0741,0.5454,0.4578,-0.0514,0.4957,0.1705,-0.0458,0.6068,0.442,-0.0637,0.5756,0.0409,0.0246,0.5611,0.4276,0.0,0.0,-0.108,0.0,0.0,0.0,0.0,0.0,0.0,
1.64,run,0.82,5.4,7.97,1.35,-9.37,-5.8,0.0,0.0,0.396,-1.23,0.88,91.05,-2.29,4.75,95.45,-1.58,2.9,81.56,-1.58,7.65,95.71,-1.93,6.68,77.26,0.7,5.19,96.06,-2.26,-6.73,105.21,-3.42,5.41,105.77,-2.33,-0.36,76.77,-3.3,6.04,105.11,-4.36,5.37,72.96,1.77,2.86,103.99,-0.0645,0.287,0.5699,-0.0978,0.5528,0.5004,-0.0666,0.4416,0.113,-0.0943,0.5643,0.5199,-0.1247,0.5521,-0.1146,0.0506,0.5015,0.4686,0.013,0.0,0.026,0.019,0.006,0.156,0.013,0.0,0.026,0.006,0.013,0.182,0.0,0.0,0.033,0.0,0.0,0.143,-0.0107,-0.2592,0.1979,-0.043,-0.1595,0.2853,-0.0123,-0.2056,0.0828,-0.0184,-0.1273,0.2792,-0.0184,-0.1549,0.0077,0.0046,-0.1595,0.3114,-0.0469,-0.2186,0.201,-0.0375,-0.1843,0.2293,-0.0329,-0.1951,-0.0973,-0.0616,-0.1219,0.2407,-0.0532,-0.1047,-0.1932,0.0275,-0.0838,0.2348,-0.0098,-0.0557,-0.0324,-0.0143,-0.1348,-0.0496,0.3207,0.5197,-0.0947,0.5527,0.4762,-0.0667,0.4752,0.1496,-0.0592,0.5683,0.4861,-0.0942,0.5741,-0.0194,0.0288,0.5191,0.4465,0.0,0.0,-0.1152,0.0,0.0,0.0,0.0,0.0,0.0,
1.68,run,1.29,5.35,12.47,-1.6,-8.15,-6.1,0.0,0.0,0.396,-1.76,-0.53,92.46,-2.64,4.13,96.77,-2.02,1.93,80.42,-2.11,6.68,97.12,-2.9,6.42,76.11,0.7,4.22,97.47,-2.67,-8.23,106.71,-3.39,5.03,107.27,-2.36,-1.86,75.27,-4.56,6.79,106.61,-5.61,5.01,71.46,2.63,1.81,105.49,-0.0763,0.2531,0.6213,-0.097,0.546,0.5321,-0.0674,0.4121,0.0639,-0.1303,0.578,0.5396,-0.1602,0.5456,-0.1971,0.0753,0.4874,0.4901,0.013,0.0,0.026,0.019,0.006,0.156,0.013,0.0,0.026,0.006,0.013,0.182,0.0,0.0,0.033,0.0,0.0,0.143,-0.0199,-0.2853,0.2224,-0.0491,-0.1733,0.3099,-0.0199,-0.2286,0.0644,-0.0291,-0.135,0.3037,-0.0291,-0.1657,-0.0184,0.0092,-0.1749,0.3344,-0.0675,-0.2513,0.2332,-0.0493,-0.181,0.253,-0.0519,-0.2233,-0.1375,-0.0836,-0.1142,0.261,-0.0777,-0.1137,-0.2335,0.0366,-0.1165,0.2511,0.0213,-0.0534,0.1391,0.0235,-0.1636,-0.0645,0.287,0.5699,-0.0978,0.5528,0.5004,-0.0666,0.4416,0.113,-0.0943,0.5643,0.5199,-0.1247,0.5521,-0.1146,0.0506,0.5015,0.4686,0.0,0.0,-0.1224,0.0,0.0,0.0,0.0,0.0,0.0,
1.72,run,1.28,5.37,-0.8,1.86,-7.06,-6.5,0.0,0.0,0.396,-2.29,-1.85,93.87,-2.9,4.04,98.0,-2.2,0.88,79.01,-2.81,5.98,98.44,-3.87,5.62,74.44,1.23,2.99,98.88,-2.88,-9.73,108.21,-3.33,4.62,108.77,-2.45,-3.36,73.77,-5.71,7.63,108.11,-6.51,4.55,69.96,3.38,0.67,106.99,-0.0822,0.227,0.6556,-0.0953,0.5386,0.557,-0.0701,0.3803,0.0311,-0.163,0.5932,0.5439,-0.1859,0.5373,-0.2552,0.0965,0.4667,0.5189,0.013,0.0,0.039,0.006,0.019,0.254,0.0,0.019,0.026,0.019,0.019,0.175,0.013,0.0,0.013,0.033,0.006,0.169,-0.0291,-0.3099,0.247,-0.0552,-0.1841,0.3329,-0.0276,-0.2454,0.0445,-0.0383,-0.1519,0.3283,-0.046,-0.1703,-0.0383,0.0092,-0.1917,0.359,-0.0814,-0.2669,0.2543,-0.0573,-0.1666,0.2625,-0.0648,-0.2189,-0.1702,-0.0926,-0.1426,0.2737,-0.117,-0.0967,-0.2374,0.0256,-0.1441,0.2668,0.063,-0.058,0.2177,-0.0279,-0.1422,-0.0763,0.2531,0.6213,-0.097,0.546,0.5321,-0.0674,0.4121,0.0639,-0.1303,0.578,0.5396,-0.1602,0.5456,-0.1971,0.0753,0.4874,0.4901,0.0,0.0,-0.1296,0.0,0.0,0.0,0.0,0.0,0.0,
1.76,run,1.15,5.37,-3.35,-0.1,-2.43,-6.8,0.0,0.0,0.396,-2.64,-3.25,95.19,-2.9,3.78,99.23,-2.29,-0.53,77.78,-3.78,5.45,99.76,-4.92,5.01,73.04,1.93,1.93,100.28,-3.21,-11.23,109.71,-3.89,4.52,110.27,-2.92,-4.86,72.27,-6.5,6.62,109.61,-7.68,5.3,68.46,3.7,-0.79,108.49,-0.0918,0.1885,0.6929,-0.1112,0.5367,0.5777,-0.0834,0.3491,-0.0003,-0.1856,0.5749,0.5861,-0.2195,0.5509,-0.3266,0.1056,0.4401,0.5468,0.013,0.0,0.039,0.006,0.019,0.254,0.0,0.019,0.026,0.019,0.019,0.175,0.013,0.0,0.013,0.033,0.006,0.169,-0.0383,-0.3329,0.2715,-0.0598,-0.1856,0.3543,-0.0307,-0.2638,0.0199,-0.0506,-0.1641,0.3513,-0.0629,-0.1841,-0.0675,0.0184,-0.2132,0.3835,-0.0916,-0.2734,0.2703,-0.0574,-0.1224,0.2645,-0.0569,-0.2225,-0.2115,-0.111,-0.146,0.2782,-0.1454,-0.1196,-0.2758,0.0525,-0.1817,0.2791,0.0618,-0.0558,-0.014,0.0324,-0.1232,-0.0822,0.227,0.6556,-0.0953,0.5386,0.557,-0.0701,0.3803,0.0311,-0.163,0.5932,0.5439,-0.1859,0.5373,-0.2552,0.0965,0.4667,0.5189,0.0,0.0,-0.1368,0.0,0.0,0.0,0.0,0.0,0.0,
1.8,run,1.36,5.5,4.18,1.9,-2.83,-7.2,0.0,0.0,0.396,-2.81,-4.83,96.68,-2.9,3.34,100.63,-2.29,-2.02,76.29,-4.57,5.27,101.16,-5.89,4.66,71.63,2.46,0.79,101.78,-3.24,-12.73,111.21,-3.92,4.5,111.77,-3.37,-6.36,70.77,-7.77,7.0,111.11,-8.83,5.34,66.96,4.19,-2.21,109.99,-0.0925,0.1581,0.7229,-0.112,0.5364,0.5996,-0.0964,0.3225,-0.0358,-0.2221,0.5818,0.6013,-0.2524,0.5516,-0.3987,0.1196,0.4144,0.581,0.013,0.0,0.039,0.006,0.019,0.254,0.0,0.019,0.026,0.019,0.019,0.175,0.013,0.0,0.013,0.033,0.006,0.169,-0.0445,-0.3574,0.2945,-0.0598,-0.1902,0.3758,-0.0322,-0.2884,-0.0015,-0.0675,-0.1733,0.3743,-0.0813,-0.1948,-0.092,0.0307,-0.2316,0.408,-0.0872,-0.2838,0.2758,-0.0402,-0.103,0.266,-0.0456,-0.2481,-0.2289,-0.1412,-0.1368,0.2813,-0.171,-0.1241,-0.2855,0.083,-0.1965,0.2877,0.0508,-0.0555,-0.0585,-0.0018,-0.0425,-0.0918,0.1885,0.6929,-0.1112,0.5367,0.5777,-0.0834,0.3491,-0.0003,-0.1856,0.5749,0.5861,-0.2195,0.5509,-0.3266,0.1056,0.4401,0.5468,0.0,0.0,-0.144,0.0,0.0,0.0,0.0,0.0,0.0,
1.84,run,1.42,5.87,1.39,9.32,-6.91,-7.6,0.0,0.0,0.403,-2.99,-6.06,98.0,-3.08,3.25,101.69,-2.72,-3.16,74.97,-5.45,5.27,102.22,-6.86,4.66,70.31,2.9,-0.44,103.01,-3.16,-14.23,112.71,-4.05,4.55,113.27,-3.6,-7.86,69.27,-8.89,8.26,112.61,-10.0,5.28,65.46,5.03,-2.71,111.49,-0.0902,0.134,0.7498,-0.1158,0.5374,0.616,-0.1029,0.2975,-0.0758,-0.2541,0.6047,0.6075,-0.2856,0.5506,-0.4588,0.1436,0.4052,0.6011,0.006,0.0,0.033,0.013,0.052,0.403,0.006,0.006,0.019,0.045,0.071,0.344,0.013,0.006,0.006,0.058,0.0,0.175,-0.0476,-0.385,0.3206,-0.0598,-0.1979,0.4004,-0.0322,-0.3145,-0.0276,-0.0813,-0.1764,0.3988,-0.0982,-0.201,-0.1166,0.0399,-0.2516,0.4341,-0.0715,-0.2923,0.2816,-0.0281,-0.0981,0.2695,-0.0319,-0.2621,-0.2487,-0.1457,-0.1062,0.2802,-0.177,-0.1077,-0.2831,0.0893,-0.2052,0.2899,0.0688,-0.0443,0.073,0.0331,-0.0494,-0.0925,0.1581,0.7229,-0.112,0.5364,0.5996,-0.0964,0.3225,-0.0358,-0.2221,0.5818,0.6013,-0.2524,0.5516,-0.3987,0.1196,0.4144,0.581,0.0,0.0,-0.1512,0.0,0.0,0.0,0.0,0.0,0.0,
1.88,run,1.58,5.97,3.44,2.12,-4.44,-7.9,0.0,0.0,0.403,-2.99,-7.56,99.4,-3.43,3.16,102.92,-3.16,-4.48,73.56,-6.33,5.19,103.54,-7.91,5.01,68.99,3.34,-1.41,104.33,-3.37,-15.73,114.21,-4.74,4.63,114.77,-3.61,-9.36,67.77,-9.64,7.65,114.11,-10.96,5.89,63.96,5.76,-2.87,112.99,-0.0962,0.1113,0.7724,-0.1353,0.5387,0.6197,-0.1032,0.2704,-0.1068,-0.2756,0.5936,0.6425,-0.3131,0.5616,-0.5119,0.1646,0.4024,0.6188,0.006,0.0,0.033,0.013,0.052,0.403,0.006,0.006,0.019,0.045,0.071,0.344,0.013,0.006,0.006,0.058,0.0,0.175,-0.0506,-0.4065,0.3436,-0.0629,-0.1994,0.4188,-0.0399,-0.3344,-0.0506,-0.0966,-0.1764,0.4172,-0.115,-0.201,-0.1396,0.0476,-0.273,0.4556,-0.0629,-0.2946,0.2935,-0.0326,-0.0751,0.2658,-0.0545,-0.2671,-0.2705,-0.1663,-0.0743,0.2733,-0.1946,-0.0754,-0.2946,0.0947,-0.2336,0.2929,0.074,-0.0119,0.0243,0.1627,-0.1207,-0.0902,0.134,0.7498,-0.1158,0.5374,0.616,-0.1029,0.2975,-0.0758,-0.2541,0.6047,0.6075,-0.2856,0.5506,-0.4588,0.1436,0.4052,0.6011,0.0,0.0,-0.1584,0.0,0.0,0.0,0.0,0.0,0.0,
1.92,run,1.53,6.37,-1.45,9.37,-4.1,-8.3,0.0,0.0,0.403,-3.08,-8.96,100.81,-3.52,3.16,104.06,-3.43,-5.89,72.25,-7.21,5.19,104.77,-8.88,5.19,67.68,4.04,-2.55,105.73,-3.32,-17.23,115.71,-4.82,4.53,116.27,-3.81,-10.86,66.27,-10.04,9.13,115.61,-11.64,5.68,62.46,6.13,-3.06,114.49,-0.0949,0.0937,0.7836,-0.1377,0.537,0.631,-0.1087,0.2552,-0.1116,-0.2869,0.6205,0.6232,-0.3327,0.5578,-0.5421,0.175,0.399,0.6378,0.006,0.0,0.033,0.013,0.052,0.403,0.006,0.006,0.019,0.045,0.071,0.344,0.013,0.006,0.006,0.058,0.0,0.175,-0.0506,-0.4326,0.3682,-0.069,-0.201,0.4403,-0.0476,-0.3574,-0.0752,-0.112,-0.1779,0.4403,-0.1335,-0.1948,-0.1626,0.0552,-0.2899,0.4786,-0.044,-0.3038,0.2973,-0.0457,-0.0583,0.2664,-0.0668,-0.2731,-0.2812,-0.1738,-0.0578,0.2774,-0.2051,-0.0298,-0.2923,0.095,-0.2267,0.2912,0.0882,-0.0031,0.06,0.037,-0.0775,-0.0962,0.1113,0.7724,-0.1353,0.5387,0.6197,-0.1032,0.2704,-0.1068,-0.2756,0.5936,0.6425,-0.3131,0.5616,-0.5119,0.1646,0.4024,0.6188,0.0,0.0,-0.1656,0.0,0.0,0.0,0.0,0.0,0.0,
1.96,run,1.41,6.51,-4.9,3.81,-6.43,-8.6,0.0,0.0,0.585,-3.25,-10.37,102.22,-4.04,3.16,105.47,-3.78,-7.29,70.84,-8.09,5.19,106.0,-10.02,5.54,66.01,4.75,-3.34,107.05,-3.44,-18.73,117.21,-5.55,5.0,117.77,-3.77,-11.96,64.77,-10.35,8.35,117.11,-12.26,6.54,60.96,6.61,-2.52,115.99,-0.0984,0.068,0.7997,-0.1585,0.5454,0.6268,-0.1078,0.2371,-0.1263,-0.2958,0.6063,0.6602,-0.3504,0.5735,-0.5806,0.1888,0.4088,0.6438,0.006,0.0,0.039,0.013,0.097,0.585,0.006,0.013,0.019,0.078,0.331,0.546,0.013,0.006,0.013,0.065,0.026,0.208,-0.0522,-0.4571,0.3927,-0.0706,-0.201,0.4602,-0.0522,-0.382,-0.0982,-0.1273,-0.1779,0.4617,-0.1503,-0.1917,-0.1856,0.0675,-0.3099,0.5031,-0.0365,-0.304,0.2995,-0.0377,-0.0408,0.2607,-0.0639,-0.2825,-0.2825,-0.1788,-0.0404,0.2741,-0.2064,-0.0095,-0.2903,0.1122,-0.2329,0.2952,0.0837,0.0313,-0.0253,0.1635,-0.0715,-0.0949,0.0937,0.7836,-0.1377,0.537,0.631,-0.1087,0.2552,-0.1116,-0.2869,0.6205,0.6232,-0.3327,0.5578,-0.5421,0.175,0.399,0.6378,0.0,0.0,-0.1728,0.0,0.0,0.0,0.0,0.0,0.0,
2.0,run,1.66,6.24,5.63,-8.23,-2.36,-9.0,0.0,0.0,0.585,-3.25,-11.69,103.62,-4.39,3.08,106.88,-4.04,-8.44,69.43,-8.88,5.1,107.31,-10.9,5.71,64.95,5.36,-3.87,108.46,-3.56,-20.23,118.71,-5.97,5.15,118.78,-3.8,-12.45,63.27,-10.62,8.84,118.61,-12.97,6.98,59.46,6.85,-2.23,117.49,-0.1016,0.0553,0.8105,-0.1706,0.5482,0.6327,-0.1086,0.2281,-0.1262,-0.3035,0.6153,0.6546,-0.3706,0.5814,-0.6134,0.1956,0.4141,0.659,0.006,0.0,0.039,0.013,0.097,0.585,0.006,0.013,0.019,0.078,0.331,0.546,0.013,0.006,0.013,0.065,0.026,0.208,-0.0552,-0.4817,0.4172,-0.0798,-0.201,0.4847,-0.0583,-0.4065,-0.1227,-0.1427,-0.1779,0.4832,-0.1703,-0.1856,-0.2148,0.0798,-0.3237,0.5262,-0.0372,-0.3056,0.3024,-0.0612,-0.0286,0.2753,-0.0679,-0.2905,-0.2905,-0.1831,-0.0283,0.273,-0.2198,0.0166,-0.3133,0.1249,-0.2152,0.2936,0.073,0.0438,-0.0855,0.0666,-0.1123,-0.0984,0.068,0.7997,-0.1585,0.5454,0.6268,-0.1078,0.2371,-0.1263,-0.2958,0.6063,0.6602,-0.3504,0.5735,-0.5806,0.1888,0.4088,0.6438,0.0,0.0,-0.18,0.0,0.0,0.0,0.0,0.0,0.0,
2.04,run,1.6,6.47,-1.53,3.88,-6.31,-9.4,0.0,0.0,0.585,-3.25,-13.01,105.21,-4.83,3.08,108.11,-4.04,-9.67,68.03,-9.58,5.1,108.63,-11.78,6.42,63.19,5.98,-4.04,109.95,-3.25,-21.73,120.21,-5.66,5.3,119.96,-4.09,-12.33,61.77,-10.36,10.34,117.11,-13.49,6.22,57.96,6.91,-2.05,118.99,-0.0929,0.0419,0.8138,-0.1617,0.551,0.6466,-0.1169,0.2303,-0.1153,-0.2959,0.6725,0.599,-0.3855,0.5676,-0.6238,0.1975,0.4173,0.6584,0.006,0.0,0.039,0.013,0.097,0.585,0.006,0.013,0.019,0.078,0.331,0.546,0.013,0.006,0.013,0.065,0.026,0.208,-0.0552,-0.5047,0.4418,-0.0859,-0.2025,0.5093,-0.0629,-0.4264,-0.1473,-0.1565,-0.1795,0.5062,-0.1856,-0.1825,-0.2332,0.0905,-0.3329,0.5507,-0.026,-0.3003,0.3038,-0.0659,-0.0258,0.2848,-0.0648,-0.2782,-0.2955,-0.18,-0.0256,0.2775,-0.2115,0.0231,-0.2884,0.1277,-0.1852,0.2976,0.0947,0.0199,0.0982,-0.1437,-0.0411,-0.1016,0.0553,0.8105,-0.1706,0.5482,0.6327,-0.1086,0.2281,-0.1262,-0.3035,0.6153,0.6546,-0.3706,0.5814,-0.6134,0.1956,0.4141,0.659,0.0,0.0,-0.1872,0.0,0.0,0.0,0.0,0.0,0.0,
2.08,run,1.28,6.64,-8.15,5.04,-4.93,-9.7,0.0,0.0,0.643,-3.16,-14.33,106.61,-5.36,3.08,109.51,-4.04,-10.72,66.71,-9.93,5.1,109.95,-12.57,6.77,61.88,6.24,-4.13,111.18,-3.55,-23.23,121.71,-6.51,6.21,119.12,-3.73,-12.29,60.27,-10.36,10.77,118.61,-14.07,7.72,56.46,7.45,-0.91,120.09,-0.1013,0.0252,0.8245,-0.1859,0.5675,0.6367,-0.1066,0.2311,-0.1162,-0.2961,0.6503,0.6451,-0.4021,0.6024,-0.642,0.2127,0.438,0.6481,0.013,0.006,0.026,0.019,0.149,0.643,0.006,0.013,0.019,0.006,0.5,0.643,0.013,0.013,0.013,0.019,0.143,0.234,-0.0552,-0.5277,0.4694,-0.0936,-0.2025,0.5308,-0.0629,-0.4479,-0.1718,-0.1687,-0.1795,0.5292,-0.201,-0.1703,-0.2638,0.1012,-0.3359,0.5768,-0.0182,-0.292,0.3108,-0.0734,-0.018,0.2757,-0.0454,-0.2711,-0.2941,-0.1696,-0.0179,0.2761,-0.2026,0.0598,-0.311,0.1276,-0.1405,0.3011,0.09,0.0404,-0.0268,0.0678,-0.1101,-0.0929,0.0419,0.8138,-0.1617,0.551,0.6466,-0.1169,0.2303,-0.1153,-0.2959,0.6725,0.599,-0.3855,0.5676,-0.6238,0.1975,0.4173,0.6584,0.0,0.0,-0.1944,0.0,0.0,0.0,0.0,0.0,0.0,
2.12,run,0.8,6.72,-12.43,2.34,-2.82,-10.1,0.0,0.0,0.643,-3.34,-15.73,108.19,-5.62,3.08,111.01,-4.04,-11.51,65.21,-10.02,5.1,111.27,-13.36,7.03,60.47,6.77,-4.13,112.24,-3.71,-24.25,123.21,-6.8,6.74,118.79,-3.57,-11.98,58.77,-10.46,10.26,120.11,-14.26,9.22,54.96,7.65,-0.5,120.52,-0.106,0.0136,0.824,-0.1942,0.5771,0.6329,-0.102,0.2368,-0.1083,-0.2987,0.6412,0.6558,-0.4074,0.6254,-0.6532,0.2186,0.4455,0.6532,0.013,0.006,0.026,0.019,0.149,0.643,0.006,0.013,0.019,0.006,0.5,0.643,0.013,0.013,0.013,0.019,0.143,0.234,-0.0537,-0.5507,0.4939,-0.1028,-0.2025,0.5553,-0.0629,-0.4663,-0.1948,-0.1749,-0.1795,0.5522,-0.2148,-0.1641,-0.2869,0.1058,-0.3375,0.5983,-0.0067,-0.2958,0.3151,-0.0879,-0.0126,0.2905,-0.0318,-0.2629,-0.2973,-0.1431,-0.0125,0.2846,-0.1966,0.0662,-0.3091,0.1076,-0.1045,0.296,0.0617,0.0552,-0.1423,0.088,-0.086,-0.1013,0.0252,0.8245,-0.1859,0.5674,0.6367,-0.1066,0.2311,-0.1162,-0.2961,0.6503,0.6451,-0.4021,0.6024,-0.642,0.2127,0.438,0.6481,0.0,0.0,-0.2016,0.0,0.0,0.0,0.0,0.0,0.0,
2.16,run,0.69,6.83,-2.24,1.99,-1.0,-10.4,0.0,0.0,0.643,-3.69,-17.05,109.6,-5.98,3.08,112.59,-3.96,-11.95,63.81,-10.02,5.45,112.68,-13.8,7.73,58.97,7.21,-4.13,113.64,-3.65,-24.72,124.71,-6.99,7.56,118.21,-3.4,-11.75,57.27,-10.57,10.44,120.91,-14.5,10.09,53.46,7.79,0.0,121.33,-0.1043,0.005,0.8203,-0.1996,0.592,0.6259,-0.0972,0.2409,-0.0945,-0.302,0.6444,0.6578,-0.4142,0.638,-0.6616,0.2225,0.4546,0.6627,0.013,0.006,0.026,0.019,0.149,0.643,0.006,0.013,0.019,0.006,0.5,0.643,0.013,0.013,0.013,0.019,0.143,0.234,-0.0568,-0.5752,0.5216,-0.1074,-0.2025,0.5814,-0.0629,-0.4801,-0.2209,-0.1764,-0.1795,0.5752,-0.2286,-0.1595,-0.3114,0.115,-0.3375,0.6167,-0.0161,-0.2988,0.3238,-0.0788,-0.0088,0.3009,-0.0222,-0.2357,-0.3056,-0.1059,-0.0088,0.2853,-0.1893,0.0636,-0.3081,0.1097,-0.0731,0.2761,0.0202,0.0621,-0.2169,0.0408,-0.0493,-0.106,0.0136,0.824,-0.1942,0.5771,0.6329,-0.102,0.2368,-0.1083,-0.2987,0.6411,0.6558,-0.4074,0.6254,-0.6532,0.2186,0.4455,0.6532,0.0,0.0,-0.2088,0.0,0.0,0.0,0.0,0.0,0.0,
2.2,run,0.41,6.9,-6.01,0.97,-2.44,-10.8,0.0,0.0,0.669,-3.43,-17.93,111.09,-6.42,3.08,114.08,-3.78,-12.04,62.4,-10.02,5.54,114.08,-14.33,8.53,57.66,7.56,-4.13,114.96,-3.51,-25.52,126.21,-7.13,8.34,118.26,-3.35,-11.36,57.3,-10.45,11.94,119.41,-14.87,10.26,51.96,8.17,0.84,120.6,-0.1002,-0.0094,0.8297,-0.2039,0.6061,0.6266,-0.0957,0.248,-0.0906,-0.2985,0.6851,0.638,-0.4249,0.641,-0.6688,0.2334,0.4698,0.6541,0.0,0.026,0.019,0.019,0.448,0.442,0.006,0.0,0.019,0.019,0.669,0.455,0.006,0.006,0.013,0.013,0.384,0.221,-0.0629,-0.5983,0.5461,-0.1135,-0.2025,0.609,-0.0614,-0.4878,-0.2454,-0.1764,-0.1733,0.5998,-0.2362,-0.1473,-0.3375,0.1227,-0.3375,0.6412,-0.0342,-0.2952,0.3184,-0.0781,-0.0062,0.3138,-0.0098,-0.1936,-0.3056,-0.0741,0.0168,0.2914,-0.1612,0.0904,-0.3132,0.1055,-0.0512,0.285,0.0103,0.0712,-0.039,0.0347,-0.0174,-0.1043,0.005,0.8203,-0.1996,0.592,0.6259,-0.0972,0.2409,-0.0945,-0.302,0.6444,0.6578,-0.4142,0.638,-0.6616,0.2225,0.4546,0.6627,0.0,0.0,-0.216,0.0,0.0,0.0,0.0,0.0,0.0,
2.24,run,0.1,6.78,-6.37,-3.34,-2.95,-11.2,0.0,0.0,0.669,-3.6,-19.69,112.68,-6.59,3.16,115.31,-3.6,-11.87,61.08,-10.11,5.62,115.58,-14.59,9.4,56.16,8.0,-3.96,116.19,-3.58,-25.88,127.71,-7.61,8.81,117.64,-3.11,-11.17,58.77,-10.19,12.42,119.7,-15.08,10.89,50.46,8.32,1.52,120.72,-0.1024,-0.016,0.8252,-0.2175,0.6146,0.6193,-0.0889,0.2514,-0.0733,-0.2911,0.6803,0.6436,-0.4309,0.6526,-0.6687,0.2377,0.4822,0.6556,0.0,0.026,0.019,0.019,0.448,0.442,0.006,0.0,0.019,0.019,0.669,0.455,0.006,0.006,0.013,0.013,0.384,0.221,-0.0583,-0.6136,0.5722,-0.1212,-0.2025,0.6351,-0.0583,-0.4893,-0.27,-0.1764,-0.1718,0.6243,-0.2454,-0.1335,-0.3605,0.1289,-0.3375,0.6642,-0.0067,-0.2641,0.3205,-0.0834,-0.0043,0.3173,0.0046,-0.1413,-0.3058,-0.0519,0.0175,0.2959,-0.1473,0.1149,-0.3054,0.0968,-0.0358,0.2856,-0.0143,0.0776,-0.1048,0.017,-0.0426,-0.1002,-0.0094,0.8297,-0.2039,0.6061,0.6266,-0.0957,0.248,-0.0906,-0.2985,0.6851,0.638,-0.4249,0.641,-0.6688,0.2334,0.4698,0.6541,0.0,0.0,-0.2232,0.0,0.0,0.0,0.0,0.0,0.0,
2.28,run,0.19,6.88,4.13,2.85,-0.14,-11.5,0.0,0.0,0.669,-3.87,-21.09,114.08,-6.86,3.25,116.1,-3.43,-11.34,59.85,-10.11,6.33,116.63,-14.85,10.28,54.76,8.35,-3.78,117.33,-3.53,-26.23,129.21,-7.69,9.24,117.39,-2.96,-10.78,60.27,-10.05,13.36,118.2,-15.36,11.26,48.96,8.52,2.02,121.24,-0.101,-0.0224,0.8206,-0.2198,0.6226,0.6164,-0.0846,0.2585,-0.0541,-0.2871,0.6975,0.6249,-0.4389,0.6593,-0.6692,0.2433,0.4912,0.6617,0.0,0.026,0.019,0.019,0.448,0.442,0.006,0.0,0.019,0.019,0.669,0.455,0.006,0.006,0.013,0.013,0.384,0.221,-0.0614,-0.6443,0.5998,-0.1243,-0.201,0.6565,-0.0552,-0.4863,-0.293,-0.1779,-0.1703,0.6504,-0.25,-0.1181,-0.3866,0.1365,-0.3344,0.6857,-0.0162,-0.3,0.328,-0.0699,0.0027,0.3027,0.0147,-0.0874,-0.3005,-0.0421,0.018,0.305,-0.1204,0.1381,-0.3117,0.0966,-0.0136,0.2806,-0.0412,0.0673,-0.1111,-0.0583,-0.0515,-0.1024,-0.016,0.8252,-0.2175,0.6146,0.6193,-0.0889,0.2514,-0.0733,-0.2911,0.6803,0.6436,-0.4309,0.6526,-0.6687,0.2377,0.4822,0.6556,0.0,0.0,-0.2304,0.0,0.0,0.0,0.0,0.0,0.0,
2.32,run,0.02,7.11,-2.17,4.77,-7.68,-11.9,0.0,0.0,0.669,-3.52,-22.41,115.58,-7.21,3.43,116.72,-3.34,-11.07,58.89,-10.02,7.38,117.42,-15.21,10.63,53.35,8.44,-3.34,118.12,-3.59,-27.31,130.71,-7.93,9.72,117.83,-2.8,-10.26,60.05,-9.68,14.86,118.21,-15.53,11.95,47.46,9.11,2.94,119.75,-0.1027,-0.042,0.8336,-0.2265,0.6313,0.6215,-0.0799,0.2679,-0.0582,-0.2766,0.7257,0.626,-0.4438,0.6719,-0.6746,0.2604,0.5081,0.6441,0.0,0.019,0.0,0.013,0.513,0.182,0.013,0.0,0.013,0.0,0.65,0.377,0.006,0.0,0.013,0.006,0.579,0.189,-0.066,-0.6688,0.6243,-0.1289,-0.1994,0.6703,-0.0522,-0.4771,-0.3145,-0.1779,-0.158,0.6688,-0.2546,-0.1028,-0.4111,0.1427,-0.3313,0.7056,-0.0286,-0.302,0.3216,-0.0662,0.0077,0.2637,0.0218,-0.0267,-0.2908,-0.0295,0.0586,0.2825,-0.1015,0.1541,-0.3102,0.0906,0.002,0.2711,-0.0338,0.0759,0.0721,0.0498,-0.0025,-0.101,-0.0224,0.8206,-0.2198,0.6226,0.6164,-0.0846,0.2585,-0.0541,-0.2871,0.6975,0.6249,-0.4389,0.6593,-0.6692,0.2433,0.4912,0.6617,0.0,0.0,-0.2376,0.0,0.0,0.0,0.0,0.0,0.0,
2.36,run,-0.2,7.32,-3.43,5.12,-5.1,-12.2,0.0,0.0,0.669,-3.78,-24.08,117.6,-7.56,5.01,116.98,-3.08,-10.37,58.01,-9.84,8.53,117.77,-15.47,11.69,51.5,8.79,-2.72,118.48,-3.8,-26.98,132.21,-8.6,10.02,117.27,-2.42,-10.19,60.6,-9.79,13.36,119.71,-15.76,12.91,45.96,9.4,3.74,119.89,-0.1085,-0.036,0.8328,-0.2456,0.6367,0.615,-0.0692,0.2694,-0.0518,-0.2796,0.6948,0.6561,-0.4502,0.6893,-0.6828,0.2687,0.5225,0.6457,0.0,0.019,0.0,0.013,0.513,0.182,0.013,0.0,0.013,0.0,0.65,0.377,0.006,0.0,0.013,0.006,0.579,0.189,-0.0598,-0.6918,0.6504,-0.135,-0.1963,0.6811,-0.0506,-0.4725,-0.3313,-0.1764,-0.1396,0.6826,-0.2608,-0.0966,-0.4357,0.1442,-0.3237,0.7194,0.0029,-0.2976,0.3228,-0.0693,0.0168,0.2248,0.021,-0.0014,-0.2668,-0.0149,0.1099,0.2494,-0.094,0.1309,-0.309,0.0692,0.0301,0.2415,-0.0482,0.0957,-0.038,0.0832,-0.134,-0.1027,-0.042,0.8336,-0.2265,0.6313,0.6215,-0.0799,0.2679,-0.0582,-0.2766,0.7257,0.626,-0.4438,0.6719,-0.6746,0.2604,0.5081,0.6441,0.0,0.0,-0.2448,0.0,0.0,0.0,0.0,0.0,0.0,
2.4,run,-0.26,7.18,-1.61,-3.95,-0.43,-12.6,0.0,0.0,0.669,-3.6,-24.96,118.48,-7.65,5.54,116.98,-2.99,-10.28,57.83,-9.84,9.05,117.77,-15.56,11.87,50.45,8.96,-2.37,118.48,-3.83,-26.68,133.71,-8.59,10.68,116.16,-2.12,-9.66,61.52,-9.86,13.66,121.0,-15.78,13.43,44.46,9.84,4.31,119.52,-0.1095,-0.0305,0.8304,-0.2453,0.6487,0.6018,-0.0606,0.2789,-0.041,-0.2817,0.7028,0.6588,-0.4508,0.6987,-0.6757,0.2811,0.5329,0.6414,0.0,0.019,0.0,0.013,0.513,0.182,0.013,0.0,0.013,0.0,0.65,0.377,0.006,0.0,0.013,0.006,0.579,0.189,-0.0644,-0.721,0.6857,-0.1411,-0.1687,0.6857,-0.046,-0.4602,-0.3467,-0.1733,-0.1197,0.6888,-0.2654,-0.0782,-0.4679,0.1503,-0.3129,0.7256,-0.0113,-0.2929,0.3284,-0.0663,0.092,0.1707,0.0281,0.0346,-0.2313,-0.0015,0.1349,0.1924,-0.0792,0.1451,-0.3098,0.0662,0.0523,0.1869,-0.0671,0.1147,-0.0598,0.0893,-0.0891,-0.1085,-0.036,0.8328,-0.2456,0.6367,0.615,-0.0692,0.2694,-0.0518,-0.2796,0.6948,0.6561,-0.4502,0.6893,-0.6828,0.2687,0.5225,0.6457,0.0,0.0,-0.252,0.0,0.0,0.0,0.0,0.0,0.0,
2.44,run,-0.1,7.19,4.65,0.58,2.45,-13.0,0.0,0.0,0.676,-3.87,-25.84,119.53,-8.0,5.8,116.89,-2.72,-10.2,57.83,-9.76,9.49,117.77,-15.56,12.57,49.04,9.4,-1.76,118.48,-3.79,-26.99,135.21,-8.46,10.78,116.5,-2.3,-9.2,62.73,-9.39,14.77,119.5,-15.87,13.33,42.96,9.64,4.52,119.75,-0.1082,-0.0362,0.8293,-0.2417,0.6506,0.6059,-0.0657,0.2872,-0.0267,-0.2684,0.723,0.63,-0.4535,0.6968,-0.6695,0.2755,0.5367,0.6441,0.013,0.019,0.0,0.006,0.461,0.006,0.0,0.006,0.006,0.0,0.598,0.195,0.006,0.0,0.013,0.006,0.676,0.045,-0.0614,-0.7363,0.701,-0.1427,-0.1595,0.6857,-0.0445,-0.4587,-0.3497,-0.1733,-0.1104,0.6888,-0.2669,-0.0752,-0.4863,0.1534,-0.3068,0.7256,0.0079,-0.2842,0.309,-0.0543,0.1119,0.1195,0.0276,0.0322,-0.1777,-0.0011,0.1419,0.1347,-0.0633,0.1174,-0.3119,0.0622,0.0683,0.1308,-0.0725,0.1017,-0.0281,-0.0689,-0.0075,-0.1095,-0.0305,0.8304,-0.2453,0.6487,0.6018,-0.0606,0.2789,-0.041,-0.2817,0.7028,0.6588,-0.4508,0.6987,-0.6757,0.2811,0.5329,0.6414,0.0,0.0,-0.2592,0.0,0.0,0.0,0.0,0.0,0.0,
2.48,run,-0.24,7.15,-3.08,-0.32,1.9,-13.3,0.0,0.0,0.676,-3.87,-26.54,121.2,-8.17,6.15,116.1,-2.46,-9.58,57.92,-9.76,9.58,117.77,-15.64,13.18,47.64,9.58,-1.32,118.48,-3.87,-27.6,136.47,-8.61,11.25,116.76,-2.18,-8.75,62.28,-9.18,15.84,118.52,-16.05,14.02,41.46,9.97,5.26,118.47,-0.1107,-0.0472,0.8408,-0.2459,0.659,0.6089,-0.0624,0.2955,-0.032,-0.2623,0.7426,0.6296,-0.4587,0.7095,-0.6727,0.2849,0.5501,0.6291,0.013,0.019,0.0,0.006,0.461,0.006,0.0,0.006,0.006,0.0,0.598,0.195,0.006,0.0,0.013,0.006,0.676,0.045,-0.066,-0.7517,0.7194,-0.1488,-0.1549,0.6842,-0.0399,-0.4571,-0.3497,-0.1718,-0.1028,0.6888,-0.2669,-0.0629,-0.5108,0.1611,-0.2961,0.7256,-0.0115,-0.2557,0.2844,-0.0607,0.0953,0.078,0.0363,0.0282,-0.1244,0.0049,0.1277,0.0943,-0.0443,0.1275,-0.3091,0.0719,0.0875,0.0916,-0.0586,0.1032,0.0811,0.0101,0.0428,-0.1082,-0.0362,0.8293,-0.2417,0.6506,0.6059,-0.0657,0.2872,-0.0267,-0.2684,0.723,0.63,-0.4535,0.6968,-0.6695,0.2755,0.5367,0.6441,0.0,0.0,-0.2664,0.0,0.0,0.0,0.0,0.0,0.0,
2.52,run,-0.28,6.96,-0.45,-5.16,1.76,-13.7,0.0,0.0,0.676,-3.6,-26.89,122.61,-8.17,6.77,115.93,-2.37,-9.14,58.45,-9.67,9.58,117.77,-15.91,13.54,46.23,9.67,-1.23,118.48,-3.87,-27.44,135.45,-8.72,11.85,116.06,-1.96,-8.81,63.78,-9.4,15.01,119.01,-15.93,14.45,39.96,10.05,5.56,118.89,-0.1105,-0.0444,0.8288,-0.249,0.67,0.6007,-0.0561,0.2944,-0.0137,-0.2685,0.7275,0.6354,-0.455,0.7172,-0.6607,0.2873,0.5556,0.634,0.013,0.019,0.0,0.006,0.461,0.006,0.0,0.006,0.006,0.0,0.598,0.195,0.006,0.0,0.013,0.006,0.676,0.045,-0.066,-0.7639,0.7486,-0.1519,-0.1488,0.6703,-0.0353,-0.4464,-0.3482,-0.1718,-0.1012,0.6888,-0.2684,-0.0522,-0.5354,0.1641,-0.2884,0.7256,-0.008,-0.2251,0.3086,-0.054,0.0898,0.0027,0.0427,0.0601,-0.0813,0.0035,0.0951,0.066,-0.0368,0.1296,-0.3086,0.0619,0.0901,0.0641,-0.071,0.099,-0.0537,-0.0057,0.0331,-0.1107,-0.0472,0.8408,-0.2459,0.659,0.6089,-0.0624,0.2955,-0.032,-0.2623,0.7426,0.6296,-0.4587,0.7095,-0.6727,0.2849,0.5501,0.6291,0.0,0.0,-0.2736,0.0,0.0,0.0,0.0,0.0,0.0,
2.56,run,-0.3,7.03,-0.12,1.64,1.99,-14.0,0.0,0.0,1.092,-4.04,-27.07,124.1,-8.17,6.94,115.84,-2.37,-8.79,59.41,-9.4,9.67,117.77,-15.82,14.24,44.74,9.93,-1.23,118.48,-3.86,-27.8,135.85,-8.76,11.74,116.11,-2.02,-8.71,64.25,-9.04,15.92,117.51,-15.99,14.12,38.46,10.07,5.67,118.89,-0.1104,-0.051,0.8335,-0.2504,0.6679,0.6013,-0.0577,0.2961,-0.0088,-0.2582,0.7441,0.6131,-0.457,0.7113,-0.6589,0.2878,0.5577,0.6341,0.006,0.013,0.013,0.019,0.507,0.019,0.006,0.0,0.019,0.006,0.709,0.058,0.006,0.0,0.013,0.0,1.092,0.019,-0.0614,-0.7701,0.7731,-0.1519,-0.1381,0.6673,-0.0337,-0.4387,-0.339,-0.1703,-0.1012,0.6888,-0.273,-0.046,-0.5599,0.1657,-0.2869,0.7256,0.0116,-0.1806,0.3081,-0.0378,0.1031,-0.0096,0.0357,0.0708,-0.0224,0.0082,0.0666,0.0462,-0.043,0.1138,-0.3081,0.0491,0.0688,0.0449,-0.0743,0.0824,-0.0078,-0.0901,0.0307,-0.1105,-0.0444,0.8288,-0.249,0.67,0.6007,-0.0561,0.2944,-0.0137,-0.2685,0.7275,0.6354,-0.455,0.7172,-0.6607,0.2873,0.5556,0.634,0.0,0.0,-0.2808,0.0,0.0,0.0,0.0,0.0,0.0,
2.6,run,-0.3,7.11,-0.73,1.97,2.62,-14.4,0.0,0.0,1.092,-3.96,-27.16,125.51,-8.17,7.03,115.49,-2.29,-8.79,60.82,-9.49,9.67,117.77,-15.82,14.33,43.33,9.93,-1.23,118.21,-3.94,-28.5,136.6,-9.1,12.11,115.75,-1.81,-9.01,63.7,-9.16,15.73,118.62,-16.08,14.51,36.96,10.41,6.18,118.12,-0.1126,-0.0637,0.8424,-0.26,0.6747,0.5971,-0.0517,0.2907,-0.0153,-0.2617,0.7405,0.6308,-0.4594,0.7184,-0.6627,0.2975,0.567,0.625,0.006,0.013,0.013,0.019,0.507,0.019,0.006,0.0,0.019,0.006,0.709,0.058,0.006,0.0,0.013,0.0,1.092,0.019,-0.069,-0.7731,0.7992,-0.1519,-0.135,0.6657,-0.0337,-0.4326,-0.3221,-0.1657,-0.0997,0.6888,-0.2715,-0.0337,-0.586,0.1703,-0.2869,0.7256,-0.0206,-0.1379,0.3133,-0.0265,0.0837,-0.0125,0.025,0.0726,0.0475,0.023,0.0524,0.0323,-0.0244,0.1256,-0.3133,0.0516,0.0482,0.0314,-0.076,0.0887,-0.0021,0.0286,0.0348,-0.1104,-0.051,0.8335,-0.2504,0.6679,0.6013,-0.0577,0.2961,-0.0088,-0.2582,0.7441,0.6131,-0.457,0.7113,-0.6589,0.2878,0.5577,0.6341,0.0,0.0,-0.288,0.0,0.0,0.0,0.0,0.0,0.0,
2.64,run,-0.21,7.11,2.58,0.25,-2.31,-14.8,0.0,0.0,1.092,-3.78,-27.33,126.91,-8.35,7.03,115.49,-2.29,-8.79,61.96,-9.32,9.84,117.51,-16.0,14.33,41.92,10.02,-1.14,118.12,-3.95,-28.87,136.96,-9.25,12.35,115.74,-1.83,-9.3,63.07,-9.42,15.39,118.92,-16.17,14.7,35.46,10.47,6.34,118.03,-0.113,-0.0703,0.8466,-0.2644,0.6791,0.597,-0.0524,0.2855,-0.0227,-0.2692,0.7344,0.6344,-0.4619,0.7219,-0.67,0.2992,0.5698,0.6238,0.006,0.013,0.013,0.019,0.507,0.019,0.006,0.0,0.019,0.006,0.709,0.058,0.006,0.0,0.013,0.0,1.092,0.019,-0.0675,-0.7747,0.8237,-0.1519,-0.1335,0.6596,-0.0322,-0.4326,-0.2976,-0.1672,-0.0997,0.6888,-0.2715,-0.0322,-0.6105,0.1703,-0.2869,0.721,-0.0086,-0.1023,0.3114,-0.0185,0.0643,-0.0318,0.0232,0.0508,0.1253,0.0103,0.0367,0.0226,-0.0171,0.0937,-0.3114,0.0361,0.0337,0.0047,-0.0765,0.0958,-0.0128,0.0343,0.0457,-0.1126,-0.0637,0.8424,-0.26,0.6747,0.5971,-0.0517,0.2907,-0.0153,-0.2617,0.7405,0.6308,-0.4594,0.7184,-0.6627,0.2975,0.567,0.625,0.0,0.0,-0.2952,0.0,0.0,0.0,0.0,0.0,0.0,
2.68,run,-0.22,7.16,-0.03,1.57,-4.23,-15.1,0.0,0.0,1.092,-4.04,-27.77,128.14,-8.7,7.65,115.22,-2.11,-8.96,62.84,-9.4,10.55,117.33,-16.08,14.59,40.52,10.2,-0.26,117.77,-4.04,-28.79,137.78,-9.44,12.32,116.13,-1.93,-9.35,62.01,-9.56,15.57,118.61,-16.53,14.7,33.96,10.5,6.51,117.98,-0.1153,-0.0689,0.8562,-0.2698,0.6785,0.6016,-0.0552,0.2845,-0.0351,-0.2732,0.7376,0.6307,-0.4724,0.7219,-0.6871,0.3,0.573,0.6233,0.0,0.013,0.019,0.006,0.39,0.033,0.0,0.006,0.013,0.006,0.52,0.104,0.013,0.0,0.019,0.0,0.826,0.013,-0.0644,-0.7777,0.8483,-0.1549,-0.1335,0.6596,-0.0322,-0.4326,-0.2777,-0.1641,-0.0966,0.6842,-0.2746,-0.0322,-0.6351,0.1718,-0.2853,0.7194,0.0054,-0.0831,0.3099,-0.0245,0.045,-0.0222,0.0163,0.0356,0.1624,0.0187,0.0371,-0.0014,-0.0234,0.0656,-0.3099,0.031,0.0293,-0.0024,-0.0684,0.0959,0.045,0.0043,-0.0403,-0.113,-0.0703,0.8466,-0.2644,0.6791,0.597,-0.0524,0.2855,-0.0227,-0.2692,0.7344,0.6344,-0.4619,0.7219,-0.67,0.2992,0.5698,0.6238,0.0,0.0,-0.3024,0.0,0.0,0.0,0.0,0.0,0.0,
2.72,run,-0.5,6.9,-7.24,-6.55,0.81,-15.5,0.0,0.0,1.092,-3.96,-28.21,129.29,-8.88,8.0,115.22,-2.11,-9.14,63.37,-9.4,10.55,117.33,-16.26,14.68,39.11,10.28,0.26,117.33,-4.07,-28.11,137.79,-9.31,12.78,116.05,-1.89,-8.84,61.71,-10.08,15.16,119.83,-16.79,15.36,32.46,10.55,6.64,118.01,-0.1162,-0.0565,0.8563,-0.2661,0.687,0.6006,-0.054,0.2939,-0.0388,-0.2879,0.7302,0.6451,-0.4797,0.7338,-0.6956,0.3014,0.5752,0.6237,0.0,0.013,0.019,0.006,0.39,0.033,0.0,0.006,0.013,0.006,0.52,0.104,0.013,0.0,0.019,0.0,0.826,0.013,-0.069,-0.7854,0.8698,-0.1611,-0.1227,0.655,-0.0291,-0.4357,-0.2623,-0.1657,-0.0844,0.6811,-0.2761,-0.0276,-0.6596,0.1749,-0.27,0.7133,-0.0135,-0.087,0.2977,-0.0402,0.0719,-0.0329,0.0229,0.0133,0.1714,0.0073,0.0722,-0.0125,-0.0222,0.0632,-0.3092,0.0333,0.0783,-0.0248,-0.0696,0.1006,-0.0005,0.0274,-0.0739,-0.1153,-0.0689,0.8562,-0.2698,0.6785,0.6016,-0.0552,0.2845,-0.0351,-0.2732,0.7376,0.6307,-0.4724,0.7219,-0.6871,0.3,0.573,0.6233,0.0,0.0,-0.3096,0.0,0.0,0.0,0.0,0.0,0.0,
2.76,run,-0.47,6.86,1.29,-1.35,6.1,-15.8,0.0,0.0,1.092,-4.13,-28.3,130.08,-8.88,8.09,115.22,-2.11,-9.05,63.54,-9.4,10.55,117.33,-16.52,14.68,37.71,10.28,0.88,117.25,-3.88,-27.81,136.57,-8.8,13.21,115.59,-1.86,-8.58,63.21,-10.34,15.48,118.33,-16.55,15.46,30.96,10.31,6.11,119.51,-0.1108,-0.0511,0.842,-0.2514,0.6948,0.5951,-0.0531,0.2986,-0.0177,-0.2955,0.7359,0.6248,-0.4728,0.7356,-0.6745,0.2947,0.5656,0.6426,0.0,0.013,0.019,0.006,0.39,0.033,0.0,0.006,0.013,0.006,0.52,0.104,0.013,0.0,0.019,0.0,0.826,0.013,-0.0675,-0.7931,0.8897,-0.1641,-0.1166,0.655,-0.0291,-0.4387,-0.2531,-0.1657,-0.0844,0.6811,-0.2792,-0.0261,-0.6842,0.1764,-0.2608,0.7056,-0.0037,-0.0896,0.283,-0.0396,0.0733,-0.023,0.016,-0.0021,0.1544,0.0051,0.0505,-0.0088,-0.027,0.05,-0.3083,0.029,0.0892,-0.046,-0.0935,0.0773,-0.1263,-0.1144,0.0142,-0.1162,-0.0565,0.8563,-0.2661,0.687,0.6006,-0.054,0.2939,-0.0388,-0.2879,0.7302,0.6451,-0.4797,0.7338,-0.6956,0.3014,0.5752,0.6237,0.0,0.0,-0.3168,0.0,0.0,0.0,0.0,0.0,0.0,
2.8,run,-0.56,6.75,-0.49,-3.08,-2.55,-16.2,0.0,0.0,1.092,-3.87,-28.3,131.04,-8.88,8.7,115.14,-2.11,-8.7,63.54,-10.11,10.55,117.33,-16.52,15.47,35.95,10.28,1.32,117.25,-3.86,-28.91,138.07,-9.02,13.46,116.4,-1.87,-8.14,62.66,-10.0,16.77,118.19,-16.62,16.1,29.46,10.53,6.52,118.7,-0.1104,-0.071,0.8625,-0.2577,0.6992,0.6047,-0.0535,0.3065,-0.0275,-0.2858,0.7594,0.6258,-0.4747,0.7473,-0.679,0.301,0.5732,0.6318,0.0,0.006,0.279,0.0,0.435,0.045,0.006,0.006,0.006,0.0,0.656,0.091,0.0,0.006,0.019,0.013,0.494,0.071,-0.0706,-0.7946,0.9035,-0.1641,-0.115,0.655,-0.0291,-0.4372,-0.25,-0.1657,-0.0844,0.6811,-0.2838,-0.0261,-0.7087,0.1764,-0.25,0.7041,-0.0141,-0.0685,0.25,-0.0277,0.0571,-0.0161,0.0112,0.0043,0.1196,0.0036,0.0354,-0.0061,-0.0362,0.035,-0.308,0.0203,0.1028,-0.038,-0.0906,0.0744,0.0225,-0.0235,0.1065,-0.1108,-0.0511,0.842,-0.2514,0.6948,0.5951,-0.0531,0.2986,-0.0177,-0.2955,0.7359,0.6248,-0.4728,0.7356,-0.6745,0.2947,0.5656,0.6426,0.0,0.0,-0.324,0.0,0.0,0.0,0.0,0.0,0.0,
2.84,run,-0.72,6.8,-4.33,2.1,-5.35,-16.6,0.0,0.0,1.092,-3.87,-28.12,131.75,-8.88,9.05,115.05,-2.11,-8.35,63.19,-10.02,10.63,117.33,-16.52,15.82,34.45,10.37,1.32,117.25,-3.85,-28.14,138.38,-9.24,13.75,115.99,-1.7,-8.54,62.74,-10.4,16.65,118.12,-16.86,15.9,27.96,10.65,6.76,119.46,-0.11,-0.0571,0.8633,-0.2641,0.7045,0.5999,-0.0484,0.2993,-0.0265,-0.297,0.7573,0.6249,-0.4816,0.7436,-0.6877,0.3042,0.5774,0.6407,0.0,0.006,0.279,0.0,0.435,0.045,0.006,0.006,0.006,0.0,0.656,0.091,0.0,0.006,0.019,0.013,0.494,0.071,-0.066,-0.7946,0.9204,-0.1641,-0.1043,0.6535,-0.0291,-0.431,-0.25,-0.1779,-0.0844,0.6811,-0.2838,-0.0123,-0.7394,0.1764,-0.2424,0.7041,0.0042,-0.0479,0.2267,-0.0194,0.0729,-0.016,0.0079,0.0218,0.0837,-0.0351,0.0248,-0.0043,-0.0253,0.0668,-0.3097,0.0142,0.0955,-0.0266,-0.099,0.0643,-0.0085,-0.0538,-0.0446,-0.1104,-0.071,0.8625,-0.2577,0.6992,0.6047,-0.0535,0.3065,-0.0275,-0.2858,0.7594,0.6258,-0.4747,0.7473,-0.679,0.301,0.5732,0.6318,0.0,0.0,-0.3312,0.0,0.0,0.0,0.0,0.0,0.0,
2.88,run,-0.63,6.79,1.94,0.16,1.59,-16.9,0.0,0.0,1.092,-3.69,-28.12,132.28,-8.88,9.05,115.05,-2.11,-8.26,63.02,-9.93,11.16,117.33,-16.61,16.08,33.05,10.46,1.41,117.25,-3.92,-28.62,139.08,-9.58,14.11,115.59,-1.44,-9.07,62.39,-10.82,16.25,119.62,-16.8,16.51,26.46,11.01,7.24,120.06,-0.1119,-0.0659,0.8715,-0.2738,0.7111,0.5952,-0.0411,0.2897,-0.0307,-0.3092,0.75,0.6463,-0.4801,0.7548,-0.6951,0.3145,0.5861,0.6477,0.0,0.006,0.279,0.0,0.435,0.045,0.006,0.006,0.006,0.0,0.656,0.091,0.0,0.006,0.019,0.013,0.494,0.071,-0.066,-0.7915,0.9327,-0.1641,-0.0982,0.6519,-0.0291,-0.4249,-0.2562,-0.1764,-0.0828,0.6811,-0.2838,-0.0061,-0.7655,0.1779,-0.2424,0.7041,0.003,-0.022,0.2049,-0.0136,0.0741,-0.017,0.0055,0.0384,0.0355,-0.0188,0.0231,-0.003,-0.0177,0.0699,-0.315,0.0157,0.0668,-0.0186,-0.1125,0.0689,-0.0755,0.0366,-0.0934,-0.11,-0.0571,0.8633,-0.2641,0.7045,0.5999,-0.0484,0.2993,-0.0265,-0.297,0.7573,0.6249,-0.4816,0.7436,-0.6877,0.3042,0.5774,0.6407,0.0,0.0,-0.3384,0.0,0.0,0.0,0.0,0.0,0.0,
2.92,run,-0.65,6.87,-0.54,1.52,2.45,-17.3,0.0,0.0,1.092,-4.04,-28.12,132.63,-8.88,9.23,115.05,-1.85,-8.53,62.93,-10.2,11.51,117.33,-16.7,16.08,31.64,10.55,1.41,117.25,-3.78,-29.76,140.07,-9.67,14.23,116.48,-1.58,-9.33,62.09,-10.7,17.75,118.42,-16.88,16.66,24.96,11.13,7.33,119.93,-0.1081,-0.0866,0.8832,-0.2762,0.7132,0.6056,-0.0451,0.2848,-0.0343,-0.3056,0.7775,0.6285,-0.4822,0.7574,-0.7005,0.3181,0.5878,0.6462,0.019,0.013,0.916,0.006,0.416,0.052,0.0,0.013,0.006,0.026,0.709,0.13,0.006,0.013,0.013,0.013,0.786,0.169,-0.0629,-0.7915,0.9419,-0.1641,-0.0982,0.6519,-0.0291,-0.4234,-0.2592,-0.1749,-0.0736,0.6811,-0.2853,-0.0015,-0.79,0.1795,-0.2408,0.7041,0.0134,-0.0154,0.1776,-0.0095,0.0519,-0.0119,0.0039,0.0326,0.0135,-0.0075,0.0503,-0.0021,-0.0181,0.066,-0.3115,0.0167,0.0525,-0.013,-0.105,0.0681,0.0339,0.0027,0.0278,-0.1119,-0.0659,0.8715,-0.2738,0.7111,0.5952,-0.0411,0.2897,-0.0307,-0.3092,0.75,0.6463,-0.4801,0.7548,-0.6951,0.3145,0.5861,0.6477,0.0,0.0,-0.3456,0.0,0.0,0.0,0.0,0.0,0.0,
2.96,run,-0.77,6.93,-3.65,1.37,0.25,-17.6,0.0,0.0,1.092,-4.13,-28.39,132.98,-9.14,9.84,115.05,-1.76,-8.96,62.67,-10.37,11.6,117.33,-16.7,16.52,30.23,10.9,1.49,117.33,-3.76,-30.21,140.79,-9.9,14.59,116.55,-1.51,-9.81,61.58,-11.04,17.58,119.54,-17.01,17.11,23.46,11.29,7.63,120.33,-0.1074,-0.0946,0.8916,-0.2828,0.7199,0.6064,-0.043,0.2762,-0.0402,-0.3154,0.7741,0.6416,-0.486,0.7656,-0.7114,0.3227,0.5932,0.6509,0.019,0.013,0.916,0.006,0.416,0.052,0.0,0.013,0.006,0.026,0.709,0.13,0.006,0.013,0.013,0.013,0.786,0.169,-0.069,-0.7915,0.948,-0.1641,-0.0951,0.6519,-0.0245,-0.428,-0.2608,-0.1795,-0.0675,0.6811,-0.2869,-0.0015,-0.8145,0.181,-0.2408,0.7041,-0.0129,-0.0108,0.1467,-0.0067,0.0475,-0.0083,0.0195,0.006,0.0038,-0.022,0.0576,-0.0015,-0.0183,0.0462,-0.3074,0.0173,0.0367,-0.0091,-0.1063,0.0749,-0.0094,0.0265,0.0428,-0.1081,-0.0866,0.8832,-0.2762,0.7132,0.6056,-0.0451,0.2848,-0.0343,-0.3056,0.7775,0.6285,-0.4822,0.7574,-0.7005,0.3181,0.5878,0.6462,0.0,0.0,-0.3528,0.0,0.0,0.0,0.0,0.0,0.0,
3.0,run,-0.75,6.9,1.44,-0.78,0.07,-18.0,0.0,0.0,1.092,-3.52,-28.92,133.24,-9.23,9.84,115.05,-1.76,-9.05,62.31,-10.37,11.6,117.33,-16.79,16.79,28.83,10.99,1.49,117.6,-3.72,-29.84,141.1,-9.94,15.13,116.05,-1.35,-10.06,61.42,-11.53,17.75,119.63,-17.12,17.33,21.96,11.43,7.89,121.15,-0.1064,-0.0881,0.8952,-0.2841,0.7296,0.6006,-0.0385,0.2717,-0.0421,-0.3295,0.7773,0.6427,-0.4892,0.7696,-0.7207,0.3267,0.598,0.6606,0.019,0.013,0.916,0.006,0.416,0.052,0.0,0.013,0.006,0.026,0.709,0.13,0.006,0.013,0.013,0.013,0.786,0.169,-0.0706,-0.7961,0.9541,-0.1687,-0.0844,0.6519,-0.023,-0.4357,-0.2654,-0.1825,-0.066,0.6811,-0.2869,0.0061,-0.8391,0.1871,-0.2393,0.7056,-0.0151,-0.0257,0.1268,-0.0228,0.0755,-0.0058,0.0197,-0.026,-0.0154,-0.0275,0.0463,-0.001,-0.0128,0.0625,-0.3118,0.0362,0.0317,-0.0003,-0.1174,0.0801,-0.0637,0.0239,0.0043,-0.1074,-0.0946,0.8916,-0.2828,0.7199,0.6064,-0.043,0.2762,-0.0402,-0.3154,0.7741,0.6416,-0.486,0.7656,-0.7114,0.3227,0.5932,0.6509,0.0,0.0,-0.36,0.0,0.0,0.0,0.0,0.0,0.0,
3.04,run,-0.64,6.76,2.95,-3.45,-3.71,-18.4,0.0,0.0,1.371,-3.96,-29.44,133.59,-9.32,9.84,115.05,-1.76,-9.4,61.96,-10.72,11.6,117.33,-16.96,17.14,27.33,11.07,2.29,117.6,-3.74,-30.44,142.2,-10.16,15.21,116.67,-1.41,-10.17,61.16,-11.33,18.82,118.28,-17.27,17.43,20.46,11.48,8.2,121.26,-0.1069,-0.0989,0.9083,-0.2904,0.731,0.6079,-0.0403,0.2696,-0.0452,-0.3236,0.7968,0.6268,-0.4935,0.7715,-0.7284,0.3281,0.6036,0.6619,0.006,0.013,1.371,0.013,0.585,0.084,0.006,0.013,0.013,0.026,0.955,0.254,0.006,0.006,0.013,0.013,0.566,0.273,-0.0598,-0.8053,0.9587,-0.1703,-0.0844,0.6519,-0.023,-0.4372,-0.2715,-0.1825,-0.066,0.6811,-0.2884,0.0107,-0.8636,0.1887,-0.2393,0.7102,0.0292,-0.052,0.1058,-0.0216,0.0529,-0.0041,0.0138,-0.0239,-0.0335,-0.0192,0.0324,-0.0007,-0.0146,0.0608,-0.3091,0.031,0.0222,0.0168,-0.1155,0.0774,0.0251,-0.0137,0.0012,-0.1064,-0.0881,0.8952,-0.2841,0.7296,0.6006,-0.0385,0.2717,-0.0421,-0.3295,0.7773,0.6427,-0.4892,0.7696,-0.7207,0.3267,0.598,0.6606,0.0,0.0,-0.3672,0.0,0.0,0.0,0.0,0.0,0.0,
3.08,run,-0.53,6.44,3.15,-7.97,-3.04,-18.7,0.0,0.0,1.371,-3.87,-29.79,133.59,-9.58,9.84,115.05,-1.76,-9.76,61.7,-11.07,11.6,117.33,-17.14,17.49,25.93,11.25,2.81,118.21,-3.76,-30.18,142.59,-10.11,15.4,117.03,-1.42,-10.02,61.26,-11.5,19.48,117.37,-17.58,17.57,18.96,11.53,8.46,121.63,-0.1074,-0.0942,0.9128,-0.289,0.7345,0.6121,-0.0405,0.2724,-0.044,-0.3286,0.8087,0.6162,-0.5022,0.774,-0.7361,0.3295,0.6085,0.6663,0.006,0.013,1.371,0.013,0.585,0.084,0.006,0.013,0.013,0.026,0.955,0.254,0.006,0.006,0.013,0.013,0.566,0.273,-0.0675,-0.8145,0.9649,-0.1718,-0.0844,0.6519,-0.023,-0.4433,-0.2777,-0.1887,-0.066,0.6811,-0.2915,0.0169,-0.8897,0.1902,-0.2255,0.7102,-0.0082,-0.0708,0.097,-0.0209,0.037,-0.0029,0.0096,-0.0396,-0.0464,-0.0364,0.0227,-0.0005,-0.0217,0.0655,-0.3138,0.0275,0.0672,0.0117,-0.106,0.065,0.0516,-0.0601,-0.0648,-0.1069,-0.0989,0.9083,-0.2904,0.731,0.6079,-0.0403,0.2696,-0.0452,-0.3236,0.7968,0.6268,-0.4935,0.7715,-0.7284,0.3281,0.6036,0.6619,0.0,0.0,-0.3744,0.0,0.0,0.0,0.0,0.0,0.0,
3.12,run,-0.26,6.85,4.64,5.76,-2.33,-19.1,0.0,0.0,1.989,-3.87,-29.88,133.59,-9.67,10.72,115.05,-1.76,-9.76,61.7,-11.07,13.27,117.33,-17.31,17.49,23.47,11.34,2.9,119.18,-3.72,-30.31,142.49,-9.84,15.43,117.58,-1.52,-9.91,62.09,-11.37,20.36,115.87,-17.7,17.49,17.46,11.47,8.37,122.05,-0.1062,-0.0965,0.9116,-0.281,0.735,0.6186,-0.0435,0.2744,-0.0342,-0.3248,0.8247,0.5934,-0.5058,0.7725,-0.7357,0.3278,0.6068,0.6712,0.006,0.006,1.989,0.0,0.442,0.267,0.006,0.006,0.0,0.006,0.741,0.026,0.006,0.0,0.019,0.006,0.643,0.163,-0.066,-0.8207,0.9649,-0.1764,-0.0844,0.6519,-0.023,-0.4495,-0.2823,-0.1948,-0.066,0.6811,-0.2945,0.023,-0.9143,0.1933,-0.2163,0.721,0.0,-0.0727,0.0679,-0.0319,0.0259,-0.002,0.0067,-0.0509,-0.0498,-0.0486,0.0159,-0.0004,-0.0267,0.069,-0.3121,0.0308,0.0817,0.0487,-0.0961,0.0372,0.0549,-0.1392,-0.053,-0.1074,-0.0942,0.9128,-0.289,0.7345,0.6121,-0.0405,0.2724,-0.044,-0.3286,0.8087,0.6162,-0.5022,0.774,-0.7361,0.3295,0.6085,0.6663,0.0,0.0,-0.3816,0.0,0.0,0.0,0.0,0.0,0.0,
3.16,run,-0.06,7.47,7.8,20.16,-1.03,-19.4,0.0,0.0,1.989,-3.52,-29.88,133.59,-9.67,10.81,115.4,-1.76,-9.76,61.7,-11.07,13.97,117.33,-17.49,17.49,22.41,11.34,2.9,119.44,-4.06,-31.69,143.99,-10.6,15.4,118.27,-1.38,-10.08,60.59,-11.07,19.32,117.37,-17.9,18.99,15.96,12.06,9.4,120.55,-0.1161,-0.1216,0.9376,-0.3029,0.7346,0.6267,-0.0394,0.2712,-0.0556,-0.3163,0.8058,0.6463,-0.5114,0.8025,-0.7583,0.3447,0.6255,0.6449,0.006,0.006,1.989,0.0,0.442,0.267,0.006,0.006,0.0,0.006,0.741,0.026,0.006,0.0,0.019,0.006,0.643,0.163,-0.066,-0.8222,0.9649,-0.1779,-0.069,0.6519,-0.023,-0.4495,-0.2823,-0.1948,-0.0368,0.6811,-0.2976,0.023,-0.9572,0.1948,-0.2148,0.7378,0.0,-0.0543,0.0475,-0.0258,0.0523,-0.0014,0.0047,-0.0356,-0.0349,-0.034,0.0761,-0.0002,-0.0256,0.0483,-0.3143,0.025,0.0606,0.0717,-0.0724,0.0732,0.081,0.1005,-0.0406,-0.1062,-0.0965,0.9116,-0.281,0.735,0.6186,-0.0435,0.2744,-0.0342,-0.3248,0.8247,0.5934,-0.5058,0.7725,-0.7357,0.3278,0.6068,0.6712,0.0,0.0,-0.3888,0.0,0.0,0.0,0.0,0.0,0.0,
3.2,run,-0.27,7.37,-6.27,-2.67,4.74,-19.8,0.0,0.0,1.989,-3.78,-29.88,133.59,-9.76,10.81,115.49,-1.67,-9.84,61.7,-11.07,14.94,116.28,-17.49,17.49,21.01,11.34,2.9,119.62,-4.28,-32.74,145.49,-11.34,15.27,118.68,-1.15,-10.6,59.09,-11.38,17.82,118.87,-17.75,20.49,14.46,12.7,10.0,119.05,-0.1223,-0.1406,0.9562,-0.3241,0.7321,0.6315,-0.0329,0.2618,-0.0904,-0.325,0.7717,0.6985,-0.507,0.8285,-0.7852,0.3628,0.6363,0.6237,0.006,0.006,1.989,0.0,0.442,0.267,0.006,0.006,0.0,0.006,0.741,0.026,0.006,0.0,0.019,0.006,0.643,0.163,-0.0598,-0.8222,0.9649,-0.1779,-0.0675,0.6581,-0.023,-0.4495,-0.2823,-0.1948,-0.0245,0.6811,-0.3007,0.023,-0.9756,0.1948,-0.2148,0.7424,0.0279,-0.038,0.0333,-0.018,0.0436,0.027,0.0033,-0.0249,-0.0244,-0.0238,0.1092,-0.0002,-0.0319,0.0338,-0.3038,0.0175,0.0424,0.0711,-0.055,0.1275,0.1362,0.3519,-0.0179,-0.1161,-0.1216,0.9376,-0.3029,0.7346,0.6267,-0.0394,0.2712,-0.0556,-0.3163,0.8058,0.6463,-0.5114,0.8025,-0.7583,0.3447,0.6255,0.6449,0.0,0.0,-0.396,0.0,0.0,0.0,0.0,0.0,0.0,
3.24,run,0.1,7.02,7.62,-10.19,7.19,-20.2,0.0,0.0,2.528,-4.48,-30.23,133.59,-9.93,10.9,116.19,-1.58,-9.93,61.7,-11.07,15.38,115.66,-17.67,18.11,19.51,11.69,3.16,119.71,-3.84,-31.84,143.99,-10.48,16.11,117.3,-1.27,-11.79,60.4,-12.38,18.33,120.37,-17.55,19.27,12.96,12.44,9.32,120.55,-0.1098,-0.1244,0.9224,-0.2993,0.7475,0.6152,-0.0362,0.2402,-0.0541,-0.3536,0.7877,0.6521,-0.5014,0.8048,-0.762,0.3555,0.6239,0.6678,0.013,0.019,2.528,0.019,0.455,0.214,0.006,0.045,0.013,0.019,0.422,0.026,0.006,0.006,0.019,0.013,0.604,0.039,-0.0644,-0.8222,0.9649,-0.1795,-0.0675,0.6596,-0.0215,-0.451,-0.2823,-0.1948,-0.0077,0.6627,-0.3007,0.023,-1.0002,0.1948,-0.2148,0.7455,0.0016,-0.0266,0.0233,-0.0186,0.0305,0.0248,0.0083,-0.0234,-0.0171,-0.0167,0.1421,-0.0718,-0.0223,0.0237,-0.3083,0.0122,0.0297,0.0617,-0.0731,0.1188,-0.1094,-0.0466,0.0828,-0.1223,-0.1406,0.9562,-0.3241,0.7321,0.6315,-0.0329,0.2618,-0.0904,-0.325,0.7717,0.6985,-0.507,0.8285,-0.7852,0.3628,0.6363,0.6237,0.0,0.0,-0.4032,0.0,0.0,0.0,0.0,0.0,0.0,
3.38,tail,-1.0,7.48,-8.47,3.47,42.11,,0.0,0.0,2.528,-3.96,-30.85,125.77,-10.28,0.88,112.32,-1.14,-10.2,61.61,-10.9,5.1,110.39,-17.49,20.48,16.79,12.3,-4.83,115.58,,,,,,,,,,,,,,,,,,,,,,,,,,,,,,,,,,,,,0.006,0.0,0.026,0.0,0.299,0.039,0.006,0.0,0.0,0.0,0.234,0.039,0.0,0.026,0.0,0.006,0.247,0.006,,,,,,,,,,,,,,,,,,,,,,,,,,,,,,,,,,,,,,,,,,,,,,,,,,,,,,,,,,,,,,,,,,,,,
3.48,tail,-1.31,7.93,-2.69,3.91,-19.65,,0.0,0.0,2.528,-2.2,-29.71,125.42,-9.23,2.29,111.27,-0.7,-8.44,62.31,-9.49,6.24,109.42,-16.0,19.25,18.19,10.72,-4.04,114.7,,,,,,,,,,,,,,,,,,,,,,,,,,,,,,,,,,,,,0.026,0.013,0.006,0.019,0.084,0.026,0.0,0.006,0.019,0.026,0.13,0.013,0.019,0.0,0.026,0.019,0.136,0.019,,,,,,,,,,,,,,,,,,,,,,,,,,,,,,,,,,,,,,,,,,,,,,,,,,,,,,,,,,,,,,,,,,,,,
3.58,tail,-1.87,7.57,-4.47,-2.57,16.15,,0.0,0.0,2.528,-0.53,-26.46,122.34,-6.24,5.45,108.37,0.0,-5.19,65.57,-6.42,9.32,106.08,-12.66,19.07,21.71,7.47,-1.05,111.53,,,,,,,,,,,,,,,,,,,,,,,,,,,,,,,,,,,,,0.0,0.006,0.013,0.013,0.078,0.039,0.0,0.006,0.026,0.026,0.136,0.013,0.019,0.0,0.013,0.026,0.13,0.013,,,,,,,,,,,,,,,,,,,,,,,,,,,,,,,,,,,,,,,,,,,,,,,,,,,,,,,,,,,,,,,,,,,,,
3.68,tail,-2.31,6.89,-3.81,-5.64,-5.71,,0.0,0.0,2.528,-0.09,-23.2,119.0,-2.81,8.88,105.21,0.0,-1.93,68.82,-3.08,12.3,102.66,-9.4,19.07,25.05,4.48,2.29,108.46,,,,,,,,,,,,,,,,,,,,,,,,,,,,,,,,,,,,,0.0,0.013,0.006,0.013,0.071,0.052,0.0,0.006,0.026,0.026,0.175,0.006,0.0,0.006,0.006,0.026,0.163,0.006,,,,,,,,,,,,,,,,,,,,,,,,,,,,,,,,,,,,,,,,,,,,,,,,,,,,,,,,,,,,,,,,,,,,,
3.78,tail,-3.13,6.46,-6.95,-3.47,2.6,,0.0,0.0,2.528,-0.09,-19.95,115.75,-0.44,12.22,102.13,0.0,1.41,72.07,-0.7,14.68,99.32,-6.15,19.07,28.3,1.23,5.45,105.12,,,,,,,,,,,,,,,,,,,,,,,,,,,,,,,,,,,,,0.0,0.006,0.006,0.006,0.071,0.104,0.006,0.006,0.026,0.026,0.195,0.0,0.006,0.006,0.006,0.019,0.169,0.006,,,,,,,,,,,,,,,,,,,,,,,,,,,,,,,,,,,,,,,,,,,,,,,,,,,,,,,,,,,,,,,,,,,,,
3.88,tail,-3.24,6.03,-1.43,-3.54,-1.81,,0.0,0.0,2.528,-0.09,-16.7,112.41,-0.09,15.12,98.88,0.0,4.57,75.32,-0.26,15.29,96.15,-2.9,19.07,31.55,0.09,8.79,101.87,,,,,,,,,,,,,,,,,,,,,,,,,,,,,,,,,,,,,0.0,0.0,0.006,0.006,0.045,0.111,0.006,0.006,0.026,0.013,0.123,0.006,0.006,0.006,0.006,0.006,0.13,0.013,,,,,,,,,,,,,,,,,,,,,,,,,,,,,,,,,,,,,,,,,,,,,,,,,,,,,,,,,,,,,,,,,,,,,
3.98,tail,-3.05,5.98,1.41,0.04,4.46,,0.0,0.0,2.528,-0.09,-13.45,109.16,-0.09,16.0,95.8,0.0,7.73,78.05,-0.26,15.73,93.08,-0.44,19.07,34.89,0.09,12.04,98.79,,,,,,,,,,,,,,,,,,,,,,,,,,,,,,,,,,,,,0.0,0.006,0.013,0.006,0.033,0.104,0.006,0.013,0.013,0.013,0.071,0.006,0.006,0.006,0.006,0.006,0.182,0.019,,,,,,,,,,,,,,,,,,,,,,,,,,,,,,,,,,,,,,,,,,,,,,,,,,,,,,,,,,,,,,,,,,,,,
4.08,tail,-3.23,5.73,-1.58,-1.8,3.31,,0.0,0.0,2.528,-0.09,-10.2,106.0,0.0,16.26,92.64,0.0,11.07,78.57,-0.26,15.82,90.0,-0.26,19.07,38.14,0.09,15.12,95.45,,,,,,,,,,,,,,,,,,,,,,,,,,,,,,,,,,,,,0.0,0.006,0.006,0.006,0.019,0.149,0.006,0.006,0.006,0.013,0.071,0.019,0.006,0.006,0.006,0.006,0.117,0.006,,,,,,,,,,,,,,,,,,,,,,,,,,,,,,,,,,,,,,,,,,,,,,,,,,,,,,,,,,,,,,,,,,,,,
4.18,tail,-3.76,5.62,-4.69,-0.66,4.53,,0.0,0.0,2.528,-0.09,-6.94,102.66,0.7,16.52,89.56,0.0,14.41,78.57,-0.26,16.17,86.92,-0.26,19.07,41.4,0.09,16.17,92.2,,,,,,,,,,,,,,,,,,,,,,,,,,,,,,,,,,,,,0.0,0.006,0.006,0.006,0.006,0.136,0.006,0.006,0.013,0.013,0.058,0.045,0.006,0.006,0.006,0.006,0.104,0.013,,,,,,,,,,,,,,,,,,,,,,,,,,,,,,,,,,,,,,,,,,,,,,,,,,,,,,,,,,,,,,,,,,,,,
4.28,tail,-4.05,5.44,-2.63,-1.47,2.93,,0.0,0.0,2.528,-0.09,-3.69,99.4,0.53,16.7,86.4,0.0,17.58,78.57,-0.18,16.44,83.76,-0.26,19.07,44.65,0.09,16.26,89.21,,,,,,,,,,,,,,,,,,,,,,,,,,,,,,,,,,,,,0.0,0.006,0.006,0.0,0.013,0.26,0.006,0.006,0.006,0.006,0.039,0.033,0.006,0.006,0.006,0.006,0.091,0.026,,,,,,,,,,,,,,,,,,,,,,,,,,,,,,,,,,,,,,,,,,,,,,,,,,,,,,,,,,,,,,,,,,,,,
4.38,tail,-3.99,10.57,-0.57,43.18,-5.25,,0.0,0.0,2.528,0.0,-0.18,96.15,0.09,16.61,82.27,0.0,19.07,79.8,-0.09,16.88,80.33,-0.26,18.54,47.55,0.09,16.61,86.31,,,,,,,,,,,,,,,,,,,,,,,,,,,,,,,,,,,,,0.0,0.0,0.0,0.0,0.019,0.019,0.006,0.019,0.013,0.006,0.013,0.019,0.006,0.0,0.052,0.006,0.058,0.019,,,,,,,,,,,,,,,,,,,,,,,,,,,,,,,,,,,,,,,,,,,,,,,,,,,,,,,,,,,,,,,,,,,,,
4.48,tail,-3.38,9.21,4.06,-11.28,0.24,,0.0,0.0,2.528,0.09,2.81,92.99,0.0,16.7,79.19,0.0,19.07,79.72,-0.18,17.05,78.84,-0.26,19.07,50.98,-0.26,16.7,82.88,,,,,,,,,,,,,,,,,,,,,,,,,,,,,,,,,,,,,0.0,0.013,0.006,0.0,0.006,0.006,0.0,0.013,0.013,0.0,0.013,0.0,0.006,0.0,0.0,0.0,0.058,0.039,,,,,,,,,,,,,,,,,,,,,,,,,,,,,,,,,,,,,,,,,,,,,,,,,,,,,,,,,,,,,,,,,,,,,
4.58,tail,-3.77,7.79,-3.65,-11.31,-1.97,,0.0,0.0,2.528,-0.26,6.06,89.65,0.35,16.61,78.75,0.0,19.07,79.72,0.09,17.05,79.19,-0.18,19.07,54.4,0.09,16.7,79.8,,,,,,,,,,,,,,,,,,,,,,,,,,,,,,,,,,,,,0.006,0.006,0.006,0.0,0.013,0.0,0.0,0.013,0.013,0.0,0.013,0.0,0.0,0.006,0.006,0.013,0.052,0.019,,,,,,,,,,,,,,,,,,,,,,,,,,,,,,,,,,,,,,,,,,,,,,,,,,,,,,,,,,,,,,,,,,,,,
4.68,tail,-4.77,10.3,-9.01,22.88,-0.49,,0.0,0.0,2.528,0.0,8.79,86.66,0.18,16.7,78.66,0.0,19.07,79.72,0.09,17.05,79.01,-0.18,18.63,57.57,0.0,16.79,77.87,,,,,,,,,,,,,,,,,,,,,,,,,,,,,,,,,,,,,0.0,0.019,0.006,0.0,0.006,0.0,0.0,0.013,0.013,0.013,0.013,0.0,0.0,0.013,0.013,0.0,0.045,0.0,,,,,,,,,,,,,,,,,,,,,,,,,,,,,,,,,,,,,,,,,,,,,,,,,,,,,,,,,,,,,,,,,,,,,
4.78,tail,-5.01,9.86,-2.82,-3.8,2.74,,0.0,0.0,2.528,0.09,11.6,83.41,0.7,16.7,78.49,0.0,19.07,79.72,0.0,17.05,79.01,-0.18,18.46,60.73,-0.18,16.88,77.96,,,,,,,,,,,,,,,,,,,,,,,,,,,,,,,,,,,,,0.006,0.058,0.019,0.013,0.013,0.006,0.0,0.013,0.013,0.0,0.013,0.0,0.006,0.013,0.026,0.006,0.045,0.0,,,,,,,,,,,,,,,,,,,,,,,,,,,,,,,,,,,,,,,,,,,,,,,,,,,,,,,,,,,,,,,,,,,,,
4.88,tail,-5.31,9.15,-3.01,-4.62,-0.55,,0.0,0.0,2.528,0.09,14.41,80.51,0.09,16.7,78.4,0.0,19.07,79.72,-0.09,17.05,79.19,-0.18,18.46,63.81,-0.26,16.96,77.87,,,,,,,,,,,,,,,,,,,,,,,,,,,,,,,,,,,,,0.006,0.084,0.013,0.006,0.013,0.006,0.006,0.013,0.013,0.006,0.013,0.006,0.0,0.019,0.039,0.006,0.039,0.006,,,,,,,,,,,,,,,,,,,,,,,,,,,,,,,,,,,,,,,,,,,,,,,,,,,,,,,,,,,,,,,,,,,,,
4.98,tail,-5.53,8.74,-2.54,-2.9,-0.41,,0.0,0.0,2.528,0.09,16.88,79.89,0.26,16.7,78.4,0.0,19.07,79.63,-0.09,17.05,79.19,-0.26,18.37,67.06,-0.26,17.05,77.87,,,,,,,,,,,,,,,,,,,,,,,,,,,,,,,,,,,,,0.0,0.111,0.006,0.0,0.006,0.006,0.006,0.013,0.006,0.006,0.019,0.006,0.006,0.019,0.039,0.006,0.033,0.006,,,,,,,,,,,,,,,,,,,,,,,,,,,,,,,,,,,,,,,,,,,,,,,,,,,,,,,,,,,,,,,,,,,,,
5.08,tail,-5.42,8.61,0.25,-0.33,0.48,,0.0,0.0,2.528,0.09,17.4,79.89,0.26,16.7,78.4,0.0,19.07,79.63,-0.09,16.96,79.19,-0.18,18.28,70.14,-0.26,17.05,77.87,,,,,,,,,,,,,,,,,,,,,,,,,,,,,,,,,,,,,0.006,0.104,0.006,0.0,0.006,0.0,0.006,0.013,0.006,0.006,0.013,0.006,0.0,0.026,0.052,0.006,0.039,0.006,,,,,,,,,,,,,,,,,,,,,,,,,,,,,,,,,,,,,,,,,,,,,,,,,,,,,,,,,,,,,,,,,,,,,
5.18,tail,-5.11,8.37,1.89,-1.31,-0.14,,0.0,0.0,2.528,0.09,17.4,79.89,0.26,16.7,78.4,0.0,19.07,79.63,-0.09,16.96,79.1,-0.18,18.28,73.3,-0.26,17.23,77.87,,,,,,,,,,,,,,,,,,,,,,,,,,,,,,,,,,,,,0.006,0.104,0.006,0.0,0.006,0.006,0.0,0.013,0.006,0.006,0.019,0.006,0.0,0.026,0.058,0.006,0.033,0.006,,,,,,,,,,,,,,,,,,,,,,,,,,,,,,,,,,,,,,,,,,,,,,,,,,,,,,,,,,,,,,,,,,,,,
5.28,tail,-5.02,8.25,0.09,-0.32,0.86,,0.0,0.0,2.528,0.09,17.4,79.89,0.35,16.7,78.4,0.0,19.07,79.63,-0.09,16.96,79.1,-0.26,18.19,76.38,-0.26,17.23,77.87,,,,,,,,,,,,,,,,,,,,,,,,,,,,,,,,,,,,,0.006,0.104,0.006,0.0,0.013,0.006,0.006,0.013,0.013,0.006,0.019,0.0,0.006,0.019,0.097,0.006,0.033,0.006,,,,,,,,,,,,,,,,,,,,,,,,,,,,,,,,,,,,,,,,,,,,,,,,,,,,,,,,,,,,,,,,,,,,,
5.38,tail,-5.06,8.12,-0.92,-0.38,0.83,,0.0,0.0,2.528,0.09,17.4,79.89,0.44,16.7,78.4,0.0,19.07,79.45,-0.09,16.96,79.19,-0.26,18.19,78.22,-0.26,17.23,77.87,,,,,,,,,,,,,,,,,,,,,,,,,,,,,,,,,,,,,0.0,0.104,0.006,0.006,0.006,0.0,0.006,0.013,0.006,0.006,0.019,0.006,0.006,0.033,0.078,0.006,0.026,0.006,,,,,,,,,,,,,,,,,,,,,,,,,,,,,,,,,,,,,,,,,,,,,,,,,,,,,,,,,,,,,,,,,,,,,
5.48,tail,-5.04,8.04,-0.45,0.01,0.97,,0.0,0.0,2.528,0.09,17.4,79.89,0.44,16.7,78.4,0.0,19.07,79.45,-0.09,16.96,79.19,-0.18,18.19,78.4,-0.26,17.23,77.87,,,,,,,,,,,,,,,,,,,,,,,,,,,,,,,,,,,,,0.0,0.104,0.006,0.006,0.013,0.006,0.006,0.013,0.006,0.006,0.019,0.006,0.0,0.033,0.071,0.006,0.033,0.006,,,,,,,,,,,,,,,,,,,,,,,,,,,,,,,,,,,,,,,,,,,,,,,,,,,,,,,,,,,,,,,,,,,,,
5.58,tail,-4.98,7.99,-0.11,0.2,0.2,,0.0,0.0,2.528,0.09,17.4,79.89,0.44,16.7,78.4,0.0,19.07,79.45,-0.09,16.96,79.19,-0.18,18.19,78.4,-0.26,17.23,77.87,,,,,,,,,,,,,,,,,,,,,,,,,,,,,,,,,,,,,0.006,0.104,0.006,0.0,0.006,0.006,0.0,0.013,0.006,0.006,0.019,0.006,0.006,0.033,0.058,0.006,0.033,0.006,,,,,,,,,,,,,,,,,,,,,,,,,,,,,,,,,,,,,,,,,,,,,,,,,,,,,,,,,,,,,,,,,,,,,
5.68,tail,-4.9,7.94,0.04,0.18,-0.39,,0.0,0.0,2.528,0.09,17.4,79.89,0.44,16.7,78.4,0.0,19.07,79.45,-0.09,16.96,79.19,-0.26,18.19,78.4,-0.26,17.23,77.87,,,,,,,,,,,,,,,,,,,,,,,,,,,,,,,,,,,,,0.0,0.104,0.006,0.0,0.013,0.006,0.006,0.013,0.0,0.006,0.019,0.006,0.0,0.033,0.052,0.006,0.026,0.006,,,,,,,,,,,,,,,,,,,,,,,,,,,,,,,,,,,,,,,,,,,,,,,,,,,,,,,,,,,,,,,,,,,,,
5.78,tail,-4.84,7.88,-0.13,0.11,0.03,,0.0,0.0,2.528,0.09,17.4,79.89,0.44,16.7,78.4,0.0,19.07,79.45,-0.09,16.96,79.19,-0.26,18.19,78.4,-0.26,17.23,77.87,,,,,,,,,,,,,,,,,,,,,,,,,,,,,,,,,,,,,0.006,0.111,0.006,0.006,0.006,0.006,0.0,0.013,0.006,0.006,0.013,0.013,0.0,0.026,0.065,0.006,0.026,0.006,,,,,,,,,,,,,,,,,,,,,,,,,,,,,,,,,,,,,,,,,,,,,,,,,,,,,,,,,,,,,,,,,,,,,
5.88,tail,-4.81,7.8,-0.22,-0.02,1.12,,0.0,0.0,2.528,0.09,17.4,79.89,0.44,16.7,78.4,0.0,19.07,79.45,-0.09,16.96,79.19,-0.18,18.19,78.4,-0.26,17.23,77.87,,,,,,,,,,,,,,,,,,,,,,,,,,,,,,,,,,,,,0.006,0.104,0.013,0.0,0.006,0.0,0.006,0.006,0.006,0.006,0.019,0.006,0.0,0.026,0.071,0.013,0.026,0.006,,,,,,,,,,,,,,,,,,,,,,,,,,,,,,,,,,,,,,,,,,,,,,,,,,,,,,,,,,,,,,,,,,,,,
5.98,tail,-4.77,7.72,-0.3,-0.08,0.87,,0.0,0.0,2.528,0.09,17.4,79.89,0.53,16.7,78.4,0.0,19.07,79.45,-0.09,16.96,79.19,-0.18,18.19,78.4,-0.26,17.23,77.87,,,,,,,,,,,,,,,,,,,,,,,,,,,,,,,,,,,,,0.006,0.123,0.0,0.006,0.013,0.006,0.0,0.013,0.0,0.006,0.019,0.006,0.006,0.033,0.052,0.006,0.033,0.006,,,,,,,,,,,,,,,,,,,,,,,,,,,,,,,,,,,,,,,,,,,,,,,,,,,,,,,,,,,,,,,,,,,,,
6.08,tail,-4.72,7.63,-0.17,-0.15,-0.25,,0.0,0.0,2.528,0.09,17.4,79.89,0.53,16.7,78.4,0.0,19.07,79.45,-0.09,16.96,79.19,-0.26,18.19,78.4,-0.26,17.23,77.87,,,,,,,,,,,,,,,,,,,,,,,,,,,,,,,,,,,,,0.0,0.091,0.006,0.0,0.006,0.006,0.0,0.013,0.006,0.006,0.013,0.006,0.0,0.033,0.065,0.013,0.026,0.006,,,,,,,,,,,,,,,,,,,,,,,,,,,,,,,,,,,,,,,,,,,,,,,,,,,,,,,,,,,,,,,,,,,,,
6.18,tail,-4.66,7.58,-0.08,0.09,-0.33,,0.0,0.0,2.528,0.09,17.4,79.89,0.53,16.7,78.4,0.0,19.07,79.45,-0.09,16.96,79.19,-0.26,18.19,78.4,-0.26,17.23,77.87,,,,,,,,,,,,,,,,,,,,,,,,,,,,,,,,,,,,,0.006,0.13,0.006,0.006,0.006,0.006,0.006,0.013,0.006,0.006,0.019,0.0,0.006,0.026,0.071,0.006,0.033,0.006,,,,,,,,,,,,,,,,,,,,,,,,,,,,,,,,,,,,,,,,,,,,,,,,,,,,,,,,,,,,,,,,,,,,,
6.28,tail,-4.62,7.53,-0.23,0.11,0.91,,0.0,0.0,2.528,0.09,17.4,79.89,0.53,16.7,78.4,0.0,19.07,79.45,-0.09,16.96,79.19,-0.18,18.19,78.4,-0.26,17.23,77.87,,,,,,,,,,,,,,,,,,,,,,,,,,,,,,,,,,,,,0.006,0.143,0.006,0.0,0.006,0.006,0.006,0.006,0.0,0.006,0.019,0.006,0.0,0.033,0.058,0.006,0.033,0.006,,,,,,,,,,,,,,,,,,,,,,,,,,,,,,,,,,,,,,,,,,,,,,,,,,,,,,,,,,,,,,,,,,,,,
