t_s,phase,roll_deg,pitch_deg,gyro_x_dps,gyro_y_dps,gyro_z_dps,height_ref_mm,vx_ref_mps,vy_ref_mps,max_cur_a,q0_deg,q1_deg,q2_deg,q3_deg,q4_deg,q5_deg,q6_deg,q7_deg,q8_deg,q9_deg,q10_deg,q11_deg,q12_deg,q13_deg,q14_deg,q15_deg,q16_deg,q17_deg,cmd0_deg,cmd1_deg,cmd2_deg,cmd3_deg,cmd4_deg,cmd5_deg,cmd6_deg,cmd7_deg,cmd8_deg,cmd9_deg,cmd10_deg,cmd11_deg,cmd12_deg,cmd13_deg,cmd14_deg,cmd15_deg,cmd16_deg,cmd17_deg,act0,act1,act2,act3,act4,act5,act6,act7,act8,act9,act10,act11,act12,act13,act14,act15,act16,act17,cur0_a,cur1_a,cur2_a,cur3_a,cur4_a,cur5_a,cur6_a,cur7_a,cur8_a,cur9_a,cur10_a,cur11_a,cur12_a,cur13_a,cur14_a,cur15_a,cur16_a,cur17_a,obs0,obs1,obs2,obs3,obs4,obs5,obs6,obs7,obs8,obs9,obs10,obs11,obs12,obs13,obs14,obs15,obs16,obs17,obs18,obs19,obs20,obs21,obs22,obs23,obs24,obs25,obs26,obs27,obs28,obs29,obs30,obs31,obs32,obs33,obs34,obs35,obs36,obs37,obs38,obs39,obs40,obs41,obs42,obs43,obs44,obs45,obs46,obs47,obs48,obs49,obs50,obs51,obs52,obs53,obs54,obs55,obs56,obs57,obs58,obs59,obs60,obs61,obs62,obs63,obs64,obs65,obs66,obs67,obs68,obs69,obs70,obs71,rot60_k
0.0,run,3.79,2.99,-0.17,-0.33,0.69,0.0,0.0,0.0,0.078,-0.35,17.58,79.1,0.62,14.77,77.78,0.18,16.7,77.96,0.62,16.17,78.49,-0.09,18.28,79.72,-0.7,17.31,77.96,-1.76,16.43,77.78,-0.88,13.71,79.72,1.68,15.9,79.81,1.85,15.02,80.25,1.41,17.13,78.13,-1.94,16.17,79.46,-1.0,-1.0,-0.3059,-1.0,-1.0,1.0,1.0,-1.0,1.0,1.0,-1.0,1.0,0.221,-1.0,-0.4014,-1.0,-1.0,1.0,0.006,0.0,0.0,0.013,0.0,0.078,0.006,0.0,0.026,0.0,0.0,0.039,0.013,0.0,0.039,0.0,0.0,0.013,-0.0015,0.0,-0.0031,0.0,0.0,-0.0077,0.0,0.0,-0.0046,0.0046,-0.0015,-0.0046,0.0,-0.0046,0.0015,-0.0031,-0.0031,0.0,-0.0037,0.0,-0.0064,0.0,0.0,-0.0176,0.0,0.0,-0.0112,0.0112,-0.0037,-0.0095,0.0,-0.0101,0.0032,-0.0069,-0.0075,0.0,0.0,0.0,-0.0088,-0.0097,-0.0074,0.0,0.0,0.0,0.0,0.0,0.0,0.0,0.0,0.0,0.0,0.0,0.0,0.0,0.0,0.0,0.0,0.0,0.0,0.0,0.0,0.0,0.0,0.0,0.0,0.0,0.0,0.0,0.0,0.0,0.0,0.0,0
0.04,run,3.71,3.0,-1.03,-0.51,2.64,0.0,0.0,0.0,0.078,-1.05,17.05,78.57,0.44,14.24,78.05,0.26,16.17,78.05,0.97,15.82,79.01,0.35,17.84,79.28,-1.23,16.96,78.13,-3.26,17.93,79.28,-2.38,12.21,81.22,0.18,14.4,78.31,3.35,13.52,81.75,-0.09,15.63,79.63,-3.44,14.67,80.96,-1.0,1.0,1.0,-1.0,-1.0,1.0,-1.0,-1.0,-1.0,1.0,-1.0,1.0,-1.0,0.2803,1.0,-1.0,-1.0,1.0,0.006,0.0,0.0,0.013,0.0,0.078,0.006,0.0,0.026,0.0,0.0,0.039,0.013,0.0,0.039,0.0,0.0,0.013,-0.0015,-0.0061,-0.0031,0.0,-0.0077,-0.0077,0.0,-0.0123,-0.0061,0.0046,-0.0061,-0.0046,0.0,-0.0061,0.0015,-0.0046,-0.0061,0.0,-0.0037,0.0,-0.0064,0.0,0.0,-0.0176,0.0,0.0,-0.0112,0.0112,-0.0037,-0.0095,0.0,-0.0101,0.0032,-0.0069,-0.0075,0.0,-0.0226,-0.042,-0.0029,-0.0058,0.012,-1.0,-1.0,-0.3059,-1.0,-1.0,1.0,1.0,-1.0,1.0,1.0,-1.0,1.0,0.221,-1.0,-0.4014,-1.0,-1.0,1.0,0.0,0.0,0.0,0.0,0.0,0.0,0.0,0.0,0.0,0.0,0.0,0.0,0.0,0
0.08,run,3.67,3.09,-0.14,1.7,1.69,0.0,0.0,0.0,0.078,-1.32,16.88,78.31,0.09,13.8,78.49,0.44,15.82,78.22,1.32,15.38,79.37,0.79,17.49,79.01,-1.58,16.52,78.49,-4.76,19.43,80.78,-3.88,10.71,82.72,-1.32,15.9,79.81,4.85,12.02,83.25,-1.59,17.13,81.13,-4.94,13.17,82.46,-0.6523,0.9787,0.4997,-1.0,-1.0,0.9895,-1.0,1.0,1.0,1.0,-1.0,1.0,-0.5559,1.0,1.0,-1.0,-1.0,1.0,0.006,0.0,0.0,0.013,0.0,0.078,0.006,0.0,0.026,0.0,0.0,0.039,0.013,0.0,0.039,0.0,0.0,0.013,-0.0138,-0.0153,-0.0123,-0.0031,-0.0169,-0.0031,0.0015,-0.0215,-0.0046,0.0107,-0.0123,0.0046,0.0077,-0.0138,-0.0061,-0.0138,-0.0123,0.0031,-0.0407,-0.0286,-0.033,-0.0095,-0.0286,0.002,0.0048,-0.0286,-0.0031,0.0269,-0.0217,0.0219,0.0238,-0.0309,-0.0216,-0.0334,-0.0243,0.0095,-0.0295,-0.0408,-0.018,-0.0089,0.046,-1.0,1.0,1.0,-1.0,-1.0,1.0,-1.0,-1.0,-1.0,1.0,-1.0,1.0,-1.0,0.2803,1.0,-1.0,-1.0,1.0,0.0,0.0,0.0,0.0,0.0,0.0,0.0,0.0,0.0,0.0,0.0,0.0,0.0,0
0.12,run,3.58,3.14,-3.27,1.29,-3.88,0.0,0.0,0.0,0.078,-1.85,16.79,78.31,-0.26,13.36,78.93,0.53,15.47,78.22,1.76,14.94,79.72,0.79,17.05,79.1,-2.02,16.17,78.93,-6.26,20.93,79.28,-5.38,9.21,84.22,-2.82,17.4,81.31,6.35,10.52,84.75,-0.09,15.63,79.63,-6.44,11.67,83.96,-1.0,1.0,0.0454,-1.0,-1.0,1.0,-1.0,1.0,1.0,1.0,-1.0,1.0,1.0,0.4595,-1.0,-1.0,-1.0,1.0,0.006,0.026,0.019,0.019,0.0,0.039,0.006,0.033,0.033,0.006,0.006,0.019,0.006,0.0,0.0,0.013,0.0,0.006,-0.0184,-0.0184,-0.0169,-0.0092,-0.0245,0.0046,0.0046,-0.0276,-0.0015,0.0169,-0.0199,0.0107,0.0153,-0.0199,-0.0107,-0.0199,-0.0199,0.0092,-0.0456,-0.0314,-0.0402,-0.0295,-0.0485,0.0299,0.0147,-0.0428,0.0093,0.0416,-0.0437,0.0382,0.0452,-0.0444,-0.0322,-0.0462,-0.0455,0.0295,-0.0328,-0.033,-0.0024,0.0296,0.0295,-0.6523,0.9787,0.4997,-1.0,-1.0,0.9895,-1.0,1.0,1.0,1.0,-1.0,1.0,-0.5559,1.0,1.0,-1.0,-1.0,1.0,0.0,0.0,0.0,0.0,0.0,0.0,0.0,0.0,0.0,0.0,0.0,0.0,0.0,0
0.16,run,3.49,3.14,-2.54,0.23,-3.59,0.0,0.0,0.0,0.078,-2.02,16.79,78.31,-0.7,13.01,79.37,0.53,15.47,78.31,2.11,14.77,80.16,0.09,16.79,79.54,-2.37,15.82,79.19,-7.76,22.43,77.78,-6.88,7.71,85.72,-4.32,15.9,79.81,7.85,9.02,86.25,1.41,14.13,81.13,-7.94,10.17,85.46,-1.0,1.0,0.1409,-1.0,-0.7516,1.0,-0.296,0.7252,-0.3582,1.0,-1.0,1.0,1.0,0.6357,1.0,-1.0,-1.0,1.0,0.006,0.026,0.019,0.019,0.0,0.039,0.006,0.033,0.033,0.006,0.006,0.019,0.006,0.0,0.0,0.013,0.0,0.006,-0.0276,-0.0199,-0.0169,-0.0153,-0.0322,0.0123,0.0061,-0.0337,-0.0015,0.0245,-0.0276,0.0169,0.0153,-0.0276,-0.0092,-0.0276,-0.0261,0.0169,-0.0663,-0.0277,-0.0282,-0.0435,-0.0626,0.0495,0.016,-0.0529,0.0065,0.0578,-0.0592,0.0496,0.0316,-0.0597,-0.0168,-0.061,-0.0547,0.0492,-0.0408,-0.0291,-0.057,0.0225,-0.0676,-1.0,1.0,0.0454,-1.0,-1.0,1.0,-1.0,1.0,1.0,1.0,-1.0,1.0,1.0,0.4595,-1.0,-1.0,-1.0,1.0,0.0,0.0,0.0,0.0,0.0,0.0,0.0,0.0,0.0,0.0,0.0,0.0,0.0,0
0.2,run,3.18,3.15,-7.59,-1.15,-2.2,0.0,0.0,0.0,0.078,-2.9,17.23,78.49,-1.23,12.48,80.07,0.09,15.47,78.75,2.9,14.06,80.77,0.09,15.91,79.89,-3.16,15.21,79.8,-9.26,23.93,79.28,-8.38,6.21,87.22,-5.82,17.4,81.31,9.35,7.52,87.75,2.91,12.63,82.63,-9.44,8.67,86.96,-1.0,1.0,0.7886,-1.0,-1.0,1.0,-1.0,1.0,0.7078,1.0,-1.0,1.0,1.0,-0.1615,1.0,-1.0,-1.0,1.0,0.006,0.026,0.019,0.019,0.0,0.039,0.006,0.033,0.033,0.006,0.006,0.019,0.006,0.0,0.0,0.013,0.0,0.006,-0.0307,-0.0199,-0.0169,-0.023,-0.0383,0.0199,0.0061,-0.0337,0.0,0.0307,-0.0307,0.0245,0.0031,-0.0322,-0.0015,-0.0337,-0.0322,0.0215,-0.058,-0.0194,-0.0197,-0.0596,-0.0671,0.0638,0.0112,-0.037,0.0104,0.0637,-0.0531,0.0638,-0.0244,-0.0593,0.0173,-0.066,-0.0616,0.0519,-0.0486,-0.0286,-0.0444,0.0041,-0.0627,-1.0,1.0,0.1409,-1.0,-0.7516,1.0,-0.296,0.7252,-0.3582,1.0,-1.0,1.0,1.0,0.6357,1.0,-1.0,-1.0,1.0,0.0,0.0,0.0,0.0,0.0,0.0,0.0,0.0,0.0,0.0,0.0,0.0,0.0,0
0.24,run,2.81,3.21,-9.34,0.33,-7.17,0.0,0.0,0.0,0.175,-3.87,18.02,78.49,-2.2,11.6,81.04,-1.05,15.56,79.19,3.78,13.1,81.74,0.35,15.03,80.51,-4.13,14.33,80.6,-10.76,25.43,80.73,-9.88,4.71,88.72,-4.32,15.9,82.81,10.85,6.02,89.25,4.41,11.13,84.13,-10.94,7.17,88.46,-1.0,1.0,0.185,-1.0,0.0933,1.0,0.3507,0.658,0.2182,1.0,-1.0,1.0,1.0,-0.3965,0.5079,-1.0,-1.0,1.0,0.006,0.136,0.026,0.026,0.0,0.065,0.045,0.175,0.045,0.019,0.0,0.039,0.006,0.0,0.0,0.006,0.006,0.026,-0.046,-0.0123,-0.0138,-0.0322,-0.0476,0.0322,-0.0015,-0.0337,0.0077,0.0445,-0.043,0.0353,0.0031,-0.0476,0.0046,-0.0476,-0.043,0.0322,-0.0977,0.015,-0.0024,-0.076,-0.0812,0.0903,-0.0207,-0.0259,0.0358,0.096,-0.0828,0.0847,-0.0171,-0.0986,0.035,-0.0976,-0.0831,0.0763,-0.0763,-0.028,-0.1326,-0.02,-0.0385,-1.0,1.0,0.7886,-1.0,-1.0,1.0,-1.0,1.0,0.7078,1.0,-1.0,1.0,1.0,-0.1615,1.0,-1.0,-1.0,1.0,0.0,0.0,0.0,0.0,0.0,0.0,0.0,0.0,0.0,0.0,0.0,0.0,0.0,0
0.28,run,2.18,3.23,-11.58,-0.44,-7.88,0.0,0.0,0.0,0.175,-5.8,19.6,78.57,-4.04,10.02,83.06,-2.37,15.91,80.24,5.45,11.34,83.67,1.58,13.18,82.0,-6.06,12.57,82.27,-12.26,26.93,82.23,-11.38,3.21,90.22,-5.82,14.4,81.31,12.35,4.52,90.75,5.91,9.63,85.63,-12.44,5.67,89.96,-1.0,1.0,1.0,-1.0,0.2321,0.6359,-0.4452,-1.0,-1.0,1.0,-1.0,1.0,1.0,-0.2412,1.0,-1.0,-1.0,1.0,0.006,0.136,0.026,0.026,0.0,0.065,0.045,0.175,0.045,0.019,0.0,0.039,0.006,0.0,0.0,0.006,0.006,0.026,-0.0629,0.0015,-0.0138,-0.0491,-0.0629,0.0491,-0.0215,-0.0322,0.0153,0.0598,-0.0598,0.0522,0.0077,-0.0629,0.0153,-0.0644,-0.0583,0.046,-0.1317,0.0623,-0.0017,-0.1165,-0.1144,0.1265,-0.0893,-0.0124,0.0538,0.1247,-0.1213,0.1225,0.0053,-0.1265,0.0647,-0.1316,-0.1157,0.1052,-0.1083,-0.0229,-0.1629,0.0058,-0.1251,-1.0,1.0,0.185,-1.0,0.0933,1.0,0.3507,0.658,0.2182,1.0,-1.0,1.0,1.0,-0.3965,0.5079,-1.0,-1.0,1.0,0.0,0.0,0.0,0.0,0.0,0.0,0.0,0.0,0.0,0.0,0.0,0.0,0.0,0
0.32,run,1.8,3.33,-10.43,2.19,-7.18,0.0,0.0,0.0,0.175,-7.03,20.65,79.19,-5.54,8.7,84.73,-3.25,15.91,81.12,7.12,9.93,85.17,2.64,12.04,83.06,-7.47,11.25,83.67,-10.76,25.43,80.73,-12.88,1.71,88.72,-7.32,15.9,79.81,13.85,3.02,92.25,7.41,8.13,87.13,-13.94,4.17,91.46,-0.1273,-0.9083,0.0341,-1.0,0.4043,-1.0,-1.0,1.0,-1.0,1.0,-1.0,1.0,0.7662,-0.2292,1.0,-1.0,-1.0,1.0,0.006,0.136,0.026,0.026,0.0,0.065,0.045,0.175,0.045,0.019,0.0,0.039,0.006,0.0,0.0,0.006,0.006,0.026,-0.0966,0.0291,-0.0123,-0.0813,-0.0905,0.0844,-0.0445,-0.0261,0.0337,0.089,-0.0905,0.0859,0.0291,-0.0951,0.0414,-0.0982,-0.089,0.0752,-0.179,0.1146,0.0028,-0.1643,-0.1511,0.1793,-0.1217,0.0071,0.085,0.1623,-0.1638,0.1725,0.0589,-0.1714,0.1124,-0.1789,-0.1599,0.1486,-0.1634,-0.0209,-0.2021,-0.0077,-0.1374,-1.0,1.0,1.0,-1.0,0.2321,0.6359,-0.4452,-1.0,-1.0,1.0,-1.0,1.0,1.0,-0.2412,1.0,-1.0,-1.0,1.0,0.0,0.0,0.0,0.0,0.0,0.0,0.0,0.0,0.0,0.0,0.0,0.0,0.0,0
0.36,run,1.45,3.24,-10.08,-1.16,-6.59,0.0,0.0,0.0,0.208,-8.35,21.71,79.63,-6.94,7.47,86.04,-4.13,15.56,81.74,8.44,8.53,86.57,3.96,10.81,84.29,-8.79,9.76,84.99,-12.26,23.93,82.23,-14.38,3.21,90.22,-8.82,14.4,78.31,15.35,1.52,93.75,8.91,6.63,88.63,-15.44,2.67,92.96,-1.0,0.6695,0.8743,-1.0,1.0,1.0,-1.0,0.4323,-0.3948,1.0,-1.0,1.0,0.4354,0.4935,1.0,-1.0,-1.0,1.0,0.006,0.208,0.078,0.019,0.006,0.019,0.052,0.019,0.013,0.019,0.0,0.033,0.026,0.0,0.0,0.019,0.0,0.033,-0.1181,0.0476,-0.0015,-0.1074,-0.1135,0.1135,-0.0598,-0.0261,0.0491,0.1181,-0.115,0.112,0.0476,-0.115,0.0598,-0.1227,-0.112,0.0997,-0.2055,0.149,0.0421,-0.2125,-0.1917,0.2344,-0.1425,0.005,0.1168,0.2225,-0.2064,0.2183,0.11,-0.1945,0.1475,-0.2169,-0.1979,0.1957,-0.1965,-0.0127,-0.182,0.0383,-0.1253,-0.1273,-0.9083,0.0341,-1.0,0.4043,-1.0,-1.0,1.0,-1.0,1.0,-1.0,1.0,0.7662,-0.2292,1.0,-1.0,-1.0,1.0,0.0,0.0,0.0,0.0,0.0,0.0,0.0,0.0,0.0,0.0,0.0,0.0,0.0,0
0.4,run,1.09,2.99,-2.01,-1.57,-5.42,0.0,0.0,0.0,0.208,-11.87,23.82,80.68,-12.3,3.96,90.0,-7.65,13.97,81.3,13.54,3.25,92.02,8.09,6.86,88.24,-14.06,4.39,90.53,-13.76,22.43,80.73,-15.88,4.71,88.72,-10.32,15.9,76.81,16.85,0.02,95.25,10.41,5.13,90.13,-16.94,1.17,94.46,-0.7331,-1.0,-0.9928,-1.0,1.0,-1.0,-1.0,1.0,0.1104,1.0,-1.0,1.0,1.0,-0.4752,1.0,-1.0,-1.0,1.0,0.019,0.143,0.052,0.013,0.0,0.006,0.033,0.039,0.019,0.013,0.006,0.013,0.019,0.0,0.006,0.006,0.006,0.019,-0.1411,0.066,0.0061,-0.1319,-0.135,0.1365,-0.0752,-0.0322,0.0598,0.1411,-0.1396,0.1365,0.0706,-0.1365,0.0813,-0.1457,-0.1381,0.1227,-0.2299,0.1731,0.0581,-0.2405,-0.2145,0.2501,-0.1571,-0.0194,0.1219,0.2418,-0.2362,0.2445,0.163,-0.2164,0.1835,-0.2379,-0.236,0.223,-0.2265,-0.0197,-0.176,-0.0203,-0.1149,-1.0,0.6695,0.8743,-1.0,1.0,1.0,-1.0,0.4323,-0.3948,1.0,-1.0,1.0,0.4354,0.4935,1.0,-1.0,-1.0,1.0,0.0,0.0,0.0,0.0,0.0,0.0,0.0,0.0,0.0,0.0,0.0,0.0,0.0,0
0.44,run,0.84,2.94,-5.42,-1.15,-6.7,0.0,0.0,0.0,0.208,-12.22,23.82,80.68,-13.27,3.6,90.09,-7.91,13.89,80.07,14.5,2.37,92.99,8.61,6.33,88.86,-15.03,3.52,91.58,-15.26,20.93,82.23,-17.38,6.21,87.22,-8.82,14.4,75.31,18.35,-1.48,96.75,8.91,6.32,91.63,-18.44,-0.33,95.96,-1.0,-0.6579,1.0,-1.0,1.0,-0.7279,-0.1933,-0.8851,-1.0,1.0,-1.0,1.0,-0.1515,0.5695,1.0,-1.0,-1.0,1.0,0.019,0.143,0.052,0.013,0.0,0.006,0.033,0.039,0.019,0.013,0.006,0.013,0.019,0.0,0.006,0.006,0.006,0.019,-0.2025,0.1028,0.0245,-0.2255,-0.1963,0.2056,-0.1365,-0.0598,0.0522,0.2301,-0.2316,0.2316,0.1427,-0.2056,0.1503,-0.2378,-0.2316,0.2194,-0.2179,0.1553,0.0578,-0.2552,-0.2071,0.2391,-0.1669,-0.0392,0.0782,0.2518,-0.2508,0.2594,0.181,-0.2156,0.1925,-0.2519,-0.2521,0.2458,-0.2582,-0.0417,-0.035,-0.0274,-0.0945,-0.7331,-1.0,-0.9928,-1.0,1.0,-1.0,-1.0,1.0,0.1104,1.0,-1.0,1.0,1.0,-0.4752,1.0,-1.0,-1.0,1.0,0.0,0.0,0.0,0.0,0.0,0.0,0.0,0.0,0.0,0.0,0.0,0.0,0.0,0
0.48,run,0.64,2.83,-5.27,-2.84,-7.09,0.0,0.0,0.0,0.208,-12.83,23.82,80.68,-14.33,3.69,89.74,-8.44,13.97,79.1,15.47,1.32,94.04,9.14,5.45,89.74,-16.0,2.46,92.64,-16.76,19.43,83.73,-18.88,7.71,85.72,-10.32,15.9,76.81,19.85,-2.98,98.25,7.41,4.82,93.13,-19.94,-1.83,97.46,-1.0,-1.0,0.4199,-1.0,0.9597,-1.0,-1.0,1.0,1.0,1.0,-1.0,1.0,-0.8559,-0.665,1.0,-1.0,-1.0,0.7336,0.019,0.143,0.052,0.013,0.0,0.006,0.033,0.039,0.019,0.013,0.006,0.013,0.019,0.0,0.006,0.006,0.006,0.019,-0.2086,0.1028,0.0245,-0.2424,-0.2025,0.2071,-0.1411,-0.0614,0.0307,0.247,-0.247,0.2485,0.1519,-0.2148,0.1611,-0.2546,-0.247,0.2378,-0.1758,0.1087,0.0404,-0.2426,-0.1682,0.1732,-0.1343,-0.0333,-0.0267,0.2403,-0.2337,0.2456,0.1616,-0.1858,0.1755,-0.2404,-0.2346,0.2419,-0.2798,-0.0461,-0.0946,-0.02,-0.1169,-1.0,-0.6579,1.0,-1.0,1.0,-0.7279,-0.1933,-0.8851,-1.0,1.0,-1.0,1.0,-0.1515,0.5695,1.0,-1.0,-1.0,1.0,0.0,0.0,0.0,0.0,0.0,0.0,0.0,0.0,0.0,0.0,0.0,0.0,0.0,0
0.52,run,0.4,3.04,-4.08,1.76,-3.19,0.0,0.0,0.0,0.208,-13.71,23.55,80.68,-15.47,4.04,89.21,-8.96,14.33,77.87,16.61,0.18,95.27,9.67,5.01,90.7,-17.14,1.41,93.78,-18.26,17.93,82.23,-20.38,9.21,84.22,-11.82,14.4,78.31,21.35,-4.48,99.75,5.91,3.32,94.63,-21.44,-3.33,95.96,-1.0,-1.0,-0.0866,-1.0,1.0,-0.7214,-1.0,-0.9908,1.0,1.0,-1.0,1.0,-1.0,-0.2561,1.0,-1.0,-1.0,0.2362,0.039,0.0,0.033,0.026,0.019,0.013,0.045,0.091,0.019,0.052,0.006,0.019,0.019,0.0,0.006,0.019,0.006,0.019,-0.2194,0.1028,0.0245,-0.2608,-0.201,0.201,-0.1503,-0.0598,0.0138,0.2638,-0.2654,0.2669,0.1611,-0.2301,0.1764,-0.2715,-0.2654,0.2562,-0.163,0.0761,0.0283,-0.2383,-0.1121,0.0984,-0.1282,-0.0176,-0.0815,0.231,-0.2321,0.2404,0.1474,-0.1871,0.1799,-0.231,-0.2327,0.2378,-0.2973,-0.056,-0.0919,-0.0495,-0.1237,-1.0,-1.0,0.4199,-1.0,0.9597,-1.0,-1.0,1.0,1.0,1.0,-1.0,1.0,-0.8559,-0.665,1.0,-1.0,-1.0,0.7336,0.0,0.0,0.0,0.0,0.0,0.0,0.0,0.0,0.0,0.0,0.0,0.0,0.0,0
0.56,run,0.39,3.26,-0.34,3.58,-10.13,0.0,0.0,0.0,0.208,-14.94,22.32,80.68,-16.79,4.57,88.07,-9.58,14.59,77.17,17.93,-1.05,96.59,9.84,4.31,91.93,-18.54,0.0,95.01,-19.76,16.43,80.73,-21.88,10.71,82.72,-13.32,12.9,79.81,22.85,-5.98,101.25,4.41,1.82,96.13,-22.94,-4.83,94.46,-1.0,-1.0,0.1199,-1.0,1.0,-0.9746,-1.0,0.4153,1.0,1.0,-1.0,1.0,-1.0,-1.0,1.0,-1.0,-1.0,-0.8561,0.039,0.0,0.033,0.026,0.019,0.013,0.045,0.091,0.019,0.052,0.006,0.019,0.019,0.0,0.006,0.019,0.006,0.019,-0.2347,0.0982,0.0245,-0.2807,-0.1948,0.1917,-0.1595,-0.0537,-0.0077,0.2838,-0.2853,0.2884,0.1703,-0.2378,0.1933,-0.2915,-0.2838,0.2761,-0.1714,0.0361,0.0198,-0.2413,-0.0555,0.0345,-0.1242,0.0106,-0.1373,0.2362,-0.237,0.2485,0.1376,-0.1597,0.189,-0.2362,-0.2317,0.241,-0.3188,-0.0379,-0.0711,0.0307,-0.0556,-1.0,-1.0,-0.0866,-1.0,1.0,-0.7214,-1.0,-0.9908,1.0,1.0,-1.0,1.0,-1.0,-0.2561,1.0,-1.0,-1.0,0.2362,0.0,0.0,0.0,0.0,0.0,0.0,0.0,0.0,0.0,0.0,0.0,0.0,0.0,0
0.6,run,0.18,3.37,-5.47,2.38,-13.88,0.0,0.0,0.0,0.208,-16.26,21.18,80.77,-18.02,5.71,86.84,-10.37,14.59,76.55,19.34,-2.29,98.0,9.32,3.43,93.25,-19.86,-1.23,95.98,-21.26,14.93,79.23,-23.38,9.21,81.22,-14.82,11.4,81.31,24.35,-7.48,102.75,2.91,0.32,97.63,-21.44,-6.33,92.96,-1.0,0.0321,-0.6444,-1.0,0.1564,-0.214,-1.0,-1.0,1.0,1.0,-0.624,1.0,-1.0,-0.5505,1.0,1.0,-1.0,-1.0,0.039,0.0,0.033,0.026,0.019,0.013,0.045,0.091,0.019,0.052,0.006,0.019,0.019,0.0,0.006,0.019,0.006,0.019,-0.2562,0.0767,0.0245,-0.3037,-0.1856,0.1718,-0.1703,-0.0491,-0.0199,0.3068,-0.3068,0.3114,0.1733,-0.25,0.2148,-0.316,-0.3083,0.2976,-0.2012,-0.056,0.0139,-0.256,-0.004,-0.0513,-0.1275,0.0248,-0.1425,0.2524,-0.2471,0.261,0.1079,-0.1582,0.2135,-0.2582,-0.255,0.2499,-0.3197,-0.0184,-0.0059,0.0624,-0.1768,-1.0,-1.0,0.1199,-1.0,1.0,-0.9746,-1.0,0.4153,1.0,1.0,-1.0,1.0,-1.0,-1.0,1.0,-1.0,-1.0,-0.8561,0.0,0.0,0.0,0.0,0.0,0.0,0.0,0.0,0.0,0.0,0.0,0.0,0.0,0
0.64,run,-0.03,3.48,-3.53,3.07,-14.19,0.0,0.0,0.0,0.208,-17.75,19.78,80.77,-19.25,7.03,85.34,-11.51,14.59,76.38,20.83,-3.78,99.4,8.79,2.29,94.75,-20.92,-2.55,96.68,-22.76,16.43,80.73,-24.88,7.71,79.72,-16.32,12.9,82.81,25.85,-8.98,104.25,1.41,-1.18,99.13,-19.94,-7.83,91.46,-1.0,1.0,1.0,-1.0,-0.6783,-0.6732,-1.0,1.0,1.0,1.0,-1.0,0.7504,-1.0,-1.0,1.0,0.9203,-1.0,-1.0,0.026,0.0,0.013,0.026,0.026,0.013,0.033,0.0,0.0,0.019,0.006,0.013,0.019,0.0,0.0,0.013,0.006,0.0,-0.2792,0.0568,0.0261,-0.3252,-0.1657,0.1503,-0.1841,-0.0491,-0.0307,0.3313,-0.3283,0.3359,0.1641,-0.2654,0.2378,-0.339,-0.3298,0.3145,-0.2267,-0.1136,0.0154,-0.2593,0.0716,-0.1161,-0.1408,0.0174,-0.1398,0.2683,-0.2531,0.2743,0.0412,-0.168,0.2354,-0.2666,-0.2587,0.2379,-0.338,-0.0089,-0.0954,0.0415,-0.2422,-1.0,0.0321,-0.6444,-1.0,0.1564,-0.214,-1.0,-1.0,1.0,1.0,-0.624,1.0,-1.0,-0.5505,1.0,1.0,-1.0,-1.0,0.0,0.0,0.0,0.0,0.0,0.0,0.0,0.0,0.0,0.0,0.0,0.0,0.0,0
0.68,run,-0.17,3.49,-0.89,0.67,-13.85,0.0,0.0,0.0,0.208,-19.51,18.11,80.77,-21.01,8.17,83.58,-13.1,13.45,76.38,22.41,-5.45,101.16,7.65,0.79,96.5,-22.06,-4.22,97.47,-24.26,17.93,79.23,-26.38,6.21,78.22,-17.82,11.4,84.31,27.35,-10.48,105.75,-0.09,-2.68,100.63,-18.44,-9.33,89.96,-1.0,1.0,0.0449,-1.0,-0.6347,-0.7714,-1.0,-0.7943,1.0,1.0,-0.8111,1.0,-1.0,-1.0,0.7563,1.0,-1.0,-1.0,0.026,0.0,0.013,0.026,0.026,0.013,0.033,0.0,0.0,0.019,0.006,0.013,0.019,0.0,0.0,0.013,0.006,0.0,-0.3053,0.0322,0.0261,-0.3467,-0.1427,0.1243,-0.204,-0.0491,-0.0337,0.3574,-0.3543,0.3605,0.1549,-0.2853,0.2638,-0.3574,-0.3528,0.3267,-0.256,-0.1711,0.0108,-0.2616,0.1359,-0.1785,-0.1729,0.0122,-0.1093,0.2851,-0.2745,0.2836,-0.0055,-0.192,0.262,-0.2553,-0.2669,0.2123,-0.3562,0.0006,-0.0617,0.0535,-0.2476,-1.0,1.0,1.0,-1.0,-0.6783,-0.6732,-1.0,1.0,1.0,1.0,-1.0,0.7504,-1.0,-1.0,1.0,0.9203,-1.0,-1.0,0.0,0.0,0.0,0.0,0.0,0.0,0.0,0.0,0.0,0.0,0.0,0.0,0.0,0
0.72,run,-0.22,3.47,0.65,-1.22,-16.92,0.0,0.0,0.0,0.208,-20.74,17.31,80.33,-22.15,8.88,82.27,-14.33,12.83,76.82,23.73,-6.68,102.39,6.24,-0.35,97.73,-22.68,-5.19,97.29,-25.76,19.43,80.73,-27.88,4.71,76.72,-19.32,12.9,85.81,28.85,-11.98,104.25,-1.59,-4.18,102.13,-16.94,-10.83,88.46,-1.0,1.0,1.0,-1.0,-1.0,-0.5389,-1.0,1.0,1.0,1.0,-0.5811,0.3084,-1.0,-1.0,1.0,1.0,-1.0,-1.0,0.026,0.0,0.013,0.026,0.026,0.013,0.033,0.0,0.0,0.019,0.006,0.013,0.019,0.0,0.0,0.013,0.006,0.0,-0.3359,0.0031,0.0261,-0.3774,-0.1227,0.0936,-0.2316,-0.069,-0.0337,0.385,-0.3835,0.3912,0.135,-0.3114,0.2945,-0.3774,-0.382,0.3405,-0.2735,-0.2093,0.0076,-0.2774,0.1565,-0.2192,-0.2059,-0.0528,-0.0765,0.2844,-0.2817,0.2928,-0.0651,-0.2145,0.2777,-0.24,-0.2764,0.1911,-0.3683,0.0013,-0.0156,0.0117,-0.2418,-1.0,1.0,0.0449,-1.0,-0.6347,-0.7714,-1.0,-0.7943,1.0,1.0,-0.8111,1.0,-1.0,-1.0,0.7563,1.0,-1.0,-1.0,0.0,0.0,0.0,0.0,0.0,0.0,0.0,0.0,0.0,0.0,0.0,0.0,0.0,0
0.76,run,-0.46,3.42,-4.41,-1.23,-19.04,0.0,0.0,0.0,0.208,-22.15,16.7,80.07,-23.64,9.32,80.68,-15.64,12.39,77.52,25.14,-8.09,103.62,4.92,-1.67,99.23,-22.85,-6.42,96.59,-27.26,20.93,82.23,-29.38,3.21,78.22,-20.82,11.4,87.31,30.35,-10.48,102.75,-3.09,-5.68,103.63,-15.44,-12.33,86.96,-1.0,1.0,0.7407,-1.0,-1.0,0.8511,-1.0,0.1609,1.0,1.0,1.0,0.074,-1.0,-1.0,0.6185,1.0,-1.0,-1.0,0.033,0.0,0.0,0.026,0.006,0.006,0.026,0.0,0.026,0.026,0.006,0.006,0.006,0.0,0.0,0.013,0.019,0.013,-0.3574,-0.0107,0.0184,-0.3973,-0.1104,0.0706,-0.2531,-0.0798,-0.0261,0.408,-0.405,0.4126,0.1104,-0.3313,0.316,-0.3881,-0.3988,0.3375,-0.2709,-0.1976,-0.0231,-0.268,0.1549,-0.2386,-0.2236,-0.0767,-0.0252,0.2843,-0.2767,0.2845,-0.1365,-0.224,0.2739,-0.2077,-0.2559,0.1224,-0.3728,0.0003,0.0113,-0.0212,-0.2953,-1.0,1.0,1.0,-1.0,-1.0,-0.5389,-1.0,1.0,1.0,1.0,-0.5811,0.3084,-1.0,-1.0,1.0,1.0,-1.0,-1.0,0.0,0.0,0.0,0.0,0.0,0.0,0.0,0.0,0.0,0.0,0.0,0.0,0.0,0
0.8,run,-0.74,3.32,-6.72,-2.36,-17.05,0.0,0.0,0.0,0.208,-23.55,16.26,79.98,-25.05,9.49,79.37,-16.96,11.69,78.4,26.63,-9.4,104.59,3.52,-3.08,100.63,-22.85,-8.0,95.71,-25.76,22.43,83.73,-30.88,1.71,79.72,-19.32,12.9,88.81,31.85,-8.98,101.25,-4.59,-7.18,105.13,-13.94,-13.83,85.46,0.7596,1.0,1.0,-1.0,-0.2785,1.0,-0.364,1.0,1.0,1.0,1.0,-1.0,-1.0,-1.0,1.0,1.0,-1.0,-1.0,0.033,0.0,0.0,0.026,0.006,0.006,0.026,0.0,0.026,0.026,0.006,0.006,0.006,0.0,0.0,0.013,0.019,0.013,-0.382,-0.0215,0.0138,-0.4234,-0.1028,0.043,-0.2761,-0.0874,-0.0138,0.4326,-0.4295,0.4341,0.0874,-0.3543,0.3421,-0.3912,-0.4203,0.3252,-0.282,-0.1787,-0.0335,-0.2857,0.1373,-0.2709,-0.2431,-0.0825,0.0285,0.2913,-0.286,0.2799,-0.1821,-0.2433,0.2898,-0.157,-0.2599,0.0395,-0.3934,-0.0042,-0.077,-0.0215,-0.3322,-1.0,1.0,0.7407,-1.0,-1.0,0.8511,-1.0,0.1609,1.0,1.0,1.0,0.074,-1.0,-1.0,0.6185,1.0,-1.0,-1.0,0.0,0.0,0.0,0.0,0.0,0.0,0.0,0.0,0.0,0.0,0.0,0.0,0.0,0
0.84,run,-0.92,3.23,-3.37,-3.49,-14.84,0.0,0.0,0.0,0.208,-24.7,16.08,79.98,-26.46,9.4,78.4,-18.19,11.16,79.98,27.95,-10.46,105.21,2.37,-4.39,101.95,-21.88,-9.32,94.57,-24.26,20.93,85.23,-32.38,0.21,78.22,-17.82,11.4,90.31,33.35,-7.48,99.75,-6.09,-8.68,103.63,-12.44,-12.33,83.96,1.0,0.4419,1.0,-1.0,-0.3474,-0.5602,1.0,0.5981,1.0,1.0,1.0,-1.0,-1.0,-1.0,-1.0,1.0,0.3558,-1.0,0.033,0.0,0.0,0.026,0.006,0.006,0.026,0.0,0.026,0.026,0.006,0.006,0.006,0.0,0.0,0.013,0.019,0.013,-0.4065,-0.0291,0.0123,-0.4479,-0.0997,0.0199,-0.2991,-0.0997,0.0015,0.4587,-0.4525,0.451,0.0629,-0.3789,0.3666,-0.3912,-0.4479,0.3099,-0.2896,-0.1539,-0.0292,-0.2922,0.1076,-0.2761,-0.2566,-0.1039,0.0776,0.3019,-0.2866,0.2593,-0.2196,-0.2625,0.2951,-0.1099,-0.2857,-0.03,-0.4183,-0.0134,-0.1174,-0.0412,-0.2976,0.7596,1.0,1.0,-1.0,-0.2785,1.0,-0.364,1.0,1.0,1.0,1.0,-1.0,-1.0,-1.0,1.0,1.0,-1.0,-1.0,0.0,0.0,0.0,0.0,0.0,0.0,0.0,0.0,0.0,0.0,0.0,0.0,0.0,0
0.88,run,-1.11,3.57,-2.86,9.47,-9.84,0.0,0.0,0.0,0.208,-25.66,16.0,80.24,-27.95,8.79,77.61,-19.16,11.07,81.3,29.27,-11.16,105.56,0.79,-5.89,103.18,-21.09,-10.63,93.25,-25.76,19.43,86.73,-33.88,-1.29,76.72,-16.32,12.9,91.81,34.85,-5.98,98.25,-7.59,-10.18,102.13,-10.94,-10.83,82.46,-1.0,-0.7738,1.0,-1.0,-0.2732,-0.9909,1.0,1.0,1.0,1.0,1.0,-1.0,-1.0,-1.0,-1.0,1.0,1.0,-1.0,0.019,0.117,0.065,0.026,0.006,0.006,0.019,0.033,0.026,0.045,0.0,0.006,0.006,0.0,0.0,0.019,0.019,0.019,-0.4264,-0.0322,0.0123,-0.4725,-0.1012,0.0031,-0.3206,-0.1089,0.0291,0.4817,-0.4709,0.4617,0.043,-0.4019,0.3896,-0.3743,-0.4709,0.2899,-0.2774,-0.1192,-0.0204,-0.2964,0.0696,-0.2564,-0.26,-0.1072,0.1577,0.2974,-0.2696,0.2217,-0.2284,-0.2699,0.2927,-0.0137,-0.2861,-0.0956,-0.4342,-0.021,-0.0589,-0.0609,-0.259,1.0,0.4419,1.0,-1.0,-0.3474,-0.5602,1.0,0.5981,1.0,1.0,1.0,-1.0,-1.0,-1.0,-1.0,1.0,0.3558,-1.0,0.0,0.0,0.0,0.0,0.0,0.0,0.0,0.0,0.0,0.0,0.0,0.0,0.0,0
0.92,run,-1.24,4.02,-0.71,10.47,-7.19,0.0,0.0,0.0,0.208,-26.46,16.08,81.3,-29.71,7.65,76.99,-19.95,10.99,83.06,30.94,-11.78,105.47,-0.88,-7.65,104.24,-19.51,-11.95,91.58,-27.26,17.93,88.23,-35.0,0.21,78.22,-14.82,11.4,93.31,35.0,-4.48,96.75,-9.09,-11.68,100.63,-9.44,-9.33,80.96,-1.0,0.184,1.0,-1.0,1.0,1.0,1.0,-1.0,1.0,1.0,1.0,-0.2214,-1.0,-1.0,0.0382,1.0,1.0,-1.0,0.019,0.117,0.065,0.026,0.006,0.006,0.019,0.033,0.026,0.045,0.0,0.006,0.006,0.0,0.0,0.019,0.019,0.019,-0.4433,-0.0337,0.0169,-0.4985,-0.112,-0.0107,-0.3375,-0.1104,0.0522,0.5047,-0.4832,0.4679,0.0153,-0.428,0.4111,-0.3605,-0.4939,0.2669,-0.2574,-0.0892,0.0029,-0.3053,0.0085,-0.2313,-0.2453,-0.0808,0.1967,0.2945,-0.2347,0.1782,-0.2634,-0.2867,0.2854,0.0421,-0.2866,-0.1532,-0.4502,0.0083,-0.05,0.1653,-0.1718,-1.0,-0.7738,1.0,-1.0,-0.2732,-0.9909,1.0,1.0,1.0,1.0,1.0,-1.0,-1.0,-1.0,-1.0,1.0,1.0,-1.0,0.0,0.0,0.0,0.0,0.0,0.0,0.0,0.0,0.0,0.0,0.0,0.0,0.0,0
0.96,run,-1.45,4.14,-4.19,6.09,-3.94,0.0,0.0,0.0,0.208,-26.72,16.26,82.09,-30.76,7.12,76.73,-20.21,10.99,84.02,31.9,-11.78,104.85,-1.85,-8.53,104.68,-18.37,-12.48,90.62,-28.76,16.43,89.73,-35.0,1.71,76.72,-13.32,9.9,94.81,35.0,-2.98,95.25,-10.59,-13.18,102.13,-7.94,-7.83,79.46,-1.0,-0.3061,1.0,-1.0,1.0,-1.0,1.0,-1.0,1.0,1.0,0.9902,-1.0,-1.0,-1.0,0.9689,1.0,1.0,-1.0,0.019,0.117,0.065,0.026,0.006,0.006,0.019,0.033,0.026,0.045,0.0,0.006,0.006,0.0,0.0,0.019,0.019,0.019,-0.4571,-0.0322,0.0353,-0.5292,-0.1319,-0.0215,-0.3513,-0.112,0.0828,0.5338,-0.4939,0.4663,-0.0138,-0.4587,0.4295,-0.3329,-0.517,0.2378,-0.2219,-0.0578,0.0577,-0.3064,-0.0543,-0.1943,-0.2134,-0.0612,0.2303,0.2942,-0.1967,0.1201,-0.2724,-0.2934,0.2554,0.1129,-0.2701,-0.1953,-0.4613,0.0478,-0.0124,0.1827,-0.1255,-1.0,0.184,1.0,-1.0,1.0,1.0,1.0,-1.0,1.0,1.0,1.0,-0.2214,-1.0,-1.0,0.0382,1.0,1.0,-1.0,0.0,0.0,0.0,0.0,0.0,0.0,0.0,0.0,0.0,0.0,0.0,0.0,0.0,0
1.0,run,-1.54,4.26,-1.24,4.58,4.21,0.0,0.0,0.0,0.227,-26.98,16.44,83.23,-32.17,5.71,76.82,-20.3,10.99,85.34,33.05,-11.78,104.15,-3.25,-9.93,104.85,-17.05,-13.01,89.3,-30.26,14.93,91.23,-35.0,3.21,75.22,-11.82,8.4,96.31,35.0,-1.48,93.75,-12.09,-14.68,100.63,-6.44,-6.33,77.96,-1.0,-0.7811,1.0,-1.0,1.0,-1.0,1.0,-1.0,1.0,1.0,1.0,-0.5911,-1.0,-1.0,0.4177,1.0,1.0,-1.0,0.039,0.227,0.117,0.013,0.013,0.006,0.006,0.052,0.039,0.026,0.039,0.039,0.026,0.0,0.0,0.026,0.006,0.033,-0.4617,-0.0291,0.0491,-0.5476,-0.1411,-0.0261,-0.3559,-0.112,0.0997,0.5507,-0.4939,0.4556,-0.0307,-0.474,0.4372,-0.3129,-0.5262,0.2209,-0.1783,-0.0252,0.1092,-0.3062,-0.0839,-0.159,-0.1723,-0.0428,0.2454,0.2901,-0.1377,0.0305,-0.2748,-0.2819,0.217,0.1785,-0.235,-0.2208,-0.4796,0.0581,-0.0731,0.1063,-0.0688,-1.0,-0.3061,1.0,-1.0,1.0,-1.0,1.0,-1.0,1.0,1.0,0.9902,-1.0,-1.0,-1.0,0.9689,1.0,1.0,-1.0,0.0,0.0,0.0,0.0,0.0,0.0,0.0,0.0,0.0,0.0,0.0,0.0,0.0,0
1.04,run,-1.67,4.35,-2.98,3.0,2.04,0.0,0.002,0.0,0.227,-27.42,16.52,84.55,-33.22,4.39,76.64,-20.13,10.99,86.75,33.75,-11.34,103.1,-4.57,-11.34,104.85,-15.73,-13.18,87.98,-31.76,13.43,92.73,-35.0,4.71,73.72,-10.32,6.9,97.81,35.0,0.02,92.25,-13.59,-16.18,102.13,-4.94,-4.83,76.46,-1.0,-1.0,1.0,-1.0,1.0,-0.9014,1.0,-1.0,1.0,1.0,1.0,-0.3126,-1.0,-1.0,0.8497,1.0,1.0,-1.0,0.039,0.227,0.117,0.013,0.013,0.006,0.006,0.052,0.039,0.026,0.039,0.039,0.026,0.0,0.0,0.026,0.006,0.033,-0.4663,-0.0261,0.069,-0.5722,-0.1657,-0.0245,-0.3574,-0.112,0.1227,0.5706,-0.4939,0.4433,-0.0552,-0.4985,0.4403,-0.2899,-0.5354,0.1979,-0.1419,-0.0062,0.1505,-0.3055,-0.1499,-0.1056,-0.1263,-0.03,0.2572,0.2771,-0.0964,-0.0242,-0.2835,-0.2885,0.1633,0.2104,-0.1987,-0.2401,-0.4878,0.0691,-0.0216,0.0799,0.0735,-1.0,-0.7811,1.0,-1.0,1.0,-1.0,1.0,-1.0,1.0,1.0,1.0,-0.5911,-1.0,-1.0,0.4177,1.0,1.0,-1.0,0.0,0.0,0.0,0.0,0.0,0.0,0.0,0.0,0.0,0.0133,0.0,0.0133,0.0,0
1.08,run,-1.74,4.32,-1.31,0.13,2.64,0.0,0.004,0.0,0.227,-28.12,16.52,85.87,-34.01,3.34,75.76,-19.86,10.37,88.07,34.28,-10.46,101.69,-5.98,-12.57,104.15,-14.41,-13.1,86.66,-33.26,11.93,94.23,-35.0,6.21,72.22,-8.82,5.4,99.31,35.0,1.52,90.75,-15.09,-17.68,103.63,-3.44,-3.33,74.96,-1.0,-1.0,1.0,-1.0,1.0,-0.3057,1.0,-1.0,1.0,1.0,1.0,-0.502,-1.0,-1.0,1.0,1.0,1.0,-1.0,0.039,0.227,0.117,0.013,0.013,0.006,0.006,0.052,0.039,0.026,0.039,0.039,0.026,0.0,0.0,0.026,0.006,0.033,-0.474,-0.0245,0.092,-0.5906,-0.1887,-0.0276,-0.3543,-0.112,0.1473,0.5829,-0.4863,0.4249,-0.0782,-0.5231,0.4403,-0.2669,-0.5384,0.1749,-0.1283,0.0014,0.1923,-0.2834,-0.1918,-0.0855,-0.0768,-0.021,0.2728,0.2403,-0.0385,-0.0865,-0.2854,-0.2946,0.1143,0.2342,-0.1506,-0.255,-0.4994,0.0765,-0.0521,0.0523,0.0356,-1.0,-1.0,1.0,-1.0,1.0,-0.9014,1.0,-1.0,1.0,1.0,1.0,-0.3126,-1.0,-1.0,0.8497,1.0,1.0,-1.0,0.0,0.0,0.0,0.0,0.0,0.0,0.0,0.0,0.0,0.0267,0.0,0.0267,0.0,0
1.12,run,-1.78,4.25,0.22,-2.58,22.29,0.0,0.006,0.0,0.227,-29.09,16.52,87.28,-34.45,2.64,74.88,-18.46,9.23,89.47,34.63,-9.4,100.28,-7.56,-13.45,103.8,-13.1,-12.57,85.34,-34.76,10.43,95.73,-35.0,7.71,73.72,-7.32,3.9,100.81,35.0,3.02,89.25,-16.59,-19.18,105.13,-1.94,-1.83,73.46,-1.0,-1.0,1.0,-1.0,1.0,0.369,1.0,-1.0,1.0,1.0,1.0,-1.0,-1.0,-1.0,1.0,1.0,1.0,-1.0,0.071,0.019,0.123,0.0,0.006,0.013,0.0,0.0,0.039,0.013,0.091,0.045,0.019,0.033,0.0,0.065,0.006,0.058,-0.4863,-0.0245,0.115,-0.6044,-0.2071,-0.043,-0.3497,-0.1227,0.1703,0.5921,-0.4709,0.4004,-0.1028,-0.5446,0.428,-0.2439,-0.5369,0.1519,-0.1359,0.001,0.2211,-0.2503,-0.2035,-0.1175,-0.0365,-0.0551,0.2774,0.2028,0.0307,-0.1528,-0.292,-0.287,0.0339,0.2504,-0.0997,-0.265,-0.5056,0.0739,-0.0229,0.0022,0.0461,-1.0,-1.0,1.0,-1.0,1.0,-0.3057,1.0,-1.0,1.0,1.0,1.0,-0.502,-1.0,-1.0,1.0,1.0,1.0,-1.0,0.0,0.0,0.0,0.0,0.0,0.0,0.0,0.0,0.0,0.04,0.0,0.04,0.0,0
1.16,run,-1.64,4.25,3.47,-0.07,25.23,0.0,0.008,0.0,0.227,-30.23,15.91,88.59,-34.72,2.29,73.92,-16.96,8.0,90.97,34.72,-8.26,98.79,-9.05,-15.12,103.71,-11.69,-11.78,84.02,-33.26,8.93,97.23,-35.0,9.21,75.22,-5.82,2.4,102.31,35.0,4.52,87.75,-18.09,-20.68,106.63,-0.44,-0.33,71.96,-0.0559,-1.0,1.0,-1.0,1.0,1.0,1.0,-1.0,1.0,1.0,1.0,-1.0,-1.0,-1.0,1.0,1.0,1.0,-1.0,0.071,0.019,0.123,0.0,0.006,0.013,0.0,0.0,0.039,0.013,0.091,0.045,0.019,0.033,0.0,0.065,0.006,0.058,-0.5031,-0.0245,0.1396,-0.6121,-0.2194,-0.0583,-0.3252,-0.1427,0.1948,0.5983,-0.4525,0.3758,-0.1304,-0.5599,0.4218,-0.2209,-0.5277,0.1289,-0.1583,0.0007,0.2466,-0.2039,-0.1883,-0.1396,0.0663,-0.1131,0.286,0.1649,0.0904,-0.1988,-0.3077,-0.2583,0.0008,0.2614,-0.0354,-0.2715,-0.5091,0.0678,0.0039,-0.045,0.3889,-1.0,-1.0,1.0,-1.0,1.0,0.369,1.0,-1.0,1.0,1.0,1.0,-1.0,-1.0,-1.0,1.0,1.0,1.0,-1.0,0.0,0.0,0.0,0.0,0.0,0.0,0.0,0.0,0.0,0.0533,0.0,0.0533,0.0,0
1.2,run,-0.96,4.2,15.5,-0.95,13.82,0.0,0.01,0.0,0.227,-31.46,14.85,90.09,-34.8,2.2,73.21,-15.73,6.59,92.46,34.89,-6.94,97.21,-10.46,-16.44,103.89,-10.28,-10.63,82.71,-31.76,7.43,98.73,-35.0,10.71,76.72,-4.32,0.9,103.81,35.0,6.02,86.25,-19.59,-22.18,108.13,1.06,1.17,70.46,1.0,-1.0,1.0,-1.0,1.0,1.0,1.0,-1.0,1.0,1.0,1.0,-1.0,-1.0,-1.0,1.0,1.0,1.0,-0.2967,0.071,0.019,0.123,0.0,0.006,0.013,0.0,0.0,0.039,0.013,0.091,0.045,0.019,0.033,0.0,0.065,0.006,0.058,-0.5231,-0.0353,0.1626,-0.6167,-0.2255,-0.0752,-0.2991,-0.1641,0.2209,0.5998,-0.4326,0.3497,-0.1565,-0.589,0.4203,-0.1963,-0.5139,0.1058,-0.1855,-0.0397,0.2588,-0.16,-0.1548,-0.161,0.1441,-0.1596,0.2979,0.1212,0.1379,-0.2368,-0.3131,-0.29,-0.0052,0.2749,0.027,-0.2763,-0.4961,0.0682,0.0605,-0.0013,0.4404,-0.0559,-1.0,1.0,-1.0,1.0,1.0,1.0,-1.0,1.0,1.0,1.0,-1.0,-1.0,-1.0,1.0,1.0,1.0,-1.0,0.0,0.0,0.0,0.0,0.0,0.0,0.0,0.0,0.0,0.0667,0.0,0.0667,0.0,0
1.24,run,-0.02,4.22,22.79,1.18,0.34,0.0,0.012,0.0,0.227,-32.34,13.36,91.49,-34.8,2.29,72.95,-14.41,5.19,93.96,34.89,-5.54,95.62,-11.87,-17.84,104.68,-8.96,-9.58,81.47,-30.26,5.93,100.23,-35.0,12.21,78.22,-2.82,-0.6,105.31,35.0,7.52,84.75,-21.09,-23.68,109.63,2.56,2.67,71.96,1.0,-1.0,1.0,-1.0,1.0,1.0,1.0,-1.0,1.0,1.0,1.0,-1.0,-1.0,-1.0,1.0,1.0,1.0,1.0,0.104,0.006,0.136,0.006,0.013,0.006,0.019,0.0,0.026,0.0,0.091,0.013,0.006,0.019,0.006,0.091,0.026,0.091,-0.5446,-0.0537,0.1887,-0.6182,-0.227,-0.0874,-0.2777,-0.1887,0.247,0.6029,-0.4096,0.3221,-0.181,-0.6121,0.4234,-0.1718,-0.4939,0.0828,-0.2107,-0.0971,0.2793,-0.1177,-0.1142,-0.1589,0.1817,-0.2041,0.3067,0.0964,0.1832,-0.2697,-0.3115,-0.2896,0.0079,0.2848,0.0939,-0.28,-0.437,0.0632,0.2705,-0.0166,0.2412,1.0,-1.0,1.0,-1.0,1.0,1.0,1.0,-1.0,1.0,1.0,1.0,-1.0,-1.0,-1.0,1.0,1.0,1.0,-0.2967,0.0,0.0,0.0,0.0,0.0,0.0,0.0,0.0,0.0,0.08,0.0,0.08,0.0,0
1.28,run,0.56,4.14,15.24,-0.66,1.34,0.0,0.014,0.0,0.227,-33.13,12.22,92.9,-34.8,2.81,72.95,-13.45,3.78,95.45,34.89,-4.13,94.22,-13.27,-19.34,105.64,-7.73,-8.0,80.24,-28.76,4.43,101.73,-35.0,13.71,79.72,-1.32,-2.1,106.81,33.5,6.02,83.25,-22.59,-25.18,111.13,4.06,4.17,73.46,1.0,-1.0,1.0,-1.0,1.0,1.0,1.0,-1.0,1.0,-1.0,-0.5696,-1.0,-1.0,-1.0,1.0,0.6807,1.0,1.0,0.104,0.006,0.136,0.006,0.013,0.006,0.019,0.0,0.026,0.0,0.091,0.013,0.006,0.019,0.006,0.091,0.026,0.091,-0.5599,-0.0798,0.2132,-0.6182,-0.2255,-0.092,-0.2546,-0.2132,0.273,0.6029,-0.385,0.2945,-0.2056,-0.6366,0.4372,-0.1488,-0.4755,0.0614,-0.2047,-0.1652,0.287,-0.0824,-0.0742,-0.1284,0.213,-0.2344,0.3119,0.0675,0.2197,-0.2917,-0.3096,-0.2942,0.057,0.2851,0.1344,-0.2761,-0.355,0.0652,0.3977,0.0206,0.0059,1.0,-1.0,1.0,-1.0,1.0,1.0,1.0,-1.0,1.0,1.0,1.0,-1.0,-1.0,-1.0,1.0,1.0,1.0,1.0,0.0,0.0,0.0,0.0,0.0,0.0,0.0,0.0,0.0,0.0933,0.0,0.0933,0.0,0
1.32,run,0.95,3.81,10.08,-7.98,17.42,0.0,0.016,0.0,0.227,-33.49,10.9,94.22,-34.72,3.34,73.48,-11.78,2.29,96.86,34.89,-2.64,92.72,-14.68,-20.74,106.88,-6.5,-6.5,78.84,-27.26,2.93,103.23,-35.0,15.21,81.22,0.18,-3.6,108.31,32.0,4.52,81.75,-24.09,-26.68,112.63,2.56,5.67,74.96,1.0,-1.0,1.0,-1.0,1.0,1.0,1.0,-1.0,1.0,-1.0,-1.0,-0.6629,-1.0,-1.0,1.0,-1.0,1.0,1.0,0.104,0.006,0.136,0.006,0.013,0.006,0.019,0.0,0.026,0.0,0.091,0.013,0.006,0.019,0.006,0.091,0.026,0.091,-0.5737,-0.0997,0.2378,-0.6182,-0.2163,-0.092,-0.2378,-0.2378,0.2991,0.6029,-0.3605,0.27,-0.2301,-0.6627,0.4541,-0.1273,-0.4479,0.0399,-0.1953,-0.1908,0.2935,-0.0577,-0.0172,-0.0898,0.2127,-0.2566,0.3167,0.0472,0.2464,-0.2968,-0.3093,-0.3043,0.1035,0.2806,0.1982,-0.2742,-0.3045,0.0587,0.2661,-0.0115,0.0234,1.0,-1.0,1.0,-1.0,1.0,1.0,1.0,-1.0,1.0,-1.0,-0.5696,-1.0,-1.0,-1.0,1.0,0.6807,1.0,1.0,0.0,0.0,0.0,0.0,0.0,0.0,0.0,0.0,0.0,0.1067,0.0,0.1067,0.0,0
1.36,run,1.03,3.73,1.22,-3.08,23.58,0.0,0.018,0.0,0.227,-33.57,9.4,95.8,-34.72,4.92,74.36,-10.28,1.05,98.17,34.54,-1.32,91.23,-16.17,-22.15,108.37,-5.1,-5.19,77.61,-25.76,1.43,104.73,-35.0,16.71,82.72,1.68,-5.1,109.81,30.5,3.02,80.25,-25.59,-28.18,114.13,1.06,7.17,76.46,1.0,-1.0,0.5319,-1.0,1.0,1.0,1.0,-1.0,1.0,-1.0,-1.0,-0.9716,-1.0,-1.0,1.0,-1.0,1.0,1.0,0.013,0.0,0.091,0.006,0.058,0.058,0.006,0.006,0.039,0.039,0.13,0.0,0.006,0.019,0.006,0.149,0.045,0.091,-0.5798,-0.1227,0.2608,-0.6167,-0.2071,-0.0828,-0.2086,-0.2638,0.3237,0.6029,-0.3344,0.2439,-0.2546,-0.6872,0.4755,-0.1058,-0.4218,0.0153,-0.1596,-0.2194,0.2912,-0.0347,0.0223,-0.0286,0.2576,-0.2769,0.3132,0.0331,0.2697,-0.305,-0.308,-0.3045,0.1525,0.2765,0.236,-0.2835,-0.2709,0.0294,0.1759,-0.1393,0.3041,1.0,-1.0,1.0,-1.0,1.0,1.0,1.0,-1.0,1.0,-1.0,-1.0,-0.6629,-1.0,-1.0,1.0,-1.0,1.0,1.0,0.0,0.0,0.0,0.0,0.0,0.0,0.0,0.0,0.0,0.12,0.0,0.12,0.0,0
1.4,run,1.4,3.67,5.23,-0.97,21.2,0.0,0.02,0.0,0.227,-33.57,7.21,98.44,-34.72,6.77,76.11,-7.47,-1.32,100.28,33.4,0.62,88.86,-18.46,-24.52,110.74,-2.9,-3.25,75.94,-24.26,-0.07,103.23,-33.5,15.21,84.22,3.18,-6.6,111.31,29.0,1.52,78.75,-24.09,-29.68,115.63,-0.44,5.67,77.96,-0.3439,-1.0,-0.4849,1.0,-0.1742,1.0,1.0,-1.0,1.0,-1.0,-1.0,-1.0,-0.5484,-1.0,1.0,-1.0,0.5142,1.0,0.013,0.0,0.091,0.006,0.058,0.058,0.006,0.006,0.039,0.039,0.13,0.0,0.006,0.019,0.006,0.149,0.045,0.091,-0.5814,-0.1488,0.2884,-0.6167,-0.1795,-0.0675,-0.1825,-0.2853,0.3467,0.5967,-0.3114,0.2178,-0.2807,-0.7118,0.5016,-0.0813,-0.3988,-0.0061,-0.1173,-0.2479,0.3037,-0.0243,0.1154,0.0355,0.2746,-0.2715,0.3024,0.001,0.272,-0.3078,-0.3099,-0.3019,0.2011,0.2823,0.2484,-0.2761,-0.2637,0.0227,0.0213,-0.0538,0.4115,1.0,-1.0,0.5319,-1.0,1.0,1.0,1.0,-1.0,1.0,-1.0,-1.0,-0.9716,-1.0,-1.0,1.0,-1.0,1.0,1.0,0.0,0.0,0.0,0.0,0.0,0.0,0.0,0.0,0.0,0.1333,0.0,0.1333,0.0,0
1.44,run,1.46,3.5,0.48,-4.67,17.8,0.0,0.022,0.0,0.227,-32.87,5.89,99.93,-34.63,7.91,77.52,-6.33,-2.81,101.6,32.61,1.41,87.63,-19.86,-25.84,112.15,-1.76,-2.2,75.15,-25.76,-1.57,101.73,-32.0,13.71,85.72,4.68,-8.1,112.81,27.5,0.02,77.25,-22.59,-31.18,117.13,-1.94,4.17,79.46,-1.0,-1.0,-1.0,1.0,-1.0,1.0,1.0,-1.0,1.0,-1.0,-1.0,-0.3789,0.0041,-1.0,1.0,-1.0,-0.6284,1.0,0.006,0.0,0.071,0.0,0.123,0.052,0.019,0.0,0.065,0.136,0.084,0.0,0.013,0.026,0.013,0.143,0.117,0.065,-0.5814,-0.1871,0.3344,-0.6167,-0.1473,-0.0368,-0.1335,-0.3267,0.3835,0.5768,-0.2777,0.1764,-0.3206,-0.7532,0.543,-0.043,-0.3651,-0.0353,-0.0821,-0.262,0.3187,-0.017,0.1551,0.0956,0.3054,-0.2856,0.2966,-0.0453,0.2682,-0.311,-0.3089,-0.3069,0.2363,0.2861,0.2517,-0.2605,-0.2312,0.0175,0.0913,-0.017,0.37,-0.3439,-1.0,-0.4849,1.0,-0.1742,1.0,1.0,-1.0,1.0,-1.0,-1.0,-1.0,-0.5484,-1.0,1.0,-1.0,0.5142,1.0,0.0,0.0,0.0,0.0,0.0,0.0,0.0,0.0,0.0,0.1467,0.0,0.1467,0.0,0
1.48,run,1.06,2.55,-9.81,-26.23,21.95,0.0,0.024,0.0,0.227,-31.64,4.66,101.25,-34.37,8.96,78.75,-5.27,-4.13,103.01,31.29,2.11,85.96,-21.18,-27.33,113.47,-0.79,-0.79,74.88,-27.26,-3.07,100.23,-30.5,12.21,87.22,6.18,-9.6,114.31,26.0,-1.48,75.75,-21.09,-32.68,118.63,-3.44,2.67,80.96,-1.0,-1.0,-1.0,1.0,-1.0,1.0,1.0,-1.0,1.0,-1.0,-1.0,0.0843,1.0,-1.0,1.0,-1.0,-1.0,1.0,0.006,0.0,0.071,0.0,0.123,0.052,0.019,0.0,0.065,0.136,0.084,0.0,0.013,0.026,0.013,0.143,0.117,0.065,-0.5691,-0.2102,0.3605,-0.6151,-0.1273,-0.0123,-0.1135,-0.3528,0.4065,0.563,-0.2638,0.1549,-0.3451,-0.7762,0.5676,-0.023,-0.3467,-0.0491,-0.0117,-0.2692,0.3204,-0.0062,0.1829,0.1585,0.2882,-0.2972,0.2934,-0.0832,0.2392,-0.2978,-0.3078,-0.3006,0.2569,0.2746,0.2448,-0.2338,-0.2256,0.0029,0.0084,-0.0815,0.3106,-1.0,-1.0,-1.0,1.0,-1.0,1.0,1.0,-1.0,1.0,-1.0,-1.0,-0.3789,0.0041,-1.0,1.0,-1.0,-0.6284,1.0,0.0,0.0,0.0,0.0,0.0,0.0,0.0,0.0,0.0,0.16,0.0,0.16,0.0,0
1.52,run,0.97,2.11,-4.26,-8.99,8.72,0.0,0.026,0.0,0.227,-30.41,3.43,102.3,-33.84,9.84,79.89,-3.78,-5.62,104.5,29.97,2.11,84.46,-22.24,-28.65,114.87,-0.18,0.7,74.79,-28.76,-4.57,98.73,-29.0,10.71,88.72,7.68,-11.1,115.81,24.5,-2.98,74.25,-19.59,-34.18,120.13,-4.94,1.17,82.46,-1.0,-1.0,-1.0,1.0,-1.0,1.0,1.0,-1.0,1.0,-1.0,-1.0,0.0646,1.0,-1.0,1.0,-1.0,-1.0,1.0,0.006,0.0,0.071,0.0,0.123,0.052,0.019,0.0,0.065,0.136,0.084,0.0,0.013,0.026,0.013,0.143,0.117,0.065,-0.5476,-0.2316,0.3835,-0.6105,-0.1089,0.0092,-0.0951,-0.3758,0.431,0.54,-0.2516,0.1258,-0.3682,-0.8023,0.5906,-0.0061,-0.3221,-0.0537,0.0722,-0.2688,0.3104,0.0129,0.197,0.1913,0.2707,-0.2942,0.2973,-0.1444,0.2134,-0.3176,-0.3016,-0.3081,0.266,0.2554,0.2633,-0.1809,-0.2607,-0.0806,-0.1712,-0.4578,0.3831,-1.0,-1.0,-1.0,1.0,-1.0,1.0,1.0,-1.0,1.0,-1.0,-1.0,0.0843,1.0,-1.0,1.0,-1.0,-1.0,1.0,0.0,0.0,0.0,0.0,0.0,0.0,0.0,0.0,0.0,0.1733,0.0,0.1733,0.0,0
1.56,run,0.33,1.49,-14.81,-16.17,13.8,0.0,0.028,0.0,0.227,-29.09,2.11,103.18,-32.96,10.55,81.12,-2.37,-7.03,106.08,28.56,2.11,82.88,-22.94,-30.15,116.37,0.18,1.67,74.79,-30.26,-6.07,97.23,-27.5,9.21,90.22,9.18,-12.6,117.31,23.0,-4.48,72.75,-18.09,-35.68,121.63,-6.44,-0.33,83.96,-1.0,-1.0,-1.0,1.0,-1.0,1.0,1.0,-1.0,1.0,-1.0,-1.0,-0.0121,1.0,-1.0,1.0,-1.0,-1.0,1.0,0.006,0.0,0.019,0.013,0.13,0.117,0.026,0.0,0.039,0.078,0.026,0.0,0.006,0.026,0.006,0.006,0.045,0.006,-0.5262,-0.2531,0.4019,-0.6013,-0.0936,0.0291,-0.069,-0.4019,0.4571,0.517,-0.2516,0.0997,-0.3866,-0.8253,0.6151,0.0046,-0.2961,-0.0552,0.131,-0.2686,0.2862,0.0435,0.1953,0.2086,0.2871,-0.3035,0.3058,-0.1872,0.1494,-0.3199,-0.28,-0.3018,0.2781,0.219,0.2819,-0.1324,-0.2692,-0.1183,-0.0743,-0.1569,0.1522,-1.0,-1.0,-1.0,1.0,-1.0,1.0,1.0,-1.0,1.0,-1.0,-1.0,0.0646,1.0,-1.0,1.0,-1.0,-1.0,1.0,0.0,0.0,0.0,0.0,0.0,0.0,0.0,0.0,0.0,0.1867,0.0,0.1867,0.0,0
1.6,run,-0.27,0.75,-14.59,-17.48,14.56,0.0,0.03,0.0,0.227,-28.3,0.88,103.62,-31.82,10.99,82.44,-0.97,-8.44,107.58,27.16,2.11,81.47,-23.47,-31.55,117.77,0.18,2.29,75.5,-31.76,-7.57,95.73,-26.0,7.71,91.72,10.68,-14.1,118.81,21.5,-5.98,71.25,-16.59,-37.18,123.13,-7.94,-1.83,85.46,-1.0,-1.0,-1.0,1.0,-1.0,1.0,1.0,-1.0,1.0,-1.0,-1.0,-0.0786,1.0,-1.0,1.0,-1.0,-1.0,1.0,0.006,0.0,0.019,0.013,0.13,0.117,0.026,0.0,0.039,0.078,0.026,0.0,0.006,0.026,0.006,0.006,0.045,0.006,-0.5031,-0.2761,0.4172,-0.586,-0.0813,0.0506,-0.0445,-0.4264,0.4847,0.4924,-0.2516,0.0721,-0.3988,-0.8514,0.6412,0.0107,-0.2792,-0.0552,0.1781,-0.2744,0.2579,0.088,0.1828,0.2266,0.2931,-0.3046,0.3177,-0.2232,0.1046,-0.3276,-0.2421,-0.3092,0.2926,0.1763,0.2607,-0.0927,-0.3245,-0.1733,-0.2585,-0.2822,0.2409,-1.0,-1.0,-1.0,1.0,-1.0,1.0,1.0,-1.0,1.0,-1.0,-1.0,-0.0121,1.0,-1.0,1.0,-1.0,-1.0,1.0,0.0,0.0,0.0,0.0,0.0,0.0,0.0,0.0,0.0,0.2,0.0,0.2,0.0,0
1.64,run,-0.94,0.28,-14.41,-10.56,7.22,0.0,0.032,0.0,0.227,-27.69,-0.53,103.71,-30.59,11.16,83.76,0.44,-9.93,108.98,25.93,1.49,79.98,-23.47,-32.87,119.18,-0.35,2.64,76.55,-33.26,-9.07,94.23,-24.5,6.21,93.22,12.18,-15.6,120.31,20.0,-7.48,72.75,-15.09,-38.68,124.63,-9.44,-3.33,86.96,-1.0,-1.0,-1.0,1.0,-1.0,1.0,1.0,-1.0,1.0,-0.9838,-1.0,0.1882,1.0,-1.0,1.0,-1.0,-1.0,1.0,0.006,0.0,0.019,0.013,0.13,0.117,0.026,0.0,0.039,0.078,0.026,0.0,0.006,0.026,0.006,0.006,0.045,0.006,-0.4893,-0.2976,0.4249,-0.566,-0.0736,0.0736,-0.0199,-0.451,0.5108,0.4679,-0.2516,0.0476,-0.408,-0.8759,0.6657,0.0107,-0.2684,-0.043,0.1767,-0.273,0.2095,0.1368,0.1569,0.2453,0.2976,-0.3057,0.3206,-0.2487,0.0732,-0.3218,-0.2041,-0.3089,0.2973,0.1234,0.2229,-0.0186,-0.3773,-0.2376,-0.2546,-0.3052,0.2541,-1.0,-1.0,-1.0,1.0,-1.0,1.0,1.0,-1.0,1.0,-1.0,-1.0,-0.0786,1.0,-1.0,1.0,-1.0,-1.0,1.0,0.0,0.0,0.0,0.0,0.0,0.0,0.0,0.0,0.0,0.2133,0.0,0.2133,0.0,0
1.68,run,-1.75,-0.56,-20.14,-18.93,-2.44,0.0,0.034,0.0,0.227,-27.42,-1.76,103.62,-29.79,11.16,85.25,1.76,-11.25,110.3,24.52,0.35,78.57,-23.12,-34.37,120.67,-1.32,2.64,77.78,-34.76,-10.57,92.73,-23.0,4.71,94.72,13.68,-17.1,121.81,18.5,-8.98,74.25,-13.59,-40.18,126.13,-10.94,-4.83,88.46,-1.0,-1.0,-1.0,1.0,-1.0,1.0,1.0,-1.0,1.0,-0.9075,-1.0,0.1763,1.0,-1.0,1.0,-1.0,-1.0,1.0,0.006,0.013,0.013,0.045,0.045,0.201,0.026,0.0,0.045,0.091,0.0,0.0,0.006,0.026,0.006,0.006,0.013,0.013,-0.4786,-0.3221,0.4264,-0.5446,-0.0706,0.0966,0.0046,-0.4771,0.5354,0.4464,-0.2623,0.0215,-0.408,-0.8989,0.6903,0.0015,-0.2623,-0.0245,0.1638,-0.2828,0.1523,0.1759,0.1213,0.2577,0.3,-0.3114,0.3161,-0.2543,0.0111,-0.3226,-0.1429,-0.3021,0.2997,0.052,0.179,0.0557,-0.4356,-0.2789,-0.2515,-0.1843,0.1259,-1.0,-1.0,-1.0,1.0,-1.0,1.0,1.0,-1.0,1.0,-0.9838,-1.0,0.1882,1.0,-1.0,1.0,-1.0,-1.0,1.0,0.0,0.0,0.0,0.0,0.0,0.0,0.0,0.0,0.0,0.2267,0.0,0.2267,0.0,0
1.72,run,-2.65,-1.34,-23.66,-19.39,-2.88,0.0,0.036,0.0,0.227,-27.42,-2.99,102.92,-28.12,11.16,86.75,3.25,-12.74,111.71,23.03,-0.88,77.26,-22.24,-35.77,122.08,-2.55,2.64,79.19,-35.0,-12.07,91.23,-21.5,3.21,96.22,15.18,-18.6,123.31,17.0,-10.48,75.75,-12.09,-41.68,127.63,-12.44,-6.33,89.96,-1.0,-1.0,-1.0,1.0,-1.0,1.0,1.0,-0.3607,1.0,-0.5987,-0.7749,0.6079,1.0,-1.0,0.8226,-1.0,-1.0,1.0,0.006,0.013,0.013,0.045,0.045,0.201,0.026,0.0,0.045,0.091,0.0,0.0,0.006,0.026,0.006,0.006,0.013,0.013,-0.474,-0.3436,0.4249,-0.5308,-0.0706,0.1227,0.0276,-0.5001,0.5584,0.4218,-0.2823,-0.0031,-0.4019,-0.925,0.7164,-0.0153,-0.2623,-0.0031,0.1319,-0.2784,0.1009,0.1749,0.0849,0.2781,0.2962,-0.3042,0.3075,-0.27,-0.0669,-0.3178,-0.077,-0.3092,0.3076,-0.0268,0.1253,0.1195,-0.5065,-0.3515,-0.3516,-0.3305,-0.0426,-1.0,-1.0,-1.0,1.0,-1.0,1.0,1.0,-1.0,1.0,-0.9075,-1.0,0.1763,1.0,-1.0,1.0,-1.0,-1.0,1.0,0.0,0.0,0.0,0.0,0.0,0.0,0.0,0.0,0.0,0.24,0.0,0.24,0.0,0
1.76,run,-3.07,-1.39,-11.54,-2.5,-2.12,0.0,0.038,0.0,0.227,-28.12,-3.96,101.87,-26.63,10.72,88.24,4.66,-14.15,113.03,21.71,-2.2,75.94,-21.27,-37.18,123.49,-4.04,1.93,80.51,-35.0,-13.57,89.73,-20.0,1.71,97.72,16.68,-17.1,124.81,15.5,-11.98,77.25,-10.59,-43.18,126.13,-13.94,-7.83,91.46,-1.0,-1.0,-1.0,1.0,-1.0,1.0,1.0,0.4716,1.0,-0.2687,-0.6518,0.1684,1.0,-1.0,-0.0039,-1.0,-1.0,1.0,0.006,0.013,0.013,0.045,0.045,0.201,0.026,0.0,0.045,0.091,0.0,0.0,0.006,0.026,0.006,0.006,0.013,0.013,-0.474,-0.3651,0.4126,-0.5016,-0.0706,0.1488,0.0537,-0.5262,0.5829,0.3958,-0.3037,-0.0261,-0.3866,-0.9495,0.7409,-0.0368,-0.2623,0.0215,0.0923,-0.2759,0.0243,0.2324,0.0594,0.293,0.3057,-0.3113,0.3078,-0.2874,-0.1279,-0.3093,0.0039,-0.309,0.3079,-0.0998,0.0877,0.1762,-0.5847,-0.4195,-0.4129,-0.3383,-0.0502,-1.0,-1.0,-1.0,1.0,-1.0,1.0,1.0,-0.3607,1.0,-0.5987,-0.7749,0.6079,1.0,-1.0,0.8226,-1.0,-1.0,1.0,0.0,0.0,0.0,0.0,0.0,0.0,0.0,0.0,0.0,0.2533,0.0,0.2533,0.0,0
1.8,run,-3.22,-1.25,-4.96,3.07,-5.7,0.0,0.04,0.0,0.227,-29.09,-5.62,100.55,-25.31,9.49,89.74,6.06,-15.29,114.35,20.39,-3.6,75.15,-19.95,-38.58,124.8,-5.36,0.97,81.83,-35.0,-15.07,88.23,-18.5,0.21,99.22,18.18,-18.6,126.31,14.0,-13.48,75.75,-9.09,-44.68,127.63,-15.44,-9.33,92.96,-1.0,-0.5785,-1.0,1.0,-0.8991,1.0,1.0,-0.3285,1.0,-0.3739,-1.0,-0.246,1.0,-1.0,1.0,-1.0,-1.0,1.0,0.013,0.019,0.019,0.033,0.0,0.111,0.033,0.0,0.065,0.13,0.0,0.006,0.013,0.033,0.006,0.006,0.0,0.013,-0.4863,-0.382,0.3942,-0.4755,-0.0782,0.1749,0.0782,-0.5507,0.6059,0.3728,-0.3267,-0.0491,-0.3697,-0.9741,0.7655,-0.0629,-0.2746,0.0445,0.0189,-0.2561,-0.0516,0.2599,0.013,0.3024,0.3055,-0.3094,0.3013,-0.287,-0.1753,-0.3023,0.0657,-0.3079,0.307,-0.1671,0.0156,0.2092,-0.6217,-0.4243,-0.2014,-0.0436,-0.037,-1.0,-1.0,-1.0,1.0,-1.0,1.0,1.0,0.4716,1.0,-0.2687,-0.6518,0.1684,1.0,-1.0,-0.0039,-1.0,-1.0,1.0,0.0,0.0,0.0,0.0,0.0,0.0,0.0,0.0,0.0,0.2667,0.0,0.2667,0.0,0
1.84,run,-3.84,-1.42,-15.37,-5.27,4.59,0.0,0.042,0.0,0.227,-30.32,-7.12,99.4,-23.91,8.17,91.32,7.47,-16.79,115.75,18.72,-5.1,74.44,-18.46,-39.99,125.95,-6.86,-0.44,83.41,-35.0,-16.57,86.73,-17.0,-1.29,100.72,19.68,-20.1,127.81,12.5,-14.98,77.25,-7.59,-46.18,129.13,-16.94,-10.83,94.46,-1.0,-0.5704,-1.0,1.0,-1.0,1.0,1.0,-0.158,1.0,-0.1437,-0.9077,0.4784,1.0,-1.0,1.0,-1.0,-1.0,1.0,0.013,0.019,0.019,0.033,0.0,0.111,0.033,0.0,0.065,0.13,0.0,0.006,0.013,0.033,0.006,0.006,0.0,0.013,-0.5031,-0.4111,0.3712,-0.4525,-0.0997,0.201,0.1028,-0.5706,0.6289,0.3497,-0.3513,-0.0629,-0.3467,-0.9986,0.7885,-0.0859,-0.2915,0.0675,-0.0501,-0.2886,-0.1224,0.2682,-0.0715,0.3095,0.3059,-0.2914,0.2972,-0.2872,-0.2148,-0.2634,0.1323,-0.3076,0.3012,-0.2033,-0.0524,0.2327,-0.6342,-0.4116,-0.0866,0.0536,-0.0995,-1.0,-0.5785,-1.0,1.0,-0.8991,1.0,1.0,-0.3285,1.0,-0.3739,-1.0,-0.246,1.0,-1.0,1.0,-1.0,-1.0,1.0,0.0,0.0,0.0,0.0,0.0,0.0,0.0,0.0,0.0,0.28,0.0,0.28,0.0,0
1.88,run,-4.34,-1.75,-9.9,-6.72,2.65,0.0,0.044,0.0,0.227,-32.17,-9.05,97.38,-22.24,6.5,93.43,9.4,-18.46,117.51,16.79,-7.03,73.92,-16.52,-41.75,127.27,-8.61,-2.37,85.34,-35.0,-18.07,85.23,-15.5,-2.79,102.22,21.18,-18.6,129.31,13.3,-16.48,75.75,-6.09,-47.68,127.63,-18.44,-12.33,95.96,-1.0,-0.283,-1.0,1.0,-0.9861,1.0,1.0,0.8397,1.0,0.3799,-1.0,-0.22,1.0,-1.0,0.2676,-1.0,-1.0,1.0,0.013,0.019,0.019,0.033,0.0,0.111,0.033,0.0,0.065,0.13,0.0,0.006,0.013,0.033,0.006,0.006,0.0,0.013,-0.5246,-0.4372,0.3513,-0.428,-0.1227,0.2286,0.1273,-0.5967,0.6535,0.3206,-0.3774,-0.0752,-0.3206,-1.0232,0.8084,-0.112,-0.316,0.0951,-0.1112,-0.2944,-0.1564,0.2747,-0.1315,0.3145,0.3011,-0.2964,0.295,-0.3043,-0.2427,-0.2279,0.185,-0.3023,0.2815,-0.2347,-0.1236,0.2607,-0.6885,-0.4265,-0.2682,-0.092,0.0801,-1.0,-0.5704,-1.0,1.0,-1.0,1.0,1.0,-0.158,1.0,-0.1437,-0.9077,0.4784,1.0,-1.0,1.0,-1.0,-1.0,1.0,0.0,0.0,0.0,0.0,0.0,0.0,0.0,0.0,0.0,0.2933,0.0,0.2933,0.0,0
1.92,run,-4.44,-1.49,-3.28,7.26,2.66,0.0,0.046,0.0,0.227,-33.49,-10.37,95.71,-20.92,5.19,94.92,10.72,-19.6,118.92,15.56,-8.44,74.0,-15.12,-43.07,128.23,-10.02,-3.87,86.48,-35.0,-16.57,83.73,-14.0,-4.29,103.72,22.68,-17.1,130.81,11.8,-17.98,74.25,-4.59,-49.18,126.13,-19.94,-13.83,97.46,-1.0,0.5743,-1.0,1.0,-1.0,1.0,1.0,1.0,1.0,0.1895,-1.0,-0.054,1.0,-1.0,0.0443,-1.0,-1.0,1.0,0.006,0.019,0.013,0.071,0.0,0.071,0.033,0.013,0.084,0.078,0.0,0.065,0.006,0.045,0.006,0.026,0.0,0.013,-0.5568,-0.4709,0.316,-0.3988,-0.1519,0.2654,0.1611,-0.6259,0.6842,0.2869,-0.4111,-0.0844,-0.2869,-1.0538,0.8314,-0.1427,-0.3497,0.1289,-0.168,-0.3005,-0.2082,0.2739,-0.1736,0.3232,0.3052,-0.289,0.2924,-0.3074,-0.2644,-0.1853,0.2239,-0.2974,0.2615,-0.2501,-0.181,0.277,-0.7321,-0.4556,-0.1728,-0.1173,0.0463,-1.0,-0.283,-1.0,1.0,-0.9861,1.0,1.0,0.8397,1.0,0.3799,-1.0,-0.22,1.0,-1.0,0.2676,-1.0,-1.0,1.0,0.0,0.0,0.0,0.0,0.0,0.0,0.0,0.0,0.0,0.3067,0.0,0.3067,0.0,0
1.96,run,-5.21,-1.15,-11.1,3.99,5.05,0.0,0.048,0.0,0.227,-34.63,-12.66,93.52,-18.72,2.81,97.21,13.01,-20.57,120.94,13.62,-10.63,74.27,-12.83,-45.26,129.02,-12.13,-6.24,88.86,-35.0,-15.07,82.23,-12.5,-5.79,105.22,24.18,-15.6,132.31,10.3,-19.48,72.75,-3.09,-50.68,127.63,-21.44,-15.33,98.96,-1.0,1.0,-1.0,1.0,-1.0,1.0,1.0,1.0,0.8211,0.045,-1.0,-1.0,1.0,-1.0,0.9153,-1.0,-1.0,1.0,0.006,0.019,0.013,0.071,0.0,0.071,0.033,0.013,0.084,0.078,0.0,0.065,0.006,0.045,0.006,0.026,0.0,0.013,-0.5798,-0.4939,0.2869,-0.3758,-0.1749,0.2915,0.1841,-0.6458,0.7087,0.2654,-0.4357,-0.0828,-0.2623,-1.0769,0.8483,-0.1672,-0.3758,0.1488,-0.203,-0.2958,-0.2539,0.2771,-0.207,0.323,0.2991,-0.2764,0.2958,-0.2949,-0.2762,-0.124,0.2479,-0.2936,0.2457,-0.2662,-0.2235,0.2679,-0.741,-0.4327,-0.0573,0.1266,0.0464,-1.0,0.5743,-1.0,1.0,-1.0,1.0,1.0,1.0,1.0,0.1895,-1.0,-0.054,1.0,-1.0,0.0443,-1.0,-1.0,1.0,0.0,0.0,0.0,0.0,0.0,0.0,0.0,0.0,0.0,0.32,0.0,0.32,0.0,0
2.0,run,-6.99,0.42,-14.59,12.78,-7.69,0.0,0.05,0.0,0.435,-35.07,-15.64,89.47,-14.77,-1.32,101.6,17.05,-20.92,124.89,11.34,-14.68,73.04,-8.88,-49.13,127.53,-16.0,-10.72,93.25,-35.0,-13.57,80.73,-11.0,-7.29,106.72,25.68,-14.1,130.81,11.8,-20.98,71.25,-1.59,-52.18,126.13,-22.94,-16.83,100.46,-1.0,1.0,-1.0,1.0,-0.8005,1.0,1.0,1.0,0.6883,0.8151,-1.0,-0.524,1.0,-1.0,0.3657,-1.0,-1.0,1.0,0.0,0.013,0.019,0.039,0.0,0.058,0.045,0.435,0.143,0.013,0.0,0.0,0.006,0.071,0.006,0.091,0.0,0.006,-0.5998,-0.5338,0.2485,-0.3375,-0.2163,0.3313,0.224,-0.6627,0.744,0.2316,-0.474,-0.0782,-0.2224,-1.1152,0.8621,-0.204,-0.4172,0.1902,-0.1889,-0.3007,-0.2678,0.2841,-0.2422,0.3198,0.303,-0.2331,0.2899,-0.2857,-0.2834,-0.076,0.2672,-0.2956,0.2044,-0.2728,-0.2537,0.2848,-0.8077,-0.4036,-0.1937,0.0696,0.0881,-1.0,1.0,-1.0,1.0,-1.0,1.0,1.0,1.0,0.8211,0.045,-1.0,-1.0,1.0,-1.0,0.9153,-1.0,-1.0,1.0,0.0,0.0,0.0,0.0,0.0,0.0,0.0,0.0,0.0,0.3333,0.0,0.3333,0.0,0
2.04,run,-7.27,0.96,-8.97,14.96,-8.11,0.0,0.05,0.0,0.435,-34.98,-16.0,88.24,-13.62,-2.46,102.83,18.19,-20.48,126.04,11.16,-15.82,72.16,-7.73,-50.01,126.74,-17.14,-12.04,94.48,-35.0,-12.07,79.23,-9.5,-5.79,108.22,27.18,-12.6,129.31,13.3,-22.48,69.75,-0.09,-53.68,127.63,-24.44,-18.33,101.96,-1.0,1.0,-1.0,1.0,0.5088,1.0,1.0,1.0,-0.6818,1.0,-1.0,-1.0,1.0,-1.0,1.0,-1.0,-1.0,1.0,0.0,0.013,0.019,0.039,0.0,0.058,0.045,0.435,0.143,0.013,0.0,0.0,0.006,0.071,0.006,0.091,0.0,0.006,-0.6075,-0.586,0.1779,-0.2684,-0.2884,0.408,0.2945,-0.6688,0.813,0.1917,-0.5446,-0.0997,-0.1534,-1.1827,0.836,-0.2715,-0.4955,0.2669,-0.1415,-0.2737,-0.2729,0.2825,-0.2568,0.3167,0.2976,-0.1706,0.2865,-0.2483,-0.2838,-0.0792,0.2706,-0.2887,0.1115,-0.2727,-0.2724,0.2923,-0.9638,-0.2662,-0.2546,0.2231,-0.1343,-1.0,1.0,-1.0,1.0,-0.8005,1.0,1.0,1.0,0.6883,0.8151,-1.0,-0.524,1.0,-1.0,0.3657,-1.0,-1.0,1.0,0.0,0.0,0.0,0.0,0.0,0.0,0.0,0.0,0.0,0.3333,0.0,0.3333,0.0,0
2.08,run,-7.57,1.52,-9.08,14.52,-4.97,0.0,0.05,0.0,0.435,-34.8,-16.08,87.1,-12.57,-3.78,104.24,19.51,-19.69,127.0,11.07,-16.96,71.63,-6.68,-51.06,126.04,-18.28,-13.27,95.71,-35.0,-10.57,77.73,-8.0,-4.29,109.72,28.68,-11.1,127.81,14.8,-23.98,69.53,1.41,-55.18,129.13,-25.94,-19.83,103.46,-1.0,1.0,-1.0,1.0,0.4416,1.0,1.0,1.0,-1.0,1.0,-1.0,0.0533,1.0,-1.0,1.0,-1.0,-1.0,1.0,0.0,0.013,0.019,0.039,0.0,0.058,0.045,0.435,0.143,0.013,0.0,0.0,0.006,0.071,0.006,0.091,0.0,0.006,-0.6059,-0.5921,0.1565,-0.2485,-0.3083,0.4295,0.3145,-0.6611,0.833,0.1887,-0.5645,-0.115,-0.1335,-1.198,0.8222,-0.2915,-0.5185,0.2884,-0.0927,-0.2172,-0.2808,0.2811,-0.2631,0.3115,0.2917,-0.0874,0.2839,-0.1866,-0.282,-0.1196,0.2728,-0.2662,0.0203,-0.2743,-0.2868,0.2943,-0.9883,-0.2193,-0.1565,0.2611,-0.1416,-1.0,1.0,-1.0,1.0,0.5088,1.0,1.0,1.0,-0.6818,1.0,-1.0,-1.0,1.0,-1.0,1.0,-1.0,-1.0,1.0,0.0,0.0,0.0,0.0,0.0,0.0,0.0,0.0,0.0,0.3333,0.0,0.3333,0.0,0
2.12,run,-7.88,2.13,-7.76,14.57,-4.65,0.0,0.05,0.0,0.682,-34.54,-16.0,85.87,-11.34,-4.83,105.56,20.92,-18.9,127.79,10.72,-18.19,70.75,-5.54,-52.03,125.16,-19.6,-14.77,96.94,-35.0,-9.07,76.23,-6.5,-2.79,111.22,30.18,-9.6,126.31,16.3,-25.48,71.03,2.91,-56.68,130.63,-27.44,-21.33,104.96,-1.0,1.0,-1.0,1.0,0.7977,1.0,1.0,0.8197,-1.0,1.0,-1.0,0.4439,1.0,-1.0,1.0,-1.0,-1.0,1.0,0.006,0.013,0.013,0.033,0.0,0.033,0.039,0.682,0.156,0.006,0.013,0.013,0.019,0.039,0.006,0.169,0.0,0.039,-0.6029,-0.5937,0.1365,-0.2301,-0.3313,0.4541,0.3375,-0.6473,0.8498,0.1871,-0.5844,-0.1243,-0.115,-1.2164,0.8099,-0.3114,-0.54,0.3099,-0.0534,-0.1578,-0.2712,0.2656,-0.2703,0.3098,0.2902,-0.0095,0.2619,-0.1364,-0.272,-0.1181,0.2598,-0.2552,-0.0317,-0.2666,-0.2811,0.2864,-1.0138,-0.17,-0.1584,0.2535,-0.0868,-1.0,1.0,-1.0,1.0,0.4416,1.0,1.0,1.0,-1.0,1.0,-1.0,0.0533,1.0,-1.0,1.0,-1.0,-1.0,1.0,0.0,0.0,0.0,0.0,0.0,0.0,0.0,0.0,0.0,0.3333,0.0,0.3333,0.0,0
2.16,run,-8.17,2.72,-8.6,15.27,-5.3,0.0,0.05,0.0,0.682,-34.28,-15.29,84.46,-10.28,-5.54,106.79,22.15,-18.11,128.23,10.37,-18.9,70.4,-4.48,-52.82,124.28,-20.74,-15.91,97.91,-35.0,-7.57,74.73,-5.0,-1.29,112.72,31.68,-11.1,124.81,17.8,-26.98,72.53,4.41,-58.18,132.13,-28.94,-22.83,106.46,-1.0,1.0,-1.0,0.7794,0.9687,1.0,1.0,0.2207,-1.0,1.0,-1.0,0.9568,1.0,-1.0,1.0,-1.0,-1.0,1.0,0.006,0.013,0.013,0.033,0.0,0.033,0.039,0.682,0.156,0.006,0.013,0.013,0.019,0.039,0.006,0.169,0.0,0.039,-0.5983,-0.5921,0.115,-0.2086,-0.3497,0.4771,0.362,-0.6335,0.8636,0.181,-0.6059,-0.1396,-0.0951,-1.2333,0.7946,-0.3344,-0.566,0.3313,-0.0208,-0.1049,-0.267,0.2631,-0.2554,0.2996,0.2914,0.043,0.233,-0.1175,-0.2676,-0.1378,0.2536,-0.2393,-0.0773,-0.2693,-0.2906,0.2777,-1.0409,-0.1172,-0.1355,0.2543,-0.0811,-1.0,1.0,-1.0,1.0,0.7977,1.0,1.0,0.8197,-1.0,1.0,-1.0,0.4439,1.0,-1.0,1.0,-1.0,-1.0,1.0,0.0,0.0,0.0,0.0,0.0,0.0,0.0,0.0,0.0,0.3333,0.0,0.3333,0.0,0
2.2,run,-8.52,3.33,-8.24,16.31,-6.1,0.0,0.05,0.0,0.682,-33.75,-14.94,83.5,-9.14,-5.71,107.93,23.29,-17.31,128.5,9.93,-20.39,70.4,-3.34,-53.61,123.31,-21.88,-17.23,98.88,-35.0,-6.07,73.23,-3.63,0.21,114.22,33.18,-12.6,123.31,19.3,-28.48,74.03,5.91,-59.68,133.63,-30.44,-24.33,107.96,-1.0,1.0,-1.0,-0.1037,1.0,1.0,1.0,-0.1914,-1.0,1.0,-1.0,1.0,1.0,-1.0,1.0,-1.0,-1.0,1.0,0.006,0.013,0.013,0.033,0.0,0.033,0.039,0.682,0.156,0.006,0.013,0.013,0.019,0.039,0.006,0.169,0.0,0.039,-0.5937,-0.5798,0.0905,-0.1902,-0.362,0.4985,0.3835,-0.6197,0.8713,0.1749,-0.6182,-0.1457,-0.0767,-1.2471,0.7793,-0.3543,-0.586,0.3482,0.0034,-0.0254,-0.2831,0.2563,-0.2268,0.2939,0.2881,0.0842,0.1931,-0.1063,-0.2354,-0.1205,0.2496,-0.2216,-0.1142,-0.2666,-0.2815,0.2605,-1.0668,-0.0653,-0.1501,0.2665,-0.0924,-1.0,1.0,-1.0,0.7794,0.9687,1.0,1.0,0.2207,-1.0,1.0,-1.0,0.9568,1.0,-1.0,1.0,-1.0,-1.0,1.0,0.0,0.0,0.0,0.0,0.0,0.0,0.0,0.0,0.0,0.3333,0.0,0.3333,0.0,0
2.24,run,-8.98,3.98,-11.43,15.52,-9.47,0.0,0.05,0.0,0.682,-33.49,-13.62,82.44,-8.09,-5.98,109.16,24.61,-16.26,128.5,9.84,-21.8,70.58,-2.29,-54.58,122.61,-23.38,-18.46,99.93,-35.0,-4.57,71.73,-5.13,1.71,115.72,34.68,-14.1,121.81,20.8,-29.98,75.53,7.41,-61.18,135.13,-31.94,-25.83,109.46,-1.0,1.0,-1.0,-1.0,1.0,1.0,1.0,-0.8308,-1.0,1.0,-1.0,1.0,1.0,-1.0,1.0,-1.0,-1.0,1.0,0.013,0.019,0.0,0.026,0.026,0.091,0.052,0.572,0.026,0.013,0.013,0.013,0.033,0.026,0.006,0.182,0.0,0.104,-0.5844,-0.5737,0.0736,-0.1703,-0.3651,0.5185,0.4034,-0.6059,0.8759,0.1672,-0.6443,-0.1457,-0.0568,-1.2609,0.7624,-0.3743,-0.609,0.3651,0.0367,0.0051,-0.2611,0.2538,-0.1702,0.2801,0.276,0.1104,0.1523,-0.103,-0.262,-0.0844,0.2491,-0.2066,-0.1429,-0.261,-0.2829,0.2453,-1.0971,-0.0122,-0.1437,0.2847,-0.1065,-1.0,1.0,-1.0,-0.1037,1.0,1.0,1.0,-0.1914,-1.0,1.0,-1.0,1.0,1.0,-1.0,1.0,-1.0,-1.0,1.0,0.0,0.0,0.0,0.0,0.0,0.0,0.0,0.0,0.0,0.3333,0.0,0.3333,0.0,0
2.28,run,-9.54,4.36,-16.48,9.34,-11.13,0.0,0.05,0.0,0.682,-32.96,-12.48,81.39,-6.94,-5.98,110.65,25.93,-15.38,128.5,10.37,-23.2,71.28,-0.88,-55.72,121.82,-24.79,-19.78,101.07,-33.5,-3.07,70.23,-6.63,3.21,117.22,35.0,-15.6,120.31,22.3,-31.48,77.03,8.91,-62.68,136.63,-33.44,-27.33,110.96,-0.3324,1.0,-1.0,-1.0,1.0,1.0,1.0,-1.0,-1.0,1.0,-1.0,1.0,1.0,-1.0,1.0,-1.0,-1.0,1.0,0.013,0.019,0.0,0.026,0.026,0.091,0.052,0.572,0.026,0.013,0.013,0.013,0.033,0.026,0.006,0.182,0.0,0.104,-0.5798,-0.5507,0.0552,-0.1519,-0.3697,0.54,0.4264,-0.5875,0.8759,0.1657,-0.6688,-0.1427,-0.0383,-1.2778,0.7501,-0.4004,-0.6305,0.3835,0.043,0.0899,-0.2518,0.2467,-0.1364,0.2766,0.2795,0.1463,0.1066,-0.0779,-0.2755,-0.0475,0.2434,-0.2079,-0.146,-0.2805,-0.2786,0.2407,-1.1367,0.044,-0.1996,0.2708,-0.1653,-1.0,1.0,-1.0,-1.0,1.0,1.0,1.0,-0.8308,-1.0,1.0,-1.0,1.0,1.0,-1.0,1.0,-1.0,-1.0,1.0,0.0,0.0,0.0,0.0,0.0,0.0,0.0,0.0,0.0,0.3333,0.0,0.3333,0.0,0
2.32,run,-9.72,4.72,-7.43,8.84,-9.05,0.0,0.05,0.0,0.682,-32.26,-11.34,80.16,-5.8,-5.62,112.06,27.33,-14.24,127.88,10.81,-24.61,72.33,0.62,-56.87,121.73,-26.19,-21.27,102.3,-32.0,-1.57,68.73,-8.13,4.71,118.72,35.0,-17.1,118.81,23.8,-32.98,78.53,10.41,-64.18,138.13,-34.94,-28.83,112.46,0.5461,1.0,-0.5438,-1.0,1.0,1.0,1.0,-0.2064,-1.0,1.0,-1.0,1.0,1.0,-1.0,1.0,-1.0,-1.0,1.0,0.013,0.019,0.0,0.026,0.026,0.091,0.052,0.572,0.026,0.013,0.013,0.013,0.033,0.026,0.006,0.182,0.0,0.104,-0.5706,-0.5308,0.0368,-0.1319,-0.3697,0.566,0.4495,-0.5722,0.8759,0.1749,-0.6934,-0.1304,-0.0138,-1.2977,0.7363,-0.4249,-0.6535,0.4034,0.0646,0.1377,-0.2453,0.2475,-0.0955,0.2914,0.282,0.1599,0.0746,-0.02,-0.2849,0.0127,0.2624,-0.2203,-0.154,-0.2884,-0.2813,0.2433,-1.1857,0.0776,-0.2876,0.163,-0.1943,-0.3324,1.0,-1.0,-1.0,1.0,1.0,1.0,-1.0,-1.0,1.0,-1.0,1.0,1.0,-1.0,1.0,-1.0,-1.0,1.0,0.0,0.0,0.0,0.0,0.0,0.0,0.0,0.0,0.0,0.3333,0.0,0.3333,0.0,0
2.36,run,-9.98,4.86,-10.91,4.26,-8.99,0.0,0.05,0.0,0.682,-31.9,-10.46,79.19,-5.01,-5.01,113.2,28.48,-13.45,127.0,11.16,-25.75,73.39,1.85,-57.92,121.11,-27.42,-22.59,103.36,-30.5,-0.07,67.23,-9.63,6.21,117.22,35.0,-18.6,117.31,25.3,-34.48,80.03,11.91,-62.68,139.63,-35.0,-30.33,113.96,1.0,1.0,-0.5684,-1.0,1.0,0.5958,1.0,-1.0,-1.0,1.0,-1.0,1.0,1.0,-0.3585,1.0,-1.0,-1.0,1.0,0.006,0.058,0.006,0.013,0.123,0.084,0.084,0.507,0.0,0.013,0.019,0.019,0.006,0.026,0.006,0.143,0.006,0.149,-0.5584,-0.5108,0.0153,-0.112,-0.3636,0.5906,0.474,-0.5522,0.8652,0.1825,-0.7179,-0.112,0.0123,-1.3177,0.7348,-0.4495,-0.6796,0.4249,0.0858,0.1623,-0.2426,0.2391,-0.0466,0.2851,0.2784,0.1778,0.0168,0.0113,-0.2805,0.0697,0.2698,-0.2201,-0.1129,-0.283,-0.283,0.2412,-1.2018,0.1087,-0.1296,0.1542,-0.158,0.5461,1.0,-0.5438,-1.0,1.0,1.0,1.0,-0.2064,-1.0,1.0,-1.0,1.0,1.0,-1.0,1.0,-1.0,-1.0,1.0,0.0,0.0,0.0,0.0,0.0,0.0,0.0,0.0,0.0,0.3333,0.0,0.3333,0.0,0
2.4,run,-10.76,5.0,-17.33,2.64,-10.38,0.0,0.05,0.0,0.682,-31.64,-8.88,77.52,-4.13,-3.6,114.7,30.15,-12.74,125.51,12.22,-27.51,75.15,3.6,-59.59,121.2,-29.18,-24.26,105.03,-29.0,1.43,68.38,-11.13,7.71,115.72,35.0,-17.1,115.81,26.8,-35.98,81.53,13.41,-61.18,141.13,-35.0,-31.83,115.46,1.0,1.0,0.0398,-1.0,1.0,0.4741,1.0,0.6414,-1.0,1.0,-1.0,1.0,1.0,-0.0486,1.0,-1.0,-1.0,1.0,0.006,0.058,0.006,0.013,0.123,0.084,0.084,0.507,0.0,0.013,0.019,0.019,0.006,0.026,0.006,0.143,0.006,0.149,-0.5522,-0.4955,-0.0015,-0.0982,-0.3528,0.6105,0.4939,-0.5384,0.8498,0.1887,-0.7378,-0.0936,0.0337,-1.3361,0.724,-0.4709,-0.7026,0.4433,0.0866,0.1801,-0.243,0.2272,0.0139,0.286,0.2813,0.1843,-0.0547,0.0345,-0.2828,0.1286,0.282,-0.2338,-0.1255,-0.2911,-0.2978,0.2486,-1.2246,0.1214,-0.1904,0.0743,-0.1569,1.0,1.0,-0.5684,-1.0,1.0,0.5958,1.0,-1.0,-1.0,1.0,-1.0,1.0,1.0,-0.3585,1.0,-1.0,-1.0,1.0,0.0,0.0,0.0,0.0,0.0,0.0,0.0,0.0,0.0,0.3333,0.0,0.3333,0.0,0
2.44,run,-11.39,4.83,-16.43,-4.43,-8.68,0.0,0.05,0.0,0.682,-31.11,-7.47,76.11,-3.96,-2.29,115.66,31.46,-12.48,124.28,13.36,-29.0,76.55,5.01,-60.82,122.08,-30.5,-25.66,106.44,-27.5,2.93,69.88,-12.63,9.21,114.22,35.0,-16.83,114.31,28.3,-37.48,83.03,14.91,-62.68,142.63,-35.0,-33.33,116.96,1.0,1.0,0.3235,-1.0,1.0,0.3158,1.0,0.1485,-1.0,1.0,-1.0,1.0,1.0,-0.6952,0.915,-1.0,-1.0,1.0,0.006,0.058,0.006,0.013,0.123,0.084,0.084,0.507,0.0,0.013,0.019,0.019,0.006,0.026,0.006,0.143,0.006,0.149,-0.5476,-0.4679,-0.0307,-0.0828,-0.3283,0.6366,0.5231,-0.5262,0.8237,0.2071,-0.7685,-0.0629,0.0644,-1.3652,0.7256,-0.5016,-0.7317,0.4725,0.0749,0.2115,-0.2603,0.2065,0.0857,0.2809,0.2871,0.167,-0.119,0.0811,-0.2929,0.1849,0.2923,-0.2539,-0.0831,-0.2987,-0.2987,0.2642,-1.2921,0.1336,-0.3024,0.046,-0.1811,1.0,1.0,0.0398,-1.0,1.0,0.4741,1.0,0.6414,-1.0,1.0,-1.0,1.0,1.0,-0.0486,1.0,-1.0,-1.0,1.0,0.0,0.0,0.0,0.0,0.0,0.0,0.0,0.0,0.0,0.3333,0.0,0.3333,0.0,0
2.48,run,-11.91,4.61,-14.64,-4.29,-9.81,0.0,0.05,0.0,0.682,-30.15,-5.98,74.62,-4.04,-0.88,116.28,32.43,-12.39,122.96,14.68,-30.5,77.96,6.42,-61.79,122.96,-31.9,-27.07,107.84,-26.0,4.43,71.38,-14.13,10.71,112.72,35.0,-15.33,112.81,29.8,-38.98,84.53,16.41,-64.18,141.13,-35.0,-34.83,118.46,1.0,1.0,0.511,-1.0,1.0,-0.0176,1.0,1.0,-1.0,1.0,-1.0,1.0,1.0,-0.9909,0.6193,-1.0,-1.0,1.0,0.013,0.045,0.0,0.019,0.13,0.065,0.045,0.019,0.006,0.013,0.013,0.019,0.013,0.026,0.019,0.13,0.0,0.169,-0.5384,-0.4433,-0.0552,-0.0798,-0.3053,0.6535,0.5461,-0.5216,0.8023,0.227,-0.7946,-0.0383,0.089,-1.3867,0.7409,-0.5246,-0.7563,0.497,0.0867,0.2394,-0.2735,0.156,0.1456,0.2594,0.2866,0.134,-0.1632,0.131,-0.3021,0.2208,0.2959,-0.2576,-0.0011,-0.2947,-0.3004,0.2763,-1.3478,0.1182,-0.2868,-0.0773,-0.1516,1.0,1.0,0.3235,-1.0,1.0,0.3158,1.0,0.1485,-1.0,1.0,-1.0,1.0,1.0,-0.6952,0.915,-1.0,-1.0,1.0,0.0,0.0,0.0,0.0,0.0,0.0,0.0,0.0,0.0,0.3333,0.0,0.3333,0.0,0
2.52,run,-12.42,4.43,-12.61,-3.9,-4.36,0.0,0.05,0.0,0.682,-28.92,-4.57,73.3,-4.04,0.53,116.63,33.13,-12.57,121.82,16.17,-31.9,79.37,7.82,-62.49,124.1,-32.78,-28.48,109.34,-24.5,5.93,72.88,-15.63,12.21,111.22,35.0,-13.83,111.31,31.3,-40.48,86.03,14.91,-65.68,139.63,-35.0,-36.33,119.96,0.8601,1.0,0.8703,-1.0,1.0,-0.2809,1.0,0.8422,-1.0,1.0,-1.0,1.0,0.303,-1.0,-0.0616,-1.0,-1.0,1.0,0.013,0.045,0.0,0.019,0.13,0.065,0.045,0.019,0.006,0.013,0.013,0.019,0.013,0.026,0.019,0.13,0.0,0.169,-0.5216,-0.4172,-0.0813,-0.0813,-0.2807,0.6642,0.563,-0.52,0.7793,0.25,-0.8207,-0.0138,0.1135,-1.4036,0.7563,-0.5492,-0.7808,0.5216,0.1239,0.2653,-0.2892,0.1034,0.1939,0.2218,0.2638,0.0996,-0.2005,0.1779,-0.3091,0.2465,0.2991,-0.2436,0.0567,-0.2983,-0.3022,0.2854,-1.3929,0.0991,-0.2555,-0.0748,-0.1713,1.0,1.0,0.511,-1.0,1.0,-0.0176,1.0,1.0,-1.0,1.0,-1.0,1.0,1.0,-0.9909,0.6193,-1.0,-1.0,1.0,0.0,0.0,0.0,0.0,0.0,0.0,0.0,0.0,0.0,0.3333,0.0,0.3333,0.0,0
2.56,run,-12.77,4.17,-9.98,-7.35,0.4,0.0,0.05,0.0,0.682,-27.69,-3.16,72.25,-5.1,1.85,116.72,33.66,-13.71,120.94,17.58,-33.31,80.77,9.32,-63.46,125.51,-33.57,-29.88,110.65,-23.0,7.43,74.38,-17.13,13.71,109.72,35.0,-12.33,109.81,32.8,-41.98,87.53,13.41,-67.18,138.13,-35.0,-37.83,121.46,-0.1198,1.0,1.0,-1.0,1.0,-0.4331,1.0,1.0,-1.0,1.0,-1.0,1.0,-0.7139,-1.0,-0.7808,-1.0,-1.0,1.0,0.013,0.045,0.0,0.019,0.13,0.065,0.045,0.019,0.006,0.013,0.013,0.019,0.013,0.026,0.019,0.13,0.0,0.169,-0.5001,-0.3927,-0.1043,-0.0813,-0.2562,0.6703,0.5752,-0.5231,0.7593,0.2761,-0.8452,0.0107,0.1381,-1.4159,0.7762,-0.5645,-0.8053,0.5476,0.1672,0.2777,-0.2886,0.0724,0.2277,0.1783,0.2307,0.0582,-0.2151,0.2223,-0.3084,0.2645,0.3014,-0.2165,0.1144,-0.2663,-0.3035,0.2975,-1.4377,0.0841,-0.2201,-0.0681,-0.076,0.8601,1.0,0.8703,-1.0,1.0,-0.2809,1.0,0.8422,-1.0,1.0,-1.0,1.0,0.303,-1.0,-0.0616,-1.0,-1.0,1.0,0.0,0.0,0.0,0.0,0.0,0.0,0.0,0.0,0.0,0.3333,0.0,0.3333,0.0,0
2.6,run,-13.34,3.87,-15.88,-6.73,4.47,0.0,0.05,0.0,0.682,-26.28,-1.67,71.37,-6.33,3.08,116.54,33.75,-14.06,119.44,18.98,-34.8,82.18,10.55,-64.69,127.0,-33.93,-31.29,112.15,-24.5,8.93,75.88,-18.63,15.21,108.22,35.0,-10.83,108.31,34.3,-43.48,89.03,11.91,-68.01,136.63,-35.0,-39.33,122.96,-1.0,1.0,1.0,-1.0,1.0,-0.6273,1.0,1.0,-1.0,1.0,-1.0,1.0,-1.0,-0.782,-1.0,-1.0,-1.0,1.0,0.006,0.033,0.0,0.033,0.169,0.0,0.026,0.0,0.019,0.019,0.006,0.026,0.006,0.019,0.006,0.071,0.0,0.169,-0.4786,-0.3682,-0.1227,-0.0997,-0.2332,0.6719,0.5844,-0.543,0.744,0.3007,-0.8698,0.0353,0.1641,-1.4327,0.8007,-0.5783,-0.8299,0.5706,0.1977,0.2865,-0.2712,-0.0184,0.2458,0.1305,0.196,-0.0342,-0.2081,0.2478,-0.308,0.2773,0.3089,-0.2149,0.1723,-0.2382,-0.3047,0.2946,-1.4674,0.0606,-0.1741,-0.1284,0.007,-0.1198,1.0,1.0,-1.0,1.0,-0.4331,1.0,1.0,-1.0,1.0,-1.0,1.0,-0.7139,-1.0,-0.7808,-1.0,-1.0,1.0,0.0,0.0,0.0,0.0,0.0,0.0,0.0,0.0,0.0,0.3333,0.0,0.3333,0.0,0
2.64,run,-13.85,3.44,-12.55,-9.84,6.39,0.0,0.05,0.0,0.682,-24.96,-0.18,70.84,-7.82,4.57,115.49,33.93,-14.59,117.86,20.48,-36.56,83.76,11.87,-65.92,128.58,-33.93,-32.78,113.73,-26.0,10.43,77.38,-20.13,16.71,106.72,35.0,-9.33,106.81,35.0,-44.98,90.53,10.41,-69.51,135.13,-35.0,-40.83,124.46,-1.0,1.0,1.0,-1.0,1.0,-1.0,1.0,1.0,-1.0,1.0,-1.0,1.0,-1.0,-1.0,-1.0,-1.0,-1.0,1.0,0.006,0.033,0.0,0.033,0.169,0.0,0.026,0.0,0.019,0.019,0.006,0.026,0.006,0.019,0.006,0.071,0.0,0.169,-0.4541,-0.3421,-0.1381,-0.1212,-0.2117,0.6688,0.586,-0.5492,0.7179,0.3252,-0.8958,0.0598,0.1856,-1.4542,0.8268,-0.5844,-0.8544,0.5967,0.229,0.2969,-0.2465,-0.0922,0.2514,0.08,0.1429,-0.0466,-0.242,0.2641,-0.3119,0.2848,0.2955,-0.2297,0.2169,-0.1894,-0.3039,0.3026,-1.5176,0.0348,-0.2771,-0.1174,0.078,-1.0,1.0,1.0,-1.0,1.0,-0.6273,1.0,1.0,-1.0,1.0,-1.0,1.0,-1.0,-0.782,-1.0,-1.0,-1.0,1.0,0.0,0.0,0.0,0.0,0.0,0.0,0.0,0.0,0.0,0.3333,0.0,0.3333,0.0,0
2.68,run,-14.46,3.27,-16.65,-4.22,3.97,0.0,0.05,0.0,0.682,-24.08,1.23,70.75,-9.23,6.06,114.52,33.93,-14.59,116.54,21.97,-37.79,85.17,12.57,-66.97,129.9,-34.1,-34.28,115.22,-27.5,11.93,78.88,-21.63,18.21,105.22,35.0,-7.83,105.31,35.0,-46.48,92.03,8.91,-71.01,133.63,-35.0,-42.33,125.96,-1.0,1.0,1.0,-1.0,1.0,-1.0,1.0,1.0,-1.0,1.0,-1.0,1.0,-1.0,-1.0,-1.0,-1.0,-1.0,1.0,0.006,0.033,0.0,0.033,0.169,0.0,0.026,0.0,0.019,0.019,0.006,0.026,0.006,0.019,0.006,0.071,0.0,0.169,-0.431,-0.316,-0.1473,-0.1473,-0.1856,0.6504,0.589,-0.5584,0.6903,0.3513,-0.9265,0.0874,0.2086,-1.4757,0.8544,-0.5844,-0.8805,0.6243,0.2398,0.2978,-0.2043,-0.1546,0.266,-0.0075,0.1106,-0.0644,-0.2647,0.2749,-0.3243,0.2947,0.2863,-0.235,0.2471,-0.1326,-0.3028,0.3071,-1.5621,-0.0023,-0.219,-0.1718,0.1116,-1.0,1.0,1.0,-1.0,1.0,-1.0,1.0,1.0,-1.0,1.0,-1.0,1.0,-1.0,-1.0,-1.0,-1.0,-1.0,1.0,0.0,0.0,0.0,0.0,0.0,0.0,0.0,0.0,0.0,0.3333,0.0,0.3333,0.0,0
2.72,run,-15.56,3.04,-19.32,-4.6,5.93,0.0,0.05,0.0,0.682,-23.38,3.16,70.84,-11.16,8.17,112.41,33.93,-14.24,114.7,23.82,-39.55,87.1,13.27,-68.64,131.75,-34.1,-36.12,117.25,-29.0,13.43,80.38,-23.13,19.71,103.72,35.0,-6.33,103.81,35.0,-47.98,93.53,7.41,-72.51,132.13,-35.0,-43.83,127.46,-1.0,1.0,1.0,-1.0,1.0,-1.0,1.0,1.0,-1.0,1.0,-1.0,1.0,-1.0,-1.0,-1.0,-1.0,-1.0,1.0,0.006,0.058,0.026,0.039,0.136,0.0,0.033,0.039,0.052,0.065,0.013,0.026,0.006,0.019,0.006,0.052,0.0,0.123,-0.4157,-0.2915,-0.1488,-0.1718,-0.1595,0.6335,0.589,-0.5584,0.6673,0.3774,-0.948,0.112,0.2209,-1.4941,0.8774,-0.5875,-0.9066,0.6504,0.2247,0.2995,-0.1487,-0.1992,0.2829,-0.0678,0.0774,-0.0451,-0.2707,0.2891,-0.3066,0.2973,0.2459,-0.2327,0.2583,-0.1042,-0.3086,0.3117,-1.6151,-0.0173,-0.2906,-0.0736,0.0693,-1.0,1.0,1.0,-1.0,1.0,-1.0,1.0,1.0,-1.0,1.0,-1.0,1.0,-1.0,-1.0,-1.0,-1.0,-1.0,1.0,0.0,0.0,0.0,0.0,0.0,0.0,0.0,0.0,0.0,0.3333,0.0,0.3333,0.0,0
2.76,run,-16.26,2.78,-18.15,-6.19,7.03,0.0,0.05,0.0,0.682,-23.29,4.48,71.63,-12.57,9.76,111.01,33.93,-13.18,113.38,25.05,-41.04,88.42,13.18,-70.05,132.63,-34.1,-37.62,118.74,-30.5,14.93,81.88,-24.63,21.21,102.22,35.0,-4.83,102.31,35.0,-49.48,95.03,5.91,-74.01,130.63,-35.0,-45.33,128.96,-1.0,1.0,1.0,-1.0,1.0,-1.0,1.0,1.0,-1.0,1.0,-1.0,1.0,-1.0,-1.0,-1.0,-1.0,-1.0,1.0,0.006,0.058,0.026,0.039,0.136,0.0,0.033,0.039,0.052,0.065,0.013,0.026,0.006,0.019,0.006,0.052,0.0,0.123,-0.4034,-0.2577,-0.1473,-0.2056,-0.1227,0.5967,0.589,-0.5522,0.6351,0.4096,-0.9787,0.1457,0.2332,-1.5232,0.9097,-0.5875,-0.9388,0.6857,0.1898,0.299,-0.1,-0.2288,0.2955,-0.145,0.0542,-0.0153,-0.2747,0.2877,-0.2959,0.2975,0.2046,-0.2401,0.2661,-0.0729,-0.3013,0.3116,-1.7113,-0.0379,-0.3372,-0.0803,0.1036,-1.0,1.0,1.0,-1.0,1.0,-1.0,1.0,1.0,-1.0,1.0,-1.0,1.0,-1.0,-1.0,-1.0,-1.0,-1.0,1.0,0.0,0.0,0.0,0.0,0.0,0.0,0.0,0.0,0.0,0.3333,0.0,0.3333,0.0,0
2.8,run,-16.91,2.6,-16.72,-4.32,5.17,0.0,0.05,0.0,0.682,-23.47,5.71,72.6,-13.97,11.25,109.69,34.01,-12.13,112.06,26.28,-42.45,89.82,12.66,-71.1,133.24,-34.1,-38.85,120.15,-32.0,16.43,83.38,-26.13,22.71,100.72,35.0,-3.33,100.81,35.0,-50.98,96.53,4.41,-75.51,129.13,-35.0,-46.83,130.46,-1.0,0.8518,1.0,-1.0,1.0,-1.0,1.0,1.0,-1.0,1.0,-1.0,1.0,-1.0,-1.0,-1.0,-1.0,-1.0,1.0,0.006,0.058,0.026,0.039,0.136,0.0,0.033,0.039,0.052,0.065,0.013,0.026,0.006,0.019,0.006,0.052,0.0,0.123,-0.4019,-0.2347,-0.1335,-0.2301,-0.0951,0.5722,0.589,-0.5338,0.6121,0.431,-1.0048,0.1687,0.2316,-1.5478,0.925,-0.5875,-0.9649,0.7118,0.1386,0.296,-0.018,-0.2526,0.3109,-0.1939,0.0379,0.0586,-0.279,0.2823,-0.3054,0.2949,0.1375,-0.2605,0.2441,-0.0511,-0.3092,0.3164,-1.7727,-0.0607,-0.3168,-0.1081,0.1226,-1.0,1.0,1.0,-1.0,1.0,-1.0,1.0,1.0,-1.0,1.0,-1.0,1.0,-1.0,-1.0,-1.0,-1.0,-1.0,1.0,0.0,0.0,0.0,0.0,0.0,0.0,0.0,0.0,0.0,0.3333,0.0,0.3333,0.0,0
2.84,run,-17.58,2.46,-18.56,-3.15,-7.81,0.0,0.05,0.0,0.682,-24.35,7.12,73.83,-15.38,12.74,108.28,34.01,-10.81,110.74,27.77,-43.86,91.14,11.78,-72.42,133.42,-34.1,-40.17,121.46,-33.5,17.93,84.88,-27.63,24.21,99.22,35.0,-1.83,99.31,35.0,-52.48,98.03,2.91,-77.01,127.63,-35.0,-48.33,131.96,-1.0,0.8925,1.0,-1.0,1.0,-1.0,1.0,1.0,-1.0,1.0,-1.0,1.0,-1.0,-1.0,-1.0,-1.0,-1.0,1.0,0.013,0.091,0.058,0.033,0.117,0.0,0.026,0.065,0.058,0.045,0.019,0.039,0.013,0.019,0.013,0.065,0.0,0.143,-0.405,-0.2132,-0.1166,-0.2546,-0.069,0.5492,0.5906,-0.5154,0.589,0.4525,-1.0293,0.1933,0.2224,-1.5662,0.9357,-0.5875,-0.9863,0.7363,0.0856,0.2871,0.0502,-0.2681,0.3146,-0.2213,0.0323,0.1095,-0.2809,0.2775,-0.305,0.2977,0.062,-0.2508,0.2108,-0.0357,-0.2963,0.3128,-1.829,-0.0763,-0.2919,-0.0755,0.0902,-1.0,0.8518,1.0,-1.0,1.0,-1.0,1.0,1.0,-1.0,1.0,-1.0,1.0,-1.0,-1.0,-1.0,-1.0,-1.0,1.0,0.0,0.0,0.0,0.0,0.0,0.0,0.0,0.0,0.0,0.3333,0.0,0.3333,0.0,0
2.88,run,-18.11,2.03,-13.43,-7.85,-4.17,0.0,0.05,0.0,0.682,-25.31,8.35,75.15,-16.88,14.15,106.88,34.01,-9.49,109.34,29.18,-45.18,92.55,10.72,-73.74,133.42,-34.19,-41.31,122.87,-35.0,17.54,86.38,-29.13,25.71,97.72,35.0,-0.33,97.81,35.0,-53.98,99.53,1.41,-78.51,126.13,-35.0,-49.83,133.46,-1.0,0.7734,1.0,-1.0,1.0,-1.0,1.0,1.0,-1.0,1.0,-1.0,1.0,-1.0,-1.0,-1.0,-1.0,-1.0,0.8582,0.013,0.091,0.058,0.033,0.117,0.0,0.026,0.065,0.058,0.045,0.019,0.039,0.013,0.019,0.013,0.065,0.0,0.143,-0.4203,-0.1887,-0.0951,-0.2792,-0.043,0.5246,0.5906,-0.4924,0.566,0.4786,-1.0538,0.2163,0.2071,-1.5892,0.9388,-0.5875,-1.0094,0.7593,0.002,0.2937,0.1163,-0.2805,0.3188,-0.2477,0.0226,0.1636,-0.2836,0.2928,-0.3063,0.2954,-0.0146,-0.2626,0.1592,-0.025,-0.2944,0.3059,-1.8879,-0.0879,-0.3239,-0.055,-0.1363,-1.0,0.8925,1.0,-1.0,1.0,-1.0,1.0,1.0,-1.0,1.0,-1.0,1.0,-1.0,-1.0,-1.0,-1.0,-1.0,1.0,0.0,0.0,0.0,0.0,0.0,0.0,0.0,0.0,0.0,0.3333,0.0,0.3333,0.0,0
2.92,run,-18.95,1.71,-21.48,-8.02,0.84,0.0,0.05,0.0,0.682,-26.63,9.49,76.55,-18.28,15.73,105.47,34.1,-8.17,107.84,30.5,-46.67,93.96,9.32,-75.15,132.54,-34.19,-42.89,124.37,-35.0,16.04,87.88,-30.63,27.21,96.22,35.0,1.17,96.31,35.0,-55.48,101.03,-0.09,-80.0,124.63,-35.0,-51.33,131.96,-1.0,0.1488,1.0,-1.0,1.0,-1.0,1.0,1.0,-1.0,1.0,-0.8683,1.0,-1.0,-1.0,-1.0,-1.0,-1.0,0.6979,0.013,0.091,0.058,0.033,0.117,0.0,0.026,0.065,0.058,0.045,0.019,0.039,0.013,0.019,0.013,0.065,0.0,0.143,-0.4372,-0.1672,-0.0721,-0.3053,-0.0184,0.5001,0.5906,-0.4694,0.5415,0.5031,-1.0769,0.2408,0.1887,-1.6122,0.9388,-0.589,-1.0293,0.7839,-0.0613,0.2854,0.1669,-0.2932,0.3143,-0.2646,0.0158,0.2,-0.2897,0.2961,-0.2999,0.2979,-0.0786,-0.2692,0.1114,-0.0232,-0.2801,0.3053,-1.9339,-0.1256,-0.2343,-0.137,-0.0728,-1.0,0.7734,1.0,-1.0,1.0,-1.0,1.0,1.0,-1.0,1.0,-1.0,1.0,-1.0,-1.0,-1.0,-1.0,-1.0,0.8582,0.0,0.0,0.0,0.0,0.0,0.0,0.0,0.0,0.0,0.3333,0.0,0.3333,0.0,0
2.96,run,-19.72,1.06,-19.38,-15.57,3.9,0.0,0.05,0.0,0.682,-27.95,10.72,77.78,-19.69,17.31,104.06,34.1,-6.86,106.35,31.73,-48.16,95.27,8.0,-76.46,131.66,-34.19,-44.38,126.04,-35.0,14.54,89.38,-32.13,28.71,94.72,35.0,2.67,94.81,35.0,-56.98,102.53,-1.59,-80.0,123.13,-35.0,-52.83,130.46,-1.0,-0.1257,1.0,-1.0,1.0,-1.0,1.0,1.0,-1.0,1.0,-0.8767,1.0,-1.0,-1.0,-1.0,-1.0,-1.0,0.5376,0.033,0.143,0.065,0.033,0.058,0.0,0.026,0.084,0.045,0.058,0.013,0.052,0.013,0.019,0.013,0.045,0.0,0.078,-0.4602,-0.1473,-0.0476,-0.3298,0.0092,0.4755,0.5921,-0.4464,0.5154,0.5262,-1.1029,0.2654,0.1641,-1.6368,0.9235,-0.589,-1.0569,0.8099,-0.1294,0.2747,0.209,-0.2974,0.3238,-0.2774,0.0168,0.2265,-0.3008,0.2937,-0.3079,0.3008,-0.1472,-0.2807,0.0203,-0.0162,-0.2998,0.3117,-2.0074,-0.1533,-0.3749,-0.14,0.0147,-1.0,0.1488,1.0,-1.0,1.0,-1.0,1.0,1.0,-1.0,1.0,-0.8683,1.0,-1.0,-1.0,-1.0,-1.0,-1.0,0.6979,0.0,0.0,0.0,0.0,0.0,0.0,0.0,0.0,0.0,0.3333,0.0,0.3333,0.0,0
3.0,run,-20.38,0.72,-16.53,-10.84,4.97,0.0,0.05,0.0,0.682,-29.27,11.95,79.19,-21.18,18.81,102.57,34.1,-5.62,104.77,32.78,-49.83,96.68,6.5,-77.78,130.52,-34.19,-45.7,127.44,-35.0,13.04,90.88,-33.63,30.0,93.22,35.0,4.17,93.31,35.0,-55.48,104.03,-3.09,-80.0,121.63,-33.5,-54.33,128.96,-1.0,-0.8541,1.0,-1.0,1.0,-1.0,1.0,1.0,-1.0,1.0,-0.3735,1.0,-1.0,-1.0,-1.0,-0.6729,-1.0,0.347,0.033,0.143,0.065,0.033,0.058,0.0,0.026,0.084,0.045,0.058,0.013,0.052,0.013,0.019,0.013,0.045,0.0,0.078,-0.4832,-0.1258,-0.0261,-0.3543,0.0368,0.451,0.5921,-0.4234,0.4893,0.5476,-1.129,0.2884,0.1411,-1.6598,0.9081,-0.589,-1.083,0.8391,-0.1768,0.2727,0.2268,-0.3002,0.3301,-0.2861,0.0118,0.2447,-0.3082,0.2861,-0.3132,0.2967,-0.1893,-0.2827,-0.0432,-0.0114,-0.3076,0.3274,-2.0741,-0.2104,-0.3383,-0.2717,0.068,-1.0,-0.1257,1.0,-1.0,1.0,-1.0,1.0,1.0,-1.0,1.0,-0.8767,1.0,-1.0,-1.0,-1.0,-1.0,-1.0,0.5376,0.0,0.0,0.0,0.0,0.0,0.0,0.0,0.0,0.0,0.3333,0.0,0.3333,0.0,0
3.04,run,-20.99,0.43,-16.45,-6.94,-0.76,0.0,0.05,0.0,0.682,-30.5,12.92,80.6,-22.68,20.39,101.25,34.19,-4.31,103.18,33.57,-51.33,98.17,5.1,-78.75,129.02,-34.28,-47.02,128.76,-35.0,11.54,92.38,-35.0,30.0,91.72,35.0,5.67,91.81,35.0,-53.98,105.53,-4.59,-80.0,120.13,-32.0,-55.83,127.46,-1.0,-0.7278,1.0,-1.0,1.0,-1.0,1.0,1.0,-1.0,1.0,-0.2244,1.0,-1.0,-1.0,-1.0,-0.1384,-1.0,0.0723,0.033,0.143,0.065,0.033,0.058,0.0,0.026,0.084,0.045,0.058,0.013,0.052,0.013,0.019,0.013,0.045,0.0,0.078,-0.5062,-0.1043,-0.0015,-0.3804,0.0629,0.4249,0.5921,-0.4019,0.4617,0.566,-1.1582,0.3129,0.115,-1.6828,0.8882,-0.589,-1.106,0.8636,-0.2101,0.2715,0.2509,-0.308,0.3289,-0.2982,0.0082,0.2519,-0.3194,0.2693,-0.3286,0.2998,-0.2304,-0.2842,-0.1051,-0.008,-0.3017,0.3213,-2.1323,-0.2405,-0.2886,-0.1891,0.0868,-1.0,-0.8541,1.0,-1.0,1.0,-1.0,1.0,1.0,-1.0,1.0,-0.3735,1.0,-1.0,-1.0,-1.0,-0.6729,-1.0,0.347,0.0,0.0,0.0,0.0,0.0,0.0,0.0,0.0,0.0,0.3333,0.0,0.3333,0.0,0
3.18,tail,-21.25,0.65,-2.2,1.8,3.22,,0.0,0.0,0.682,-30.59,10.2,80.07,-23.99,21.45,97.56,34.19,-6.24,101.43,32.96,-53.17,98.88,2.11,-79.37,125.95,-33.4,-52.47,129.38,,,,,,,,,,,,,,,,,,,,,,,,,,,,,,,,,,,,,0.0,0.0,0.0,0.0,0.0,0.0,0.0,0.0,0.0,0.0,0.0,0.0,0.0,0.0,0.0,0.0,0.0,0.0,,,,,,,,,,,,,,,,,,,,,,,,,,,,,,,,,,,,,,,,,,,,,,,,,,,,,,,,,,,,,,,,,,,,,,,,,
3.28,tail,-21.59,2.45,-3.05,14.23,0.81,,0.0,0.0,0.682,-28.65,4.48,78.57,-23.99,21.36,97.12,34.19,-11.69,101.43,32.17,-53.17,97.47,1.85,-79.37,125.77,-33.22,-56.87,129.46,,,,,,,,,,,,,,,,,,,,,,,,,,,,,,,,,,,,,0.0,0.0,0.0,0.0,0.0,0.0,0.0,0.0,0.0,0.0,0.0,0.0,0.0,0.0,0.0,0.0,0.0,0.0,,,,,,,,,,,,,,,,,,,,,,,,,,,,,,,,,,,,,,,,,,,,,,,,,,,,,,,,,,,,,,,,,,,,,,,,,
3.38,tail,-21.67,2.69,-0.71,1.73,0.12,,0.0,0.0,0.682,-28.48,2.72,78.57,-23.99,21.36,97.73,34.19,-13.89,101.43,32.17,-53.17,97.38,1.85,-79.37,125.77,-33.22,-59.06,129.55,,,,,,,,,,,,,,,,,,,,,,,,,,,,,,,,,,,,,0.0,0.0,0.0,0.0,0.0,0.0,0.0,0.0,0.0,0.0,0.0,0.0,0.0,0.0,0.0,0.0,0.0,0.0,,,,,,,,,,,,,,,,,,,,,,,,,,,,,,,,,,,,,,,,,,,,,,,,,,,,,,,,,,,,,,,,,,,,,,,,,
3.48,tail,-21.69,2.71,-0.15,0.05,0.03,,0.0,0.0,0.682,-28.48,2.72,78.57,-23.99,21.36,97.73,34.19,-13.89,101.43,32.17,-53.17,97.38,1.85,-79.37,125.77,-33.22,-59.33,129.46,,,,,,,,,,,,,,,,,,,,,,,,,,,,,,,,,,,,,0.0,0.0,0.0,0.0,0.0,0.0,0.0,0.0,0.0,0.0,0.0,0.0,0.0,0.0,0.0,0.0,0.0,0.0,,,,,,,,,,,,,,,,,,,,,,,,,,,,,,,,,,,,,,,,,,,,,,,,,,,,,,,,,,,,,,,,,,,,,,,,,
3.58,tail,-21.69,2.75,-0.12,0.23,0.35,,0.0,0.0,0.682,-28.48,2.72,78.57,-23.99,21.36,97.73,34.19,-13.89,101.43,32.17,-53.17,97.38,1.85,-79.37,125.77,-33.22,-59.33,129.46,,,,,,,,,,,,,,,,,,,,,,,,,,,,,,,,,,,,,0.0,0.0,0.0,0.0,0.0,0.0,0.0,0.0,0.0,0.0,0.0,0.0,0.0,0.0,0.0,0.0,0.0,0.0,,,,,,,,,,,,,,,,,,,,,,,,,,,,,,,,,,,,,,,,,,,,,,,,,,,,,,,,,,,,,,,,,,,,,,,,,
3.68,tail,-21.7,2.76,-0.14,0.03,0.34,,0.0,0.0,0.682,-28.48,2.72,78.57,-23.99,21.36,97.73,34.19,-13.89,101.43,32.17,-53.17,97.38,1.85,-79.37,125.77,-33.22,-59.33,129.46,,,,,,,,,,,,,,,,,,,,,,,,,,,,,,,,,,,,,0.0,0.0,0.0,0.0,0.0,0.0,0.0,0.0,0.0,0.0,0.0,0.0,0.0,0.0,0.0,0.0,0.0,0.0,,,,,,,,,,,,,,,,,,,,,,,,,,,,,,,,,,,,,,,,,,,,,,,,,,,,,,,,,,,,,,,,,,,,,,,,,
3.78,tail,-21.71,2.78,-0.13,0.03,0.35,,0.0,0.0,0.682,-28.48,2.72,78.57,-23.99,21.36,97.73,34.19,-13.89,101.43,32.17,-53.17,97.38,1.85,-79.37,125.77,-33.22,-59.33,129.46,,,,,,,,,,,,,,,,,,,,,,,,,,,,,,,,,,,,,0.0,0.0,0.0,0.0,0.0,0.0,0.0,0.0,0.0,0.0,0.0,0.0,0.0,0.0,0.0,0.0,0.0,0.0,,,,,,,,,,,,,,,,,,,,,,,,,,,,,,,,,,,,,,,,,,,,,,,,,,,,,,,,,,,,,,,,,,,,,,,,,
3.88,tail,-21.72,2.79,-0.12,0.03,0.38,,0.0,0.0,0.682,-28.48,2.72,78.57,-23.99,21.36,97.73,34.19,-13.89,101.43,32.17,-53.17,97.38,1.85,-79.37,125.77,-33.22,-59.33,129.46,,,,,,,,,,,,,,,,,,,,,,,,,,,,,,,,,,,,,0.0,0.0,0.0,0.0,0.0,0.0,0.0,0.0,0.0,0.0,0.0,0.0,0.0,0.0,0.0,0.0,0.0,0.0,,,,,,,,,,,,,,,,,,,,,,,,,,,,,,,,,,,,,,,,,,,,,,,,,,,,,,,,,,,,,,,,,,,,,,,,,
3.98,tail,-21.73,2.8,-0.14,0.03,0.38,,0.0,0.0,0.682,-28.48,2.72,78.57,-23.99,21.36,97.73,34.19,-13.89,101.43,32.17,-53.17,97.38,1.85,-79.37,125.77,-33.22,-59.33,129.46,,,,,,,,,,,,,,,,,,,,,,,,,,,,,,,,,,,,,0.0,0.0,0.0,0.0,0.0,0.0,0.0,0.0,0.0,0.0,0.0,0.0,0.0,0.0,0.0,0.0,0.0,0.0,,,,,,,,,,,,,,,,,,,,,,,,,,,,,,,,,,,,,,,,,,,,,,,,,,,,,,,,,,,,,,,,,,,,,,,,,
4.08,tail,-21.73,2.81,-0.13,0.03,0.36,,0.0,0.0,0.682,-28.48,2.72,78.57,-23.99,21.36,97.73,34.19,-13.89,101.43,32.17,-53.17,97.38,1.85,-79.37,125.77,-33.22,-59.33,129.46,,,,,,,,,,,,,,,,,,,,,,,,,,,,,,,,,,,,,0.0,0.0,0.0,0.0,0.0,0.0,0.0,0.006,0.006,0.0,0.006,0.0,0.0,0.0,0.0,0.006,0.0,0.0,,,,,,,,,,,,,,,,,,,,,,,,,,,,,,,,,,,,,,,,,,,,,,,,,,,,,,,,,,,,,,,,,,,,,,,,,
4.18,tail,-21.36,2.21,3.05,-4.54,8.06,,0.0,0.0,0.682,-27.33,3.25,78.93,-23.2,20.3,96.68,33.66,-12.66,100.72,30.94,-52.47,96.15,0.62,-78.31,124.54,-32.08,-58.8,128.67,,,,,,,,,,,,,,,,,,,,,,,,,,,,,,,,,,,,,0.013,0.026,0.013,0.013,0.013,0.019,0.013,0.013,0.019,0.019,0.013,0.013,0.006,0.013,0.013,0.013,0.026,0.026,,,,,,,,,,,,,,,,,,,,,,,,,,,,,,,,,,,,,,,,,,,,,,,,,,,,,,,,,,,,,,,,,,,,,,,,,
4.28,tail,-20.23,0.89,8.7,-11.56,13.32,,0.0,0.0,0.682,-23.99,5.71,79.01,-20.13,17.84,93.25,30.41,-9.58,97.73,27.77,-49.75,92.9,0.0,-74.97,121.29,-28.83,-55.81,125.6,,,,,,,,,,,,,,,,,,,,,,,,,,,,,,,,,,,,,0.0,0.052,0.006,0.013,0.0,0.019,0.019,0.019,0.019,0.006,0.033,0.013,0.0,0.006,0.006,0.013,0.033,0.013,,,,,,,,,,,,,,,,,,,,,,,,,,,,,,,,,,,,,,,,,,,,,,,,,,,,,,,,,,,,,,,,,,,,,,,,,
4.38,tail,-20.35,-0.1,-1.22,-8.9,8.67,,0.0,0.0,0.682,-20.65,8.79,79.01,-16.96,17.84,90.0,27.33,-6.68,94.39,24.61,-46.67,89.74,0.0,-71.81,117.95,-25.58,-52.73,122.34,,,,,,,,,,,,,,,,,,,,,,,,,,,,,,,,,,,,,0.006,0.078,0.006,0.013,0.006,0.013,0.026,0.045,0.013,0.019,0.045,0.013,0.0,0.006,0.013,0.013,0.039,0.013,,,,,,,,,,,,,,,,,,,,,,,,,,,,,,,,,,,,,,,,,,,,,,,,,,,,,,,,,,,,,,,,,,,,,,,,,
4.48,tail,-21.36,-0.05,-8.86,-0.16,4.05,,0.0,0.0,0.682,-17.49,11.69,79.01,-13.97,17.67,86.66,24.35,-3.87,91.32,21.27,-43.42,86.48,0.0,-68.47,114.7,-22.32,-49.66,119.09,,,,,,,,,,,,,,,,,,,,,,,,,,,,,,,,,,,,,0.006,0.123,0.006,0.0,0.013,0.013,0.039,0.052,0.026,0.013,0.033,0.013,0.0,0.0,0.006,0.019,0.039,0.013,,,,,,,,,,,,,,,,,,,,,,,,,,,,,,,,,,,,,,,,,,,,,,,,,,,,,,,,,,,,,,,,,,,,,,,,,
4.58,tail,-19.43,-2.09,15.45,-17.45,20.62,,0.0,0.0,0.682,-14.15,14.94,78.93,-10.81,17.67,83.41,20.92,-0.53,87.54,18.11,-39.99,83.14,0.0,-65.04,111.45,-19.07,-46.14,115.93,,,,,,,,,,,,,,,,,,,,,,,,,,,,,,,,,,,,,0.013,0.143,0.013,0.039,0.006,0.013,0.019,0.084,0.006,0.019,0.026,0.013,0.0,0.006,0.019,0.013,0.026,0.013,,,,,,,,,,,,,,,,,,,,,,,,,,,,,,,,,,,,,,,,,,,,,,,,,,,,,,,,,,,,,,,,,,,,,,,,,
4.68,tail,-19.47,-1.99,0.0,-0.09,-2.48,,0.0,0.0,0.682,-11.07,17.31,78.93,-7.21,17.67,80.16,17.58,2.46,84.29,14.85,-36.74,79.89,0.0,-62.05,108.11,-15.82,-42.8,112.59,,,,,,,,,,,,,,,,,,,,,,,,,,,,,,,,,,,,,0.0,0.123,0.006,0.006,0.006,0.006,0.026,0.163,0.006,0.026,0.033,0.0,0.0,0.013,0.006,0.019,0.033,0.013,,,,,,,,,,,,,,,,,,,,,,,,,,,,,,,,,,,,,,,,,,,,,,,,,,,,,,,,,,,,,,,,,,,,,,,,,
4.78,tail,-19.12,-0.87,1.89,7.55,-5.12,,0.0,0.0,0.682,-7.38,17.58,78.93,-3.52,17.67,78.75,13.97,5.98,80.68,11.43,-33.22,78.84,0.0,-58.45,104.41,-12.22,-39.29,108.63,,,,,,,,,,,,,,,,,,,,,,,,,,,,,,,,,,,,,0.006,0.111,0.006,0.019,0.006,0.006,0.019,0.175,0.0,0.026,0.039,0.006,0.0,0.019,0.006,0.019,0.039,0.013,,,,,,,,,,,,,,,,,,,,,,,,,,,,,,,,,,,,,,,,,,,,,,,,,,,,,,,,,,,,,,,,,,,,,,,,,
4.88,tail,-18.11,-0.2,7.7,4.77,-1.26,,0.0,0.0,0.682,-4.13,17.58,78.93,-0.7,17.67,78.66,10.81,8.96,79.19,8.17,-30.15,78.75,0.0,-55.28,101.16,-8.88,-36.12,105.56,,,,,,,,,,,,,,,,,,,,,,,,,,,,,,,,,,,,,0.006,0.111,0.006,0.006,0.006,0.0,0.033,0.234,0.0,0.052,0.078,0.013,0.0,0.026,0.013,0.019,0.045,0.006,,,,,,,,,,,,,,,,,,,,,,,,,,,,,,,,,,,,,,,,,,,,,,,,,,,,,,,,,,,,,,,,,,,,,,,,,
4.98,tail,-17.73,0.71,2.93,6.23,3.73,,0.0,0.0,0.682,-0.7,17.49,78.84,0.0,17.58,78.4,7.03,12.22,78.93,4.31,-26.54,78.75,0.0,-51.68,97.29,-4.92,-32.61,101.78,,,,,,,,,,,,,,,,,,,,,,,,,,,,,,,,,,,,,0.006,0.143,0.013,0.0,0.0,0.006,0.026,0.364,0.0,0.033,0.065,0.006,0.0,0.045,0.013,0.006,0.065,0.006,,,,,,,,,,,,,,,,,,,,,,,,,,,,,,,,,,,,,,,,,,,,,,,,,,,,,,,,,,,,,,,,,,,,,,,,,
5.08,tail,-17.17,1.72,4.7,8.01,0.94,,0.0,0.0,0.682,-0.18,17.49,78.75,0.0,16.88,78.49,3.87,15.12,78.93,1.32,-23.47,78.75,0.0,-48.52,94.04,-1.67,-29.88,98.61,,,,,,,,,,,,,,,,,,,,,,,,,,,,,,,,,,,,,0.0,0.104,0.019,0.0,0.006,0.006,0.033,0.507,0.0,0.026,0.084,0.006,0.0,0.039,0.0,0.0,0.117,0.013,,,,,,,,,,,,,,,,,,,,,,,,,,,,,,,,,,,,,,,,,,,,,,,,,,,,,,,,,,,,,,,,,,,,,,,,,
5.18,tail,-16.85,2.64,2.15,6.26,0.32,,0.0,0.0,0.682,-0.09,17.49,78.75,0.0,16.79,78.49,0.88,16.88,78.84,0.44,-20.04,78.66,0.0,-44.82,90.35,-0.09,-26.46,94.83,,,,,,,,,,,,,,,,,,,,,,,,,,,,,,,,,,,,,0.0,0.136,0.013,0.006,0.0,0.0,0.013,0.403,0.0,0.013,0.136,0.013,0.0,0.052,0.0,0.0,0.143,0.013,,,,,,,,,,,,,,,,,,,,,,,,,,,,,,,,,,,,,,,,,,,,,,,,,,,,,,,,,,,,,,,,,,,,,,,,,
5.28,tail,-16.3,3.48,3.78,6.14,4.69,,0.0,0.0,0.682,0.18,17.4,78.66,0.0,16.88,78.49,0.44,16.88,78.84,0.35,-16.61,78.66,0.0,-40.96,86.31,0.0,-22.68,90.35,,,,,,,,,,,,,,,,,,,,,,,,,,,,,,,,,,,,,0.013,0.117,0.013,0.0,0.006,0.0,0.013,0.461,0.0,0.013,0.195,0.013,0.0,0.033,0.006,0.0,0.163,0.013,,,,,,,,,,,,,,,,,,,,,,,,,,,,,,,,,,,,,,,,,,,,,,,,,,,,,,,,,,,,,,,,,,,,,,,,,
5.38,tail,-15.24,3.76,8.37,1.97,5.08,,0.0,0.0,0.682,0.09,17.4,78.66,0.0,16.79,78.49,0.44,16.88,78.75,0.35,-13.62,78.57,0.0,-37.35,82.97,0.09,-19.51,87.63,,,,,,,,,,,,,,,,,,,,,,,,,,,,,,,,,,,,,0.006,0.111,0.019,0.0,0.006,0.0,0.013,0.37,0.006,0.013,0.221,0.019,0.0,0.019,0.006,0.006,0.214,0.006,,,,,,,,,,,,,,,,,,,,,,,,,,,,,,,,,,,,,,,,,,,,,,,,,,,,,,,,,,,,,,,,,,,,,,,,,
5.48,tail,-14.32,3.76,7.19,-0.35,2.11,,0.0,0.0,0.682,0.09,17.4,78.66,0.0,16.79,78.49,0.35,16.88,78.75,0.35,-10.63,78.49,0.0,-33.93,79.98,0.09,-16.26,84.64,,,,,,,,,,,,,,,,,,,,,,,,,,,,,,,,,,,,,0.006,0.123,0.019,0.006,0.013,0.0,0.013,0.39,0.006,0.013,0.254,0.026,0.0,0.013,0.0,0.006,0.195,0.006,,,,,,,,,,,,,,,,,,,,,,,,,,,,,,,,,,,,,,,,,,,,,,,,,,,,,,,,,,,,,,,,,,,,,,,,,
5.58,tail,-12.99,3.8,10.79,0.4,2.03,,0.0,0.0,0.682,0.09,17.4,78.66,0.0,16.79,78.49,0.18,16.88,78.75,0.35,-7.38,78.49,0.0,-30.67,79.37,0.09,-13.1,81.21,,,,,,,,,,,,,,,,,,,,,,,,,,,,,,,,,,,,,0.006,0.111,0.019,0.0,0.006,0.0,0.006,0.344,0.006,0.013,0.267,0.019,0.0,0.019,0.0,0.006,0.208,0.013,,,,,,,,,,,,,,,,,,,,,,,,,,,,,,,,,,,,,,,,,,,,,,,,,,,,,,,,,,,,,,,,,,,,,,,,,
5.68,tail,-11.81,3.37,9.45,-3.76,2.74,,0.0,0.0,0.682,0.09,17.4,78.66,0.0,16.79,78.49,0.18,16.88,78.75,0.35,-4.48,78.4,0.0,-27.51,79.28,0.09,-9.93,78.66,,,,,,,,,,,,,,,,,,,,,,,,,,,,,,,,,,,,,0.006,0.111,0.019,0.006,0.006,0.0,0.006,0.344,0.006,0.013,0.377,0.033,0.0,0.019,0.0,0.013,0.195,0.0,,,,,,,,,,,,,,,,,,,,,,,,,,,,,,,,,,,,,,,,,,,,,,,,,,,,,,,,,,,,,,,,,,,,,,,,,
5.78,tail,-10.6,3.2,9.73,-1.45,1.27,,0.0,0.0,0.682,0.09,17.4,78.66,0.0,16.7,78.4,0.09,16.88,78.75,0.35,-1.32,78.4,0.0,-24.35,79.28,0.09,-6.59,78.05,,,,,,,,,,,,,,,,,,,,,,,,,,,,,,,,,,,,,0.006,0.123,0.019,0.006,0.006,0.006,0.006,0.403,0.0,0.013,0.364,0.033,0.0,0.013,0.0,0.006,0.234,0.0,,,,,,,,,,,,,,,,,,,,,,,,,,,,,,,,,,,,,,,,,,,,,,,,,,,,,,,,,,,,,,,,,,,,,,,,,
5.88,tail,-9.58,2.92,8.32,-2.48,0.14,,0.0,0.0,0.682,0.09,17.4,78.66,0.0,16.7,78.4,0.09,16.88,78.66,0.35,1.76,78.31,0.0,-21.09,79.28,0.18,-3.52,77.96,,,,,,,,,,,,,,,,,,,,,,,,,,,,,,,,,,,,,0.006,0.111,0.019,0.006,0.013,0.006,0.006,0.357,0.006,0.013,0.429,0.045,0.0,0.026,0.006,0.013,0.227,0.006,,,,,,,,,,,,,,,,,,,,,,,,,,,,,,,,,,,,,,,,,,,,,,,,,,,,,,,,,,,,,,,,,,,,,,,,,
5.98,tail,-8.5,3.24,8.66,2.37,1.38,,0.0,0.0,0.682,0.09,17.4,78.66,0.0,16.61,78.4,0.09,16.88,78.66,0.35,4.66,78.31,0.0,-17.93,79.19,0.18,-0.44,77.78,,,,,,,,,,,,,,,,,,,,,,,,,,,,,,,,,,,,,0.006,0.111,0.019,0.0,0.013,0.006,0.006,0.468,0.006,0.013,0.5,0.033,0.0,0.033,0.006,0.013,0.24,0.006,,,,,,,,,,,,,,,,,,,,,,,,,,,,,,,,,,,,,,,,,,,,,,,,,,,,,,,,,,,,,,,,,,,,,,,,,
6.08,tail,-7.28,3.71,8.75,3.25,-0.58,,0.0,0.0,0.682,0.09,17.4,78.66,0.44,16.61,78.31,0.09,16.88,78.66,0.35,8.53,78.31,0.0,-14.24,79.19,0.18,3.16,77.7,,,,,,,,,,,,,,,,,,,,,,,,,,,,,,,,,,,,,0.006,0.136,0.019,0.0,0.013,0.013,0.0,0.357,0.006,0.006,0.416,0.039,0.0,0.019,0.006,0.013,0.351,0.013,,,,,,,,,,,,,,,,,,,,,,,,,,,,,,,,,,,,,,,,,,,,,,,,,,,,,,,,,,,,,,,,,,,,,,,,,
