t_s,phase,roll_deg,pitch_deg,gyro_x_dps,gyro_y_dps,gyro_z_dps,height_ref_mm,vx_ref_mps,vy_ref_mps,max_cur_a,q0_deg,q1_deg,q2_deg,q3_deg,q4_deg,q5_deg,q6_deg,q7_deg,q8_deg,q9_deg,q10_deg,q11_deg,q12_deg,q13_deg,q14_deg,q15_deg,q16_deg,q17_deg,cmd0_deg,cmd1_deg,cmd2_deg,cmd3_deg,cmd4_deg,cmd5_deg,cmd6_deg,cmd7_deg,cmd8_deg,cmd9_deg,cmd10_deg,cmd11_deg,cmd12_deg,cmd13_deg,cmd14_deg,cmd15_deg,cmd16_deg,cmd17_deg,act0,act1,act2,act3,act4,act5,act6,act7,act8,act9,act10,act11,act12,act13,act14,act15,act16,act17,cur0_a,cur1_a,cur2_a,cur3_a,cur4_a,cur5_a,cur6_a,cur7_a,cur8_a,cur9_a,cur10_a,cur11_a,cur12_a,cur13_a,cur14_a,cur15_a,cur16_a,cur17_a,obs0,obs1,obs2,obs3,obs4,obs5,obs6,obs7,obs8,obs9,obs10,obs11,obs12,obs13,obs14,obs15,obs16,obs17,obs18,obs19,obs20,obs21,obs22,obs23,obs24,obs25,obs26,obs27,obs28,obs29,obs30,obs31,obs32,obs33,obs34,obs35,obs36,obs37,obs38,obs39,obs40,obs41,obs42,obs43,obs44,obs45,obs46,obs47,obs48,obs49,obs50,obs51,obs52,obs53,obs54,obs55,obs56,obs57,obs58,obs59,obs60,obs61,obs62,obs63,obs64,obs65,obs66,obs67,obs68,obs69,obs70,obs71,rot60_k
0.0,run,0.54,5.2,-0.85,1.78,2.84,0.0,0.0,0.0,0.052,0.09,16.79,78.93,0.7,15.56,77.78,0.18,16.44,78.57,-0.09,15.38,77.96,-0.18,14.85,77.87,-0.18,15.21,77.52,-1.41,15.81,77.69,-0.88,14.58,79.72,1.68,15.64,80.25,1.41,14.23,79.9,-1.68,13.88,76.99,-1.68,14.23,79.28,-0.9082,-1.0,-0.2823,-1.0,-1.0,1.0,1.0,-1.0,0.9911,1.0,-1.0,1.0,-0.2226,-1.0,-0.2806,-1.0,-1.0,1.0,0.019,0.0,0.0,0.013,0.0,0.045,0.006,0.006,0.013,0.013,0.0,0.052,0.006,0.019,0.013,0.013,0.006,0.013,0.0,0.0,-0.0046,0.0015,-0.0046,-0.0077,0.0,0.0,-0.0031,0.0,0.0,-0.0077,0.0,0.0,-0.0077,0.0,0.0,-0.0046,0.0,0.0,-0.0102,0.0038,-0.0113,-0.0177,0.0,0.0,-0.0075,0.0,0.0,-0.0188,0.0,0.0,-0.0188,0.0,0.0,-0.0113,0.0,0.0,0.0189,-0.0133,0.0112,0.0,0.0,0.0,0.0,0.0,0.0,0.0,0.0,0.0,0.0,0.0,0.0,0.0,0.0,0.0,0.0,0.0,0.0,0.0,0.0,0.0,0.0,0.0,0.0,0.0,0.0,0.0,0.0,0.0,0.0,0.0,0
0.04,run,0.55,5.27,1.7,1.61,-0.97,0.0,0.0,0.0,0.052,0.0,16.61,78.57,0.7,15.38,77.78,0.18,16.26,78.57,0.09,14.94,78.13,-0.44,14.15,77.61,-0.35,14.85,77.52,-2.91,17.31,79.19,-2.38,13.08,81.22,0.18,14.14,78.75,2.91,12.73,81.4,-3.18,12.38,78.49,-3.18,12.73,80.78,-1.0,1.0,1.0,-1.0,-1.0,1.0,-1.0,-1.0,-0.7037,1.0,-1.0,1.0,-1.0,0.2833,1.0,-1.0,-1.0,1.0,0.019,0.0,0.0,0.013,0.0,0.045,0.006,0.006,0.013,0.013,0.0,0.052,0.006,0.019,0.013,0.013,0.006,0.013,0.0,-0.0092,-0.0046,0.0015,-0.0092,-0.0077,0.0,-0.0123,-0.0031,0.0,-0.0061,-0.0077,0.0,-0.0092,-0.0107,0.0,-0.0092,-0.0046,0.0,-0.0151,-0.0071,0.0026,-0.0154,-0.0124,0.0,-0.0201,-0.0053,0.0,-0.01,-0.0132,0.0,-0.0151,-0.0182,0.0,-0.0151,-0.0079,-0.0053,0.0165,-0.0149,0.0311,0.0496,-0.9082,-1.0,-0.2823,-1.0,-1.0,1.0,1.0,-1.0,0.9911,1.0,-1.0,1.0,-0.2226,-1.0,-0.2806,-1.0,-1.0,1.0,0.0,0.0,0.0,0.0,0.0,0.0,0.0,0.0,0.0,0.0,0.0,0.0,0.0,0
0.08,run,0.27,5.31,-4.96,0.78,-0.64,0.0,0.0,0.0,0.052,-0.79,15.91,78.13,0.26,14.68,78.49,0.35,15.21,78.75,0.7,14.5,78.75,-1.32,13.45,76.99,-1.32,14.06,77.61,-1.41,18.81,80.69,-3.88,11.58,82.72,-1.32,15.64,80.25,4.41,11.23,82.9,-4.68,13.88,79.99,-4.68,11.23,82.28,0.2643,1.0,0.3795,-1.0,-1.0,1.0,-1.0,1.0,1.0,1.0,-1.0,1.0,-1.0,1.0,1.0,-1.0,-1.0,1.0,0.019,0.0,0.0,0.013,0.0,0.045,0.006,0.006,0.013,0.013,0.0,0.052,0.006,0.019,0.013,0.013,0.006,0.013,-0.0015,-0.0123,-0.0107,0.0015,-0.0123,-0.0077,0.0,-0.0153,-0.0031,0.0031,-0.0138,-0.0046,-0.0046,-0.0215,-0.0153,-0.0031,-0.0153,-0.0046,-0.0055,-0.0215,-0.027,0.0018,-0.0218,-0.0087,0.0,-0.025,-0.0037,0.011,-0.0345,0.0018,-0.0165,-0.0545,-0.0292,-0.011,-0.0325,-0.0055,-0.0043,0.0227,0.0296,0.0281,-0.0169,-1.0,1.0,1.0,-1.0,-1.0,1.0,-1.0,-1.0,-0.7037,1.0,-1.0,1.0,-1.0,0.2833,1.0,-1.0,-1.0,1.0,0.0,0.0,0.0,0.0,0.0,0.0,0.0,0.0,0.0,0.0,0.0,0.0,0.0,0
0.12,run,0.1,5.41,-4.19,1.96,-10.18,0.0,0.0,0.0,0.117,-1.58,15.56,77.7,-0.53,13.8,79.54,0.97,14.77,79.1,1.58,13.54,79.63,-2.2,12.83,76.73,-2.2,13.36,78.31,-2.91,20.31,82.19,-5.38,10.08,84.22,-2.82,17.14,81.75,5.91,9.73,84.4,-3.18,12.38,78.49,-6.18,9.73,83.78,-1.0,1.0,0.3355,-1.0,-1.0,1.0,-1.0,1.0,1.0,1.0,-1.0,1.0,0.5687,0.1358,-1.0,-1.0,-1.0,1.0,0.013,0.013,0.006,0.033,0.0,0.071,0.0,0.013,0.026,0.039,0.0,0.071,0.013,0.019,0.019,0.019,0.0,0.117,-0.0153,-0.0245,-0.0184,-0.0061,-0.0245,0.0046,0.0031,-0.0337,0.0,0.0138,-0.0215,0.0061,-0.0199,-0.0337,-0.0261,-0.0199,-0.0291,-0.0031,-0.0551,-0.0607,-0.0474,-0.0272,-0.0608,0.0395,0.0114,-0.0859,0.0088,0.0476,-0.0526,0.0411,-0.0685,-0.0837,-0.0603,-0.0704,-0.074,0.0018,-0.029,0.0269,-0.0866,0.0137,-0.0111,0.2643,1.0,0.3795,-1.0,-1.0,1.0,-1.0,1.0,1.0,1.0,-1.0,1.0,-1.0,1.0,1.0,-1.0,-1.0,1.0,0.0,0.0,0.0,0.0,0.0,0.0,0.0,0.0,0.0,0.0,0.0,0.0,0.0,0
0.16,run,0.04,5.32,-2.64,-1.06,-11.61,0.0,0.0,0.0,0.117,-2.2,15.47,77.7,-1.67,12.66,80.77,1.05,14.59,79.63,2.72,12.39,80.95,-3.16,12.3,76.73,-3.52,12.22,79.37,-4.41,21.81,83.69,-6.88,8.58,85.72,-4.32,15.64,80.25,7.41,8.23,85.9,-4.68,12.44,79.99,-7.68,8.23,85.28,-1.0,1.0,0.2206,-1.0,0.0096,1.0,-0.428,0.1156,0.0009,1.0,-1.0,1.0,-0.2796,0.6807,1.0,-1.0,-1.0,1.0,0.013,0.013,0.006,0.033,0.0,0.071,0.0,0.013,0.026,0.039,0.0,0.071,0.013,0.019,0.019,0.019,0.0,0.117,-0.0291,-0.0307,-0.0261,-0.0199,-0.0399,0.023,0.0138,-0.0414,0.0061,0.0291,-0.0383,0.0215,-0.0353,-0.0445,-0.0307,-0.0353,-0.0414,0.0092,-0.0901,-0.0654,-0.0618,-0.0706,-0.0998,0.0964,0.0481,-0.0888,0.0291,0.0906,-0.0998,0.086,-0.1052,-0.0987,-0.0594,-0.1065,-0.0976,0.0471,-0.0437,0.0353,-0.0731,0.0342,-0.1777,-1.0,1.0,0.3355,-1.0,-1.0,1.0,-1.0,1.0,1.0,1.0,-1.0,1.0,0.5687,0.1358,-1.0,-1.0,-1.0,1.0,0.0,0.0,0.0,0.0,0.0,0.0,0.0,0.0,0.0,0.0,0.0,0.0,0.0,0
0.2,run,-0.1,5.23,-4.72,-0.82,-5.94,0.0,0.0,0.0,0.117,-2.81,15.47,77.78,-2.9,11.51,82.09,0.97,14.59,80.16,3.96,11.16,82.18,-3.78,11.78,76.73,-4.66,10.99,80.6,-5.91,23.31,85.19,-8.38,7.08,87.22,-5.82,17.14,81.75,8.91,6.73,87.4,-4.37,10.94,81.49,-9.18,6.73,86.78,-1.0,1.0,0.9249,-1.0,-1.0,0.6846,-1.0,1.0,1.0,1.0,-1.0,1.0,-0.1249,0.3921,1.0,-1.0,-1.0,1.0,0.013,0.013,0.006,0.033,0.0,0.071,0.0,0.013,0.026,0.039,0.0,0.071,0.013,0.019,0.019,0.019,0.0,0.117,-0.0399,-0.0322,-0.0261,-0.0399,-0.0598,0.0445,0.0153,-0.0445,0.0153,0.0491,-0.0583,0.0445,-0.0522,-0.0537,-0.0307,-0.0583,-0.0614,0.0276,-0.1033,-0.0515,-0.0432,-0.1241,-0.1446,0.1479,0.0394,-0.0736,0.0548,0.1381,-0.1446,0.1464,-0.1369,-0.1036,-0.0416,-0.1608,-0.1431,0.1019,-0.0493,0.0274,-0.0461,-0.0186,-0.2026,-1.0,1.0,0.2206,-1.0,0.0096,1.0,-0.428,0.1156,0.0009,1.0,-1.0,1.0,-0.2796,0.6807,1.0,-1.0,-1.0,1.0,0.0,0.0,0.0,0.0,0.0,0.0,0.0,0.0,0.0,0.0,0.0,0.0,0.0,0
0.24,run,-0.48,5.38,-0.25,0.1,-0.49,0.0,0.0,0.0,0.422,-7.12,18.81,82.09,-9.49,5.71,88.33,-6.33,16.0,82.09,9.67,5.27,88.33,-5.8,8.79,79.45,-10.55,5.01,87.28,-7.41,21.81,83.69,-9.88,5.58,88.72,-7.32,18.64,83.25,10.41,5.23,88.9,-5.87,9.44,79.99,-10.68,5.23,88.28,-1.0,0.7429,0.1324,-1.0,-0.2626,1.0,-1.0,0.9076,1.0,1.0,-1.0,1.0,-0.4387,0.1224,-0.5786,-1.0,-1.0,1.0,0.013,0.189,0.058,0.006,0.0,0.006,0.026,0.422,0.026,0.026,0.0,0.019,0.0,0.026,0.019,0.006,0.006,0.026,-0.0506,-0.0322,-0.0245,-0.0614,-0.0798,0.0675,0.0138,-0.0445,0.0245,0.0706,-0.0798,0.066,-0.0629,-0.0629,-0.0307,-0.0782,-0.0828,0.0491,-0.113,-0.0361,-0.0245,-0.1681,-0.1767,0.1906,0.0218,-0.0515,0.0732,0.1779,-0.1825,0.1838,-0.1364,-0.1073,-0.0291,-0.188,-0.1814,0.1526,-0.061,0.0199,-0.0823,-0.0143,-0.1036,-1.0,1.0,0.9249,-1.0,-1.0,0.6846,-1.0,1.0,1.0,1.0,-1.0,1.0,-0.1249,0.3921,1.0,-1.0,-1.0,1.0,0.0,0.0,0.0,0.0,0.0,0.0,0.0,0.0,0.0,0.0,0.0,0.0,0.0,0
0.28,run,-0.51,5.39,-0.21,0.18,0.52,0.0,0.0,0.0,0.5,-7.12,18.81,82.09,-9.49,5.71,88.33,-6.33,16.0,82.09,9.67,5.27,88.33,-5.8,8.79,79.45,-10.55,5.01,87.28,-8.91,20.31,85.19,-11.38,6.44,90.22,-8.82,17.14,81.75,11.91,3.73,90.4,-7.37,10.94,81.49,-12.18,3.73,89.78,-1.0,-0.4294,0.4359,-1.0,0.5716,0.8032,-1.0,-1.0,0.155,1.0,-1.0,1.0,-1.0,0.6699,1.0,-1.0,-1.0,1.0,0.006,0.169,0.033,0.0,0.006,0.006,0.013,0.5,0.019,0.006,0.006,0.0,0.013,0.084,0.006,0.0,0.013,0.013,-0.1258,0.0261,0.0506,-0.1764,-0.181,0.1764,-0.1135,-0.0199,0.0583,0.1703,-0.1825,0.1733,-0.0982,-0.115,0.0169,-0.181,-0.1871,0.1657,-0.113,-0.0361,-0.0245,-0.1681,-0.1767,0.1906,0.0218,-0.0515,0.0732,0.1779,-0.1825,0.1838,-0.1364,-0.1073,-0.0291,-0.188,-0.1814,0.1526,-0.0946,0.0331,-0.0044,0.0018,-0.0085,-1.0,0.7429,0.1324,-1.0,-0.2626,1.0,-1.0,0.9076,1.0,1.0,-1.0,1.0,-0.4387,0.1224,-0.5786,-1.0,-1.0,1.0,0.0,0.0,0.0,0.0,0.0,0.0,0.0,0.0,0.0,0.0,0.0,0.0,0.0,0
0.32,run,-0.5,5.4,0.53,0.3,1.21,0.0,0.0,0.0,0.5,-6.94,18.81,82.09,-9.49,5.71,88.07,-6.33,16.0,82.09,9.67,5.27,88.07,-5.8,8.79,79.1,-10.46,5.01,87.28,-10.41,18.81,83.69,-12.88,4.94,88.72,-10.32,15.64,83.25,13.41,2.23,91.9,-8.87,9.44,82.99,-13.68,2.23,91.28,-1.0,-0.8642,0.055,-1.0,-0.2652,-1.0,-1.0,0.0652,1.0,1.0,-1.0,1.0,-1.0,-0.4811,1.0,-1.0,-1.0,1.0,0.006,0.169,0.033,0.0,0.006,0.006,0.013,0.5,0.019,0.006,0.006,0.0,0.013,0.084,0.006,0.0,0.013,0.013,-0.1258,0.0261,0.0506,-0.1764,-0.181,0.1764,-0.1135,-0.0199,0.0583,0.1703,-0.1825,0.1733,-0.0982,-0.115,0.0169,-0.181,-0.1871,0.1657,-0.0791,-0.0252,-0.0171,-0.1177,-0.1237,0.1334,0.0152,-0.0361,0.0512,0.1246,-0.1277,0.1286,-0.0955,-0.0751,-0.0204,-0.1316,-0.127,0.1068,-0.0966,0.0334,-0.0036,0.0031,0.0091,-1.0,-0.4294,0.4359,-1.0,0.5716,0.8032,-1.0,-1.0,0.155,1.0,-1.0,1.0,-1.0,0.6699,1.0,-1.0,-1.0,1.0,0.0,0.0,0.0,0.0,0.0,0.0,0.0,0.0,0.0,0.0,0.0,0.0,0.0,0
0.36,run,-0.54,5.39,-0.97,-0.39,0.67,0.0,0.0,0.0,0.5,-6.86,18.81,82.09,-9.49,5.71,88.07,-6.33,16.0,81.83,9.67,5.27,88.07,-5.62,8.79,79.01,-10.11,5.01,87.28,-11.91,17.31,85.19,-14.38,3.44,90.22,-11.82,14.14,84.75,14.91,0.73,93.4,-10.37,7.94,84.49,-15.18,0.73,92.78,-1.0,-1.0,1.0,-1.0,-0.0982,1.0,-1.0,-1.0,1.0,1.0,-1.0,1.0,-1.0,0.2032,1.0,-1.0,-1.0,1.0,0.006,0.169,0.033,0.0,0.006,0.006,0.013,0.5,0.019,0.006,0.006,0.0,0.013,0.084,0.006,0.0,0.013,0.013,-0.1227,0.0261,0.0506,-0.1764,-0.181,0.1718,-0.1135,-0.0199,0.0583,0.1703,-0.1825,0.1687,-0.0982,-0.115,0.0107,-0.1795,-0.1871,0.1657,-0.044,-0.0177,-0.012,-0.0824,-0.0866,0.0764,0.0107,-0.0253,0.0359,0.0872,-0.0894,0.0731,-0.0669,-0.0526,-0.0369,-0.0865,-0.0889,0.0748,-0.0963,0.0341,0.0092,0.0053,0.0211,-1.0,-0.8642,0.055,-1.0,-0.2652,-1.0,-1.0,0.0652,1.0,1.0,-1.0,1.0,-1.0,-0.4811,1.0,-1.0,-1.0,1.0,0.0,0.0,0.0,0.0,0.0,0.0,0.0,0.0,0.0,0.0,0.0,0.0,0.0,0
0.4,run,-0.61,5.4,-1.4,0.26,-7.19,0.0,0.0,0.0,0.5,-7.29,18.63,82.09,-9.58,5.71,88.51,-6.5,16.0,81.65,9.76,4.92,88.51,-5.89,8.79,79.37,-10.72,4.83,87.36,-13.41,15.81,83.69,-15.88,1.94,91.72,-13.32,12.64,86.25,16.41,-0.77,94.9,-11.87,6.44,85.99,-16.68,-0.77,94.28,-1.0,-1.0,-0.0599,-1.0,-0.0906,1.0,-1.0,-1.0,1.0,1.0,-1.0,1.0,-1.0,-1.0,1.0,-1.0,-1.0,0.8186,0.019,0.0,0.091,0.019,0.006,0.039,0.039,0.195,0.013,0.104,0.0,0.071,0.013,0.182,0.071,0.006,0.0,0.052,-0.1212,0.0261,0.0506,-0.1764,-0.181,0.1718,-0.1135,-0.0199,0.0537,0.1703,-0.1825,0.1687,-0.0951,-0.115,0.0092,-0.1733,-0.1871,0.1657,-0.025,-0.0124,-0.0084,-0.0577,-0.0606,0.0535,0.0075,-0.0177,0.0078,0.061,-0.0626,0.0512,-0.0352,-0.0368,-0.0316,-0.0374,-0.0622,0.0523,-0.0994,0.0332,-0.0169,-0.0067,0.0116,-1.0,-1.0,1.0,-1.0,-0.0982,1.0,-1.0,-1.0,1.0,1.0,-1.0,1.0,-1.0,0.2032,1.0,-1.0,-1.0,1.0,0.0,0.0,0.0,0.0,0.0,0.0,0.0,0.0,0.0,0.0,0.0,0.0,0.0,0
0.44,run,-0.45,5.56,4.24,4.88,-14.24,0.0,0.0,0.0,0.5,-8.09,17.49,82.62,-10.28,5.45,89.12,-7.21,16.0,81.65,10.63,4.31,89.21,-6.86,8.79,79.98,-11.51,4.13,87.89,-14.91,14.31,85.19,-17.38,0.44,93.22,-14.82,11.14,87.75,17.91,-2.27,96.4,-13.37,4.94,87.49,-18.18,-2.27,95.78,-1.0,0.0618,1.0,-1.0,-0.6781,1.0,-1.0,-1.0,0.5707,1.0,-1.0,1.0,-1.0,-1.0,1.0,-1.0,-1.0,0.9991,0.019,0.0,0.091,0.019,0.006,0.039,0.039,0.195,0.013,0.104,0.0,0.071,0.013,0.182,0.071,0.006,0.0,0.052,-0.1289,0.023,0.0506,-0.1779,-0.181,0.1795,-0.1166,-0.0199,0.0506,0.1718,-0.1887,0.1764,-0.0997,-0.115,0.0153,-0.1841,-0.1902,0.1672,-0.0461,-0.0201,-0.0059,-0.0461,-0.0424,0.0661,-0.0062,-0.0124,-0.006,0.0484,-0.0667,0.0644,-0.0418,-0.0258,0.0008,-0.0662,-0.055,0.0424,-0.1056,0.0344,-0.0245,0.0045,-0.1255,-1.0,-1.0,-0.0599,-1.0,-0.0906,1.0,-1.0,-1.0,1.0,1.0,-1.0,1.0,-1.0,-1.0,1.0,-1.0,-1.0,0.8186,0.0,0.0,0.0,0.0,0.0,0.0,0.0,0.0,0.0,0.0,0.0,0.0,0.0,0
0.48,run,-0.35,5.55,1.61,0.42,-18.33,0.0,0.0,0.0,0.5,-9.05,16.52,83.06,-11.34,4.57,90.18,-8.17,15.73,81.65,11.78,3.34,90.35,-7.91,8.79,80.95,-12.57,3.16,88.86,-13.41,12.81,86.69,-18.88,-1.06,94.72,-16.32,9.64,89.25,19.41,-3.77,97.9,-14.87,3.44,88.99,-19.68,-3.77,94.28,0.3716,0.6056,0.7588,-1.0,-1.0,0.3541,-1.0,-1.0,0.6539,1.0,-1.0,1.0,-1.0,0.0662,1.0,-1.0,-1.0,0.2487,0.019,0.0,0.091,0.019,0.006,0.039,0.039,0.195,0.013,0.104,0.0,0.071,0.013,0.182,0.071,0.006,0.0,0.052,-0.1427,0.0031,0.0598,-0.1902,-0.1856,0.1902,-0.1289,-0.0199,0.0506,0.1871,-0.1994,0.1887,-0.1166,-0.115,0.0261,-0.1979,-0.2025,0.1764,-0.0844,-0.0893,0.0306,-0.0786,-0.0471,0.0867,-0.0506,-0.0087,-0.0042,0.0918,-0.0872,0.0914,-0.0929,-0.018,0.041,-0.0984,-0.0848,0.0644,-0.0921,0.0484,0.0741,0.0852,-0.2486,-1.0,0.0618,1.0,-1.0,-0.6781,1.0,-1.0,-1.0,0.5707,1.0,-1.0,1.0,-1.0,-1.0,1.0,-1.0,-1.0,0.9991,0.0,0.0,0.0,0.0,0.0,0.0,0.0,0.0,0.0,0.0,0.0,0.0,0.0,0
0.52,run,-0.17,5.35,4.18,-5.93,-14.39,0.0,0.0,0.0,0.5,-10.28,15.21,83.76,-12.48,3.52,91.58,-9.49,14.15,82.35,13.1,2.02,91.76,-9.32,8.09,82.18,-13.97,1.93,90.09,-14.91,11.31,85.19,-20.38,-2.56,93.22,-17.82,8.14,90.75,20.91,-5.27,99.4,-16.37,1.94,90.49,-21.18,-5.27,93.22,-1.0,0.6178,-0.1564,-1.0,-1.0,-0.0067,-1.0,0.4825,1.0,1.0,-1.0,0.6049,-1.0,-0.3945,1.0,-1.0,-1.0,0.332,0.045,0.0,0.058,0.026,0.006,0.026,0.045,0.019,0.078,0.058,0.0,0.033,0.006,0.019,0.123,0.013,0.0,0.045,-0.1595,-0.0138,0.0675,-0.2086,-0.201,0.2086,-0.1457,-0.0245,0.0506,0.2071,-0.2163,0.2086,-0.135,-0.115,0.043,-0.2163,-0.2194,0.1933,-0.1223,-0.1257,0.0502,-0.124,-0.0904,0.1297,-0.0987,-0.0233,-0.0029,0.139,-0.1243,0.1387,-0.134,-0.0126,0.092,-0.1379,-0.1226,0.1083,-0.0832,0.0479,0.0281,0.0073,-0.3198,0.3716,0.6056,0.7588,-1.0,-1.0,0.3541,-1.0,-1.0,0.6539,1.0,-1.0,1.0,-1.0,0.0662,1.0,-1.0,-1.0,0.2487,0.0,0.0,0.0,0.0,0.0,0.0,0.0,0.0,0.0,0.0,0.0,0.0,0.0,0
0.56,run,-0.09,5.42,2.57,0.1,-23.38,0.0,0.0,0.0,0.5,-11.6,13.89,84.46,-13.89,2.11,92.72,-10.9,12.92,83.23,14.59,0.7,93.25,-10.72,6.68,83.67,-15.38,0.53,91.32,-16.41,9.81,86.69,-21.88,-4.06,94.72,-19.32,6.64,92.25,22.41,-6.77,100.9,-17.87,0.44,91.99,-22.68,-6.77,94.72,-1.0,-0.09,1.0,-1.0,-1.0,0.4758,-1.0,-0.6175,1.0,1.0,-1.0,1.0,-1.0,-1.0,1.0,-1.0,-1.0,0.5187,0.045,0.0,0.058,0.026,0.006,0.026,0.045,0.019,0.078,0.058,0.0,0.033,0.006,0.019,0.123,0.013,0.0,0.045,-0.181,-0.0368,0.0798,-0.2286,-0.2194,0.2332,-0.1687,-0.0522,0.0629,0.2301,-0.2393,0.2332,-0.1595,-0.1273,0.0644,-0.2408,-0.2408,0.2148,-0.1652,-0.1733,0.0806,-0.1607,-0.1315,0.1818,-0.1544,-0.1187,0.0434,0.1826,-0.1723,0.1881,-0.1848,-0.0543,0.144,-0.1875,-0.1654,0.1554,-0.0677,0.0304,0.0729,-0.1036,-0.2512,-1.0,0.6178,-0.1564,-1.0,-1.0,-0.0067,-1.0,0.4825,1.0,1.0,-1.0,0.6049,-1.0,-0.3945,1.0,-1.0,-1.0,0.332,0.0,0.0,0.0,0.0,0.0,0.0,0.0,0.0,0.0,0.0,0.0,0.0,0.0,0
0.6,run,0.04,5.37,4.2,-2.13,-25.97,0.0,0.0,0.0,0.5,-12.92,12.74,84.99,-15.29,0.7,93.52,-12.39,11.51,84.46,15.91,-0.7,94.66,-12.22,5.27,85.17,-16.79,-0.79,92.37,-17.91,11.31,88.19,-23.38,-5.56,96.22,-20.82,5.14,93.75,23.91,-8.27,102.4,-19.37,-1.06,93.49,-24.18,-8.27,93.22,-0.7327,0.8308,1.0,-1.0,-0.648,1.0,-1.0,-1.0,1.0,1.0,-1.0,1.0,-1.0,0.0198,1.0,-1.0,-1.0,-0.0094,0.045,0.0,0.058,0.026,0.006,0.026,0.045,0.019,0.078,0.058,0.0,0.033,0.006,0.019,0.123,0.013,0.0,0.045,-0.204,-0.0598,0.092,-0.2531,-0.2439,0.2531,-0.1933,-0.0736,0.0782,0.2562,-0.2623,0.2592,-0.1841,-0.1519,0.0905,-0.2654,-0.2654,0.2362,-0.2015,-0.2072,0.1022,-0.2041,-0.1837,0.2017,-0.1997,-0.1632,0.0876,0.2251,-0.2065,0.229,-0.221,-0.1296,0.1981,-0.2228,-0.2074,0.1889,-0.0607,0.0359,0.0448,0.0018,-0.408,-1.0,-0.09,1.0,-1.0,-1.0,0.4758,-1.0,-0.6175,1.0,1.0,-1.0,1.0,-1.0,-1.0,1.0,-1.0,-1.0,0.5187,0.0,0.0,0.0,0.0,0.0,0.0,0.0,0.0,0.0,0.0,0.0,0.0,0.0,0
0.64,run,0.03,5.56,1.37,4.48,-14.83,0.0,0.0,0.0,0.5,-14.24,11.43,85.43,-16.7,-0.7,94.22,-13.8,10.11,85.87,17.31,-2.11,96.06,-13.36,3.87,86.57,-18.28,-2.2,93.16,-18.51,11.2,89.69,-24.88,-7.06,94.72,-22.32,3.64,95.25,25.41,-9.77,103.9,-20.87,-2.56,94.99,-25.68,-9.77,91.72,-0.5288,0.6582,0.5964,-1.0,-0.7225,-0.2987,-1.0,0.4939,1.0,1.0,-0.6892,0.6636,-1.0,0.041,1.0,-1.0,-1.0,-0.3758,0.052,0.006,0.052,0.019,0.0,0.026,0.039,0.013,0.084,0.104,0.0,0.026,0.019,0.013,0.156,0.019,0.0,0.013,-0.227,-0.0798,0.1012,-0.2777,-0.2684,0.2669,-0.2194,-0.0982,0.0997,0.2792,-0.2869,0.2838,-0.2102,-0.1764,0.1166,-0.2899,-0.2884,0.2546,-0.2283,-0.2206,0.1064,-0.2359,-0.2216,0.1935,-0.2386,-0.2073,0.1427,0.2448,-0.2375,0.2533,-0.2535,-0.1838,0.2375,-0.249,-0.2324,0.202,-0.0487,0.0314,0.0733,-0.0371,-0.4533,-0.7327,0.8308,1.0,-1.0,-0.648,1.0,-1.0,-1.0,1.0,1.0,-1.0,1.0,-1.0,0.0198,1.0,-1.0,-1.0,-0.0094,0.0,0.0,0.0,0.0,0.0,0.0,0.0,0.0,0.0,0.0,0.0,0.0,0.0,0
0.68,run,0.03,5.51,0.86,-0.06,-15.1,0.0,0.0,0.0,0.5,-15.47,10.63,85.96,-18.19,-2.02,95.01,-15.29,8.61,87.28,18.46,-3.6,97.56,-14.68,2.46,87.98,-19.6,-3.6,93.6,-20.01,12.7,91.19,-26.38,-8.56,96.22,-23.82,2.14,96.75,26.91,-11.27,102.4,-22.37,-4.06,96.49,-27.18,-11.27,90.22,-1.0,0.8635,1.0,-1.0,-0.7284,1.0,-1.0,-0.7352,1.0,1.0,-0.4727,0.2211,-1.0,-0.1299,0.7425,-1.0,-1.0,-0.5736,0.052,0.006,0.052,0.019,0.0,0.026,0.039,0.013,0.084,0.104,0.0,0.026,0.019,0.013,0.156,0.019,0.0,0.013,-0.25,-0.1028,0.1089,-0.3022,-0.293,0.2792,-0.2439,-0.1227,0.1243,0.3037,-0.3114,0.3083,-0.2301,-0.201,0.1411,-0.316,-0.3129,0.2684,-0.2465,-0.2411,0.1034,-0.2576,-0.2476,0.1817,-0.2595,-0.2376,0.1924,0.2638,-0.2588,0.2698,-0.2526,-0.2211,0.2587,-0.2726,-0.2551,0.1934,-0.0501,0.0483,0.024,0.0781,-0.2588,-0.5288,0.6582,0.5964,-1.0,-0.7225,-0.2987,-1.0,0.4939,1.0,1.0,-0.6892,0.6636,-1.0,0.041,1.0,-1.0,-1.0,-0.3758,0.0,0.0,0.0,0.0,0.0,0.0,0.0,0.0,0.0,0.0,0.0,0.0,0.0,0
0.72,run,0.3,5.5,6.66,1.89,-29.33,0.0,0.0,0.0,0.5,-16.7,9.76,86.75,-19.69,-3.43,95.54,-16.7,7.21,88.77,20.04,-5.01,98.88,-16.08,1.05,89.21,-21.01,-4.92,93.87,-18.51,11.2,92.69,-27.88,-10.06,94.72,-25.32,0.64,98.25,28.41,-9.77,100.9,-23.87,-5.56,97.99,-25.68,-12.77,88.72,0.4229,0.3235,0.9924,-1.0,-0.2281,0.3335,-1.0,0.0419,1.0,1.0,0.496,-0.2146,-1.0,-0.7009,1.0,-0.5161,-1.0,-1.0,0.052,0.006,0.052,0.019,0.0,0.026,0.039,0.013,0.084,0.104,0.0,0.026,0.019,0.013,0.156,0.019,0.0,0.013,-0.2715,-0.1166,0.1181,-0.3283,-0.316,0.293,-0.27,-0.1488,0.1488,0.3237,-0.3375,0.3344,-0.2531,-0.2255,0.1657,-0.339,-0.3375,0.2761,-0.2526,-0.2203,0.1067,-0.2776,-0.2591,0.1787,-0.2789,-0.2636,0.2262,0.2591,-0.2784,0.2861,-0.2626,-0.2463,0.2727,-0.2766,-0.2702,0.164,-0.05,0.0437,0.0151,-0.001,-0.2635,-1.0,0.8635,1.0,-1.0,-0.7284,1.0,-1.0,-0.7352,1.0,1.0,-0.4727,0.2211,-1.0,-0.1299,0.7425,-1.0,-1.0,-0.5736,0.0,0.0,0.0,0.0,0.0,0.0,0.0,0.0,0.0,0.0,0.0,0.0,0.0,0
0.76,run,0.35,5.17,1.08,-7.53,-20.52,0.0,0.0,0.0,0.5,-17.93,9.32,87.8,-21.45,-4.92,95.98,-18.19,5.8,90.18,21.45,-6.42,100.11,-17.49,-0.35,90.7,-22.5,-6.33,93.87,-17.01,9.7,94.19,-29.38,-11.56,96.22,-26.82,-0.86,99.75,29.91,-8.27,99.4,-25.37,-4.06,99.49,-24.18,-14.27,87.22,1.0,-0.0218,1.0,-1.0,-0.8309,0.9342,-1.0,-1.0,1.0,1.0,1.0,-1.0,-1.0,1.0,1.0,1.0,-1.0,-1.0,0.026,0.013,0.097,0.019,0.006,0.006,0.026,0.013,0.104,0.065,0.0,0.019,0.019,0.013,0.175,0.013,0.0,0.006,-0.293,-0.1319,0.1319,-0.3543,-0.3405,0.3022,-0.2945,-0.1733,0.1749,0.3513,-0.362,0.3574,-0.2777,-0.25,0.1871,-0.3636,-0.3605,0.2807,-0.2574,-0.2117,0.1265,-0.2921,-0.2734,0.1596,-0.2873,-0.2765,0.2562,0.2849,-0.2869,0.2866,-0.2759,-0.2645,0.2714,-0.2857,-0.2754,0.1321,-0.026,0.0433,0.1163,0.033,-0.512,0.4229,0.3235,0.9924,-1.0,-0.2281,0.3335,-1.0,0.0419,1.0,1.0,0.496,-0.2146,-1.0,-0.7009,1.0,-0.5161,-1.0,-1.0,0.0,0.0,0.0,0.0,0.0,0.0,0.0,0.0,0.0,0.0,0.0,0.0,0.0,0
0.8,run,0.45,4.88,3.41,-7.32,-14.48,0.0,0.0,0.0,0.5,-18.81,9.14,89.03,-22.15,-6.24,96.15,-19.51,4.39,91.41,22.85,-7.73,100.99,-18.81,-1.76,92.11,-23.73,-7.65,93.43,-15.51,8.2,95.69,-30.88,-13.06,94.72,-25.32,0.64,101.25,31.41,-6.77,97.9,-26.87,-2.56,97.99,-22.68,-12.77,85.72,1.0,-1.0,1.0,-1.0,-0.0813,0.1683,0.3715,1.0,1.0,1.0,1.0,-1.0,-0.8298,1.0,-0.4025,1.0,0.3013,-1.0,0.026,0.013,0.097,0.019,0.006,0.006,0.026,0.013,0.104,0.065,0.0,0.019,0.019,0.013,0.175,0.013,0.0,0.006,-0.3145,-0.1396,0.1503,-0.385,-0.3666,0.3099,-0.3206,-0.1979,0.1994,0.3758,-0.3866,0.3789,-0.3022,-0.2746,0.2132,-0.3896,-0.385,0.2807,-0.2608,-0.177,0.1576,-0.3196,-0.2893,0.1405,-0.299,-0.2857,0.2714,0.2915,-0.293,0.2812,-0.2852,-0.2772,0.2879,-0.2979,-0.2849,0.0924,-0.0223,0.0141,0.0188,-0.1314,-0.3582,1.0,-0.0218,1.0,-1.0,-0.8309,0.9342,-1.0,-1.0,1.0,1.0,1.0,-1.0,-1.0,1.0,1.0,1.0,-1.0,-1.0,0.0,0.0,0.0,0.0,0.0,0.0,0.0,0.0,0.0,0.0,0.0,0.0,0.0,0
0.84,run,0.64,4.78,4.59,-2.44,-18.07,0.0,0.0,0.0,0.5,-19.42,8.79,90.35,-23.99,-7.73,95.98,-21.01,2.81,92.81,24.35,-8.79,101.69,-20.39,-2.99,93.69,-24.7,-9.14,92.9,-17.01,6.7,97.19,-32.38,-11.56,93.22,-23.82,2.14,102.75,29.91,-5.27,96.4,-25.37,-1.06,96.49,-21.18,-11.27,84.22,-1.0,-1.0,1.0,-1.0,0.6152,-1.0,1.0,1.0,1.0,-0.1119,1.0,-1.0,-0.6344,1.0,-1.0,1.0,1.0,-1.0,0.026,0.013,0.097,0.019,0.006,0.006,0.026,0.013,0.104,0.065,0.0,0.019,0.019,0.013,0.175,0.013,0.0,0.006,-0.3298,-0.1427,0.1718,-0.3973,-0.3896,0.3129,-0.3436,-0.2224,0.2209,0.4004,-0.4096,0.3942,-0.3252,-0.2991,0.2378,-0.4111,-0.408,0.273,-0.2407,-0.1355,0.1917,-0.2702,-0.2897,0.11,-0.2965,-0.293,0.2714,0.2971,-0.2923,0.255,-0.2869,-0.2871,0.2945,-0.2899,-0.2866,0.0356,-0.0128,-0.0114,0.0596,-0.1278,-0.2527,1.0,-1.0,1.0,-1.0,-0.0813,0.1683,0.3715,1.0,1.0,1.0,1.0,-1.0,-0.8298,1.0,-0.4025,1.0,0.3013,-1.0,0.0,0.0,0.0,0.0,0.0,0.0,0.0,0.0,0.0,0.0,0.0,0.0,0.0,0
0.88,run,0.77,4.91,4.41,4.16,-17.47,0.0,0.0,0.0,0.5,-19.69,8.17,91.41,-25.22,-8.96,95.62,-22.06,1.67,93.96,25.58,-9.49,101.95,-21.62,-3.96,94.75,-25.31,-10.11,91.32,-18.51,5.2,98.69,-33.88,-10.06,91.72,-22.32,3.64,104.25,28.41,-3.77,94.9,-26.87,0.44,94.99,-19.68,-9.77,82.72,-1.0,-1.0,1.0,-1.0,1.0,-1.0,1.0,1.0,1.0,-1.0,1.0,0.31,-1.0,0.8555,-1.0,1.0,1.0,-1.0,0.006,0.013,0.169,0.019,0.006,0.019,0.033,0.039,0.143,0.104,0.0,0.0,0.033,0.045,0.136,0.006,0.013,0.0,-0.3405,-0.1488,0.1948,-0.4295,-0.4157,0.3099,-0.3697,-0.25,0.2454,0.4264,-0.428,0.4065,-0.3528,-0.3206,0.2654,-0.428,-0.4341,0.2638,-0.2048,-0.1156,0.212,-0.298,-0.2909,0.0666,-0.2957,-0.2984,0.2729,0.2961,-0.2668,0.22,-0.2941,-0.2735,0.2995,-0.2599,-0.2888,-0.0061,0.0031,-0.0193,0.0801,-0.0426,-0.3153,-1.0,-1.0,1.0,-1.0,0.6152,-1.0,1.0,1.0,1.0,-0.1119,1.0,-1.0,-0.6344,1.0,-1.0,1.0,1.0,-1.0,0.0,0.0,0.0,0.0,0.0,0.0,0.0,0.0,0.0,0.0,0.0,0.0,0.0,0
0.92,run,0.93,5.28,4.82,8.78,-7.24,0.0,0.0,0.0,0.5,-19.51,7.29,92.72,-26.63,-10.2,94.75,-23.12,0.7,95.36,26.89,-9.76,101.95,-22.76,-4.57,95.62,-25.58,-10.55,89.56,-20.01,3.7,100.19,-35.0,-8.56,90.22,-20.82,5.14,105.75,26.91,-2.27,93.4,-28.37,1.94,93.49,-18.18,-8.27,81.22,-1.0,-1.0,1.0,-1.0,1.0,-1.0,0.1934,1.0,1.0,-1.0,1.0,0.1387,-1.0,1.0,-1.0,1.0,1.0,-1.0,0.006,0.013,0.169,0.019,0.006,0.019,0.033,0.039,0.143,0.104,0.0,0.0,0.033,0.045,0.136,0.006,0.013,0.0,-0.3451,-0.1595,0.2132,-0.451,-0.4372,0.3037,-0.3881,-0.27,0.2654,0.4479,-0.4403,0.4111,-0.3743,-0.3375,0.2838,-0.4387,-0.451,0.2362,-0.1627,-0.1262,0.226,-0.2992,-0.2942,0.0207,-0.2846,-0.293,0.2752,0.2979,-0.2385,0.1734,-0.2965,-0.2627,0.2873,-0.2273,-0.2733,-0.1208,0.0152,-0.0081,0.0769,0.0726,-0.3049,-1.0,-1.0,1.0,-1.0,1.0,-1.0,1.0,1.0,1.0,-1.0,1.0,0.31,-1.0,0.8555,-1.0,1.0,1.0,-1.0,0.0,0.0,0.0,0.0,0.0,0.0,0.0,0.0,0.0,0.0,0.0,0.0,0.0,0
0.96,run,1.52,5.34,14.35,7.43,-6.78,0.0,0.0,0.0,0.5,-19.42,6.24,94.04,-28.04,-10.99,93.6,-23.91,0.0,96.68,27.86,-9.76,101.34,-24.08,-5.01,96.24,-25.66,-11.69,88.86,-21.51,2.2,101.69,-35.0,-7.06,88.72,-19.32,5.46,107.25,25.41,-0.77,91.9,-29.87,3.44,91.99,-16.68,-6.77,79.72,-1.0,-1.0,1.0,-1.0,1.0,-1.0,1.0,0.5538,1.0,-1.0,1.0,-0.7199,-1.0,1.0,-0.8642,1.0,1.0,-1.0,0.006,0.013,0.169,0.019,0.006,0.019,0.033,0.039,0.143,0.104,0.0,0.0,0.033,0.045,0.136,0.006,0.013,0.0,-0.3421,-0.1749,0.2362,-0.4755,-0.4587,0.2884,-0.4065,-0.2869,0.2899,0.4709,-0.4449,0.4111,-0.3942,-0.3482,0.2991,-0.4433,-0.4587,0.2056,-0.1024,-0.1458,0.2444,-0.3013,-0.2864,-0.0429,-0.2681,-0.2683,0.2845,0.2946,-0.1842,0.1214,-0.2822,-0.2241,0.2585,-0.1763,-0.22,-0.1994,0.0291,0.024,0.0841,0.1533,-0.1264,-1.0,-1.0,1.0,-1.0,1.0,-1.0,0.1934,1.0,1.0,-1.0,1.0,0.1387,-1.0,1.0,-1.0,1.0,1.0,-1.0,0.0,0.0,0.0,0.0,0.0,0.0,0.0,0.0,0.0,0.0,0.0,0.0,0.0,0
1.0,run,1.45,5.38,0.95,2.55,-6.13,0.0,0.0,0.0,0.5,-19.07,4.92,95.36,-29.36,-11.78,92.46,-24.35,-0.26,97.91,28.74,-9.76,100.55,-25.4,-5.01,96.68,-24.79,-12.22,87.19,-23.01,0.7,103.19,-35.0,-5.56,87.22,-17.82,3.96,108.75,23.91,0.73,93.4,-31.37,4.94,90.49,-15.18,-5.27,78.22,-1.0,-1.0,1.0,-1.0,1.0,-1.0,1.0,-0.6292,1.0,-1.0,1.0,1.0,-1.0,1.0,-1.0,1.0,1.0,-1.0,0.006,0.0,0.175,0.019,0.0,0.019,0.013,0.111,0.214,0.039,0.045,0.006,0.058,0.214,0.039,0.013,0.0,0.019,-0.3405,-0.1933,0.2592,-0.5001,-0.4725,0.2684,-0.4203,-0.2991,0.3129,0.4878,-0.4449,0.4004,-0.4172,-0.3559,0.3099,-0.4449,-0.4786,0.1933,-0.066,-0.1705,0.2566,-0.3021,-0.2518,-0.1041,-0.239,-0.2334,0.2847,0.269,-0.1289,0.0451,-0.283,-0.1853,0.2209,-0.1291,-0.2281,-0.1852,0.0802,0.029,0.2505,0.1297,-0.1183,-1.0,-1.0,1.0,-1.0,1.0,-1.0,1.0,0.5538,1.0,-1.0,1.0,-0.7199,-1.0,1.0,-0.8642,1.0,1.0,-1.0,0.0,0.0,0.0,0.0,0.0,0.0,0.0,0.0,0.0,0.0,0.0,0.0,0.0,0
1.04,run,1.19,5.58,-3.4,4.71,-3.75,0.0,0.002,0.0,0.5,-19.16,3.69,96.77,-30.76,-12.04,90.79,-24.52,-0.35,99.05,29.09,-9.14,99.4,-26.72,-5.01,96.77,-24.08,-12.3,85.69,-24.51,-0.8,104.69,-35.0,-4.06,85.72,-16.32,2.46,110.25,22.41,2.23,91.9,-32.87,3.44,88.99,-13.68,-3.77,76.72,-1.0,-1.0,1.0,-1.0,1.0,-1.0,0.6848,0.4138,1.0,-1.0,1.0,0.2913,-1.0,0.2235,-1.0,1.0,1.0,-1.0,0.006,0.0,0.175,0.019,0.0,0.019,0.013,0.111,0.214,0.039,0.045,0.006,0.058,0.214,0.039,0.013,0.0,0.019,-0.3344,-0.2163,0.2823,-0.5231,-0.4863,0.2485,-0.428,-0.3037,0.3344,0.5031,-0.4449,0.3866,-0.4403,-0.3559,0.3175,-0.4295,-0.4878,0.1641,-0.0232,-0.2056,0.2658,-0.2978,-0.228,-0.1477,-0.1961,-0.1806,0.2798,0.2458,-0.0903,-0.0202,-0.2844,-0.1297,0.1834,-0.0329,-0.1942,-0.2389,0.0741,0.0323,0.0165,0.0446,-0.1071,-1.0,-1.0,1.0,-1.0,1.0,-1.0,1.0,-0.6292,1.0,-1.0,1.0,1.0,-1.0,1.0,-1.0,1.0,1.0,-1.0,0.0,0.0,0.0,0.0,0.0,0.0,0.0,0.0,0.0,0.0133,0.0,0.0133,0.0,0
1.08,run,1.22,6.13,3.13,12.62,0.67,0.0,0.004,0.0,0.5,-20.13,2.2,98.26,-32.17,-11.95,89.3,-24.52,-0.44,100.28,29.18,-8.26,98.0,-28.12,-4.92,96.59,-22.85,-12.22,84.38,-26.01,-2.3,106.19,-35.0,-2.56,84.22,-14.82,0.96,111.75,20.91,3.73,90.4,-34.37,1.94,87.49,-12.18,-2.27,75.22,-1.0,-1.0,1.0,-1.0,1.0,-0.3497,1.0,-1.0,1.0,-1.0,1.0,-0.0773,-1.0,-1.0,-1.0,1.0,1.0,-1.0,0.006,0.0,0.175,0.019,0.0,0.019,0.013,0.111,0.214,0.039,0.045,0.006,0.058,0.214,0.039,0.013,0.0,0.019,-0.3359,-0.2378,0.3068,-0.5476,-0.4909,0.2194,-0.431,-0.3053,0.3543,0.5093,-0.4341,0.3666,-0.4633,-0.3559,0.3191,-0.4172,-0.4893,0.1381,-0.022,-0.2244,0.2781,-0.3005,-0.1768,-0.2126,-0.1487,-0.1322,0.2706,0.195,-0.0229,-0.0889,-0.2853,-0.0908,0.1341,0.023,-0.1417,-0.265,0.0513,0.0503,-0.0593,0.0823,-0.0655,-1.0,-1.0,1.0,-1.0,1.0,-1.0,0.6848,0.4138,1.0,-1.0,1.0,0.2913,-1.0,0.2235,-1.0,1.0,1.0,-1.0,0.0,0.0,0.0,0.0,0.0,0.0,0.0,0.0,0.0,0.0267,0.0,0.0267,0.0,0
1.12,run,1.38,6.35,4.73,5.07,-4.87,0.0,0.006,0.0,0.5,-21.01,0.79,99.76,-33.22,-11.51,87.89,-24.08,-0.44,101.51,28.92,-6.86,96.5,-29.44,-3.69,95.45,-21.53,-11.87,82.79,-27.51,-3.8,107.69,-35.0,-1.06,85.72,-13.32,-0.54,113.25,19.41,5.23,91.9,-35.0,0.44,85.99,-10.68,-0.77,73.72,-1.0,-1.0,1.0,-1.0,1.0,0.5787,1.0,-1.0,1.0,-1.0,0.6317,1.0,-1.0,-0.863,-0.2836,1.0,1.0,-1.0,0.019,0.0,0.182,0.013,0.019,0.006,0.013,0.442,0.26,0.013,0.065,0.006,0.111,0.403,0.0,0.033,0.033,0.019,-0.3528,-0.2638,0.3329,-0.5722,-0.4893,0.1933,-0.431,-0.3068,0.3758,0.5108,-0.4188,0.3421,-0.4878,-0.3543,0.316,-0.3958,-0.4878,0.115,-0.0784,-0.2545,0.2921,-0.302,-0.1181,-0.2463,-0.1041,-0.0983,0.2697,0.1423,0.0413,-0.154,-0.2914,-0.0578,0.0824,0.0963,-0.0934,-0.2715,0.0536,0.0983,0.0546,0.2203,0.0116,-1.0,-1.0,1.0,-1.0,1.0,-0.3497,1.0,-1.0,1.0,-1.0,1.0,-0.0773,-1.0,-1.0,-1.0,1.0,1.0,-1.0,0.0,0.0,0.0,0.0,0.0,0.0,0.0,0.0,0.0,0.04,0.0,0.04,0.0,0
1.16,run,1.42,6.79,1.22,10.96,-11.9,0.0,0.008,0.0,0.5,-22.32,-0.62,101.07,-34.01,-10.81,86.57,-23.82,-0.44,102.83,28.21,-5.54,95.01,-31.03,-2.72,94.39,-20.13,-10.99,81.39,-29.01,-5.3,109.19,-35.0,0.44,84.22,-11.82,-2.04,114.75,17.91,3.73,93.4,-35.0,-1.06,84.49,-9.18,0.73,72.22,-1.0,-0.5317,1.0,-1.0,1.0,-0.5433,1.0,-1.0,1.0,-1.0,0.2624,1.0,-1.0,-1.0,-0.513,1.0,1.0,-1.0,0.019,0.0,0.182,0.013,0.019,0.006,0.013,0.442,0.26,0.013,0.065,0.006,0.111,0.403,0.0,0.033,0.033,0.019,-0.3682,-0.2884,0.359,-0.5906,-0.4817,0.1687,-0.4234,-0.3068,0.3973,0.5062,-0.3942,0.316,-0.5108,-0.3329,0.2961,-0.3728,-0.4817,0.0874,-0.1129,-0.2709,0.303,-0.281,-0.0537,-0.2651,-0.0439,-0.0688,0.2699,0.0822,0.1216,-0.2063,-0.2909,0.0406,-0.0176,0.1544,-0.0422,-0.2943,0.0676,0.1175,0.0826,0.0884,-0.085,-1.0,-1.0,1.0,-1.0,1.0,0.5787,1.0,-1.0,1.0,-1.0,0.6317,1.0,-1.0,-0.863,-0.2836,1.0,1.0,-1.0,0.0,0.0,0.0,0.0,0.0,0.0,0.0,0.0,0.0,0.0533,0.0,0.0533,0.0,0
1.2,run,1.69,7.15,6.01,9.67,-10.2,0.0,0.01,0.0,0.5,-23.73,-2.02,102.48,-34.54,-9.76,85.34,-22.24,-0.44,104.33,27.25,-4.22,93.69,-32.34,-1.85,93.08,-18.72,-9.49,79.8,-30.51,-5.8,110.69,-35.0,1.94,82.72,-10.32,-3.54,116.25,16.41,2.23,94.9,-35.0,-2.56,82.99,-7.68,2.23,70.72,-1.0,0.3492,1.0,-1.0,1.0,-0.8293,1.0,-1.0,1.0,-1.0,-0.623,1.0,-1.0,-1.0,-0.0356,1.0,1.0,-1.0,0.019,0.0,0.182,0.013,0.019,0.006,0.013,0.442,0.26,0.013,0.065,0.006,0.111,0.403,0.0,0.033,0.033,0.019,-0.3912,-0.3129,0.382,-0.6044,-0.4694,0.1457,-0.4188,-0.3068,0.4203,0.4939,-0.3712,0.2899,-0.5384,-0.316,0.2777,-0.3482,-0.4663,0.0629,-0.1647,-0.2811,0.2978,-0.2481,0.0082,-0.2713,-0.0136,-0.0482,0.2747,0.0118,0.1709,-0.2416,-0.3065,0.0913,-0.0809,0.1995,0.0276,-0.2975,0.0713,0.1558,0.0213,0.1913,-0.2077,-1.0,-0.5317,1.0,-1.0,1.0,-0.5433,1.0,-1.0,1.0,-1.0,0.2624,1.0,-1.0,-1.0,-0.513,1.0,1.0,-1.0,0.0,0.0,0.0,0.0,0.0,0.0,0.0,0.0,0.0,0.0667,0.0,0.0667,0.0,0
1.24,run,1.6,7.65,-4.0,13.47,-5.7,0.0,0.012,0.0,0.5,-25.14,-3.43,103.8,-34.72,-8.53,84.64,-21.09,-0.44,105.64,25.93,-2.9,92.81,-33.31,-1.41,91.58,-17.49,-8.26,78.49,-32.01,-7.3,112.19,-35.0,3.44,81.22,-8.82,-5.04,117.75,14.91,0.73,96.4,-35.0,-4.06,81.49,-6.18,3.73,69.22,-1.0,0.1001,1.0,-1.0,1.0,-1.0,1.0,-1.0,1.0,-1.0,-0.4732,1.0,-1.0,-1.0,-0.5357,1.0,1.0,-0.3087,0.019,0.0,0.175,0.006,0.039,0.006,0.039,0.033,0.273,0.006,0.071,0.006,0.039,0.403,0.0,0.052,0.026,0.006,-0.4157,-0.3375,0.4065,-0.6136,-0.451,0.1243,-0.3912,-0.3068,0.4464,0.4771,-0.3482,0.2669,-0.5614,-0.3007,0.2546,-0.3237,-0.4403,0.0353,-0.2075,-0.289,0.3007,-0.2083,0.0749,-0.2706,0.0942,-0.0337,0.2903,-0.0551,0.2061,-0.2556,-0.301,0.1216,-0.1431,0.2319,0.1173,-0.312,0.0949,0.1868,0.1049,0.1687,-0.1781,-1.0,0.3492,1.0,-1.0,1.0,-0.8293,1.0,-1.0,1.0,-1.0,-0.623,1.0,-1.0,-1.0,-0.0356,1.0,1.0,-1.0,0.0,0.0,0.0,0.0,0.0,0.0,0.0,0.0,0.0,0.08,0.0,0.08,0.0,0
1.28,run,1.57,7.9,-2.19,8.59,1.54,0.0,0.014,0.0,0.5,-26.46,-4.75,105.29,-34.72,-7.21,83.23,-19.6,-0.79,107.31,24.43,-1.67,92.11,-33.93,-1.32,90.18,-16.17,-6.86,76.99,-33.51,-5.8,113.69,-33.5,4.94,79.72,-7.32,-6.54,119.25,13.41,-0.77,94.9,-35.0,-5.56,82.99,-4.68,5.23,70.72,-1.0,1.0,1.0,-0.0549,1.0,-0.1671,1.0,-1.0,1.0,-1.0,-1.0,0.122,-1.0,-1.0,0.9114,0.6224,1.0,1.0,0.019,0.0,0.175,0.006,0.039,0.006,0.039,0.033,0.273,0.006,0.071,0.006,0.039,0.403,0.0,0.052,0.026,0.006,-0.4403,-0.362,0.4295,-0.6167,-0.4295,0.112,-0.3712,-0.3068,0.4694,0.4541,-0.3252,0.2516,-0.5783,-0.293,0.2286,-0.3022,-0.4188,0.0123,-0.2371,-0.2941,0.2965,-0.1573,0.1327,-0.2353,0.1405,-0.0236,0.2892,-0.1246,0.2303,-0.2363,-0.2738,0.1138,-0.1977,0.2426,0.1624,-0.3044,0.0872,0.2309,-0.0698,0.2351,-0.0995,-1.0,0.1001,1.0,-1.0,1.0,-1.0,1.0,-1.0,1.0,-1.0,-0.4732,1.0,-1.0,-1.0,-0.5357,1.0,1.0,-0.3087,0.0,0.0,0.0,0.0,0.0,0.0,0.0,0.0,0.0,0.0933,0.0,0.0933,0.0,0
1.32,run,1.6,7.18,-0.15,-15.4,7.36,0.0,0.016,0.0,0.5,-27.86,-6.15,107.14,-34.72,-5.62,81.91,-17.93,-2.64,109.25,22.94,-0.62,91.58,-34.37,-1.14,88.51,-14.68,-5.27,75.41,-32.01,-7.3,112.19,-32.0,6.44,81.22,-5.82,-8.04,120.75,11.91,-2.27,96.4,-35.0,-7.06,84.49,-6.18,6.73,72.22,-0.409,-1.0,0.4082,1.0,1.0,0.9076,1.0,-1.0,1.0,-1.0,-1.0,1.0,-1.0,-1.0,0.7428,-1.0,1.0,1.0,0.019,0.0,0.175,0.006,0.039,0.006,0.039,0.033,0.273,0.006,0.071,0.006,0.039,0.403,0.0,0.052,0.026,0.006,-0.4633,-0.385,0.4556,-0.6167,-0.4065,0.0874,-0.3451,-0.3129,0.4985,0.428,-0.3037,0.2393,-0.589,-0.2915,0.204,-0.2792,-0.3942,-0.0138,-0.2471,-0.287,0.2996,-0.1101,0.1741,-0.2513,0.1904,-0.0382,0.3053,-0.1793,0.237,-0.2087,-0.2296,0.0851,-0.225,0.251,0.2003,-0.3051,0.0842,0.2522,-0.0382,0.15,0.0268,-1.0,1.0,1.0,-0.0549,1.0,-0.1671,1.0,-1.0,1.0,-1.0,-1.0,0.122,-1.0,-1.0,0.9114,0.6224,1.0,1.0,0.0,0.0,0.0,0.0,0.0,0.0,0.0,0.0,0.0,0.1067,0.0,0.1067,0.0,0
1.36,run,1.77,7.07,4.77,-5.69,3.89,0.0,0.018,0.0,0.5,-28.83,-6.94,108.28,-34.54,-4.57,81.12,-16.7,-3.69,110.57,21.8,-0.18,91.58,-34.45,-1.05,87.36,-13.71,-4.22,74.44,-33.51,-8.8,110.69,-30.5,4.94,82.72,-4.32,-9.54,122.25,10.41,-3.77,94.9,-35.0,-8.56,82.99,-7.68,8.23,73.72,-1.0,-1.0,-0.6336,1.0,0.1514,1.0,1.0,-1.0,1.0,-1.0,-0.4674,-0.389,-1.0,-1.0,-0.6692,-1.0,0.8322,1.0,0.052,0.013,0.104,0.006,0.052,0.0,0.033,0.026,0.143,0.039,0.084,0.091,0.019,0.019,0.0,0.156,0.058,0.019,-0.4878,-0.4096,0.4878,-0.6167,-0.3789,0.0644,-0.316,-0.3451,0.5323,0.4019,-0.2853,0.2301,-0.5967,-0.2884,0.1749,-0.2531,-0.3666,-0.0414,-0.2502,-0.2782,0.3111,-0.0771,0.2088,-0.2484,0.225,-0.1281,0.3199,-0.2076,0.2238,-0.175,-0.1848,0.0692,-0.2492,0.2578,0.2271,-0.3005,0.0876,0.19,-0.0027,-0.2688,0.1285,-0.409,-1.0,0.4082,1.0,1.0,0.9076,1.0,-1.0,1.0,-1.0,-1.0,1.0,-1.0,-1.0,0.7428,-1.0,1.0,1.0,0.0,0.0,0.0,0.0,0.0,0.0,0.0,0.0,0.0,0.12,0.0,0.12,0.0,0
1.4,run,1.66,7.09,-2.33,-0.18,2.54,0.0,0.02,0.0,0.5,-29.79,-7.56,109.51,-33.93,-3.25,80.42,-15.29,-4.83,112.24,20.39,0.26,91.93,-34.72,-1.14,86.22,-12.3,-3.08,73.04,-35.0,-10.3,109.19,-29.0,3.44,84.22,-2.82,-11.04,123.75,8.91,-5.27,93.4,-35.0,-10.06,84.49,-9.18,9.73,75.22,-1.0,-1.0,-1.0,1.0,-1.0,1.0,1.0,-1.0,1.0,-1.0,-0.8736,-0.9837,-1.0,-1.0,1.0,-1.0,1.0,1.0,0.052,0.013,0.104,0.006,0.052,0.0,0.033,0.026,0.143,0.039,0.084,0.091,0.019,0.019,0.0,0.156,0.058,0.019,-0.5047,-0.4234,0.5077,-0.6136,-0.3605,0.0506,-0.2945,-0.3636,0.5553,0.382,-0.2777,0.2301,-0.5983,-0.2869,0.1549,-0.2362,-0.3482,-0.0583,-0.2542,-0.2594,0.3112,-0.0396,0.2323,-0.2385,0.2581,-0.1759,0.3317,-0.2387,0.1926,-0.1225,-0.1366,0.0556,-0.2679,0.2595,0.2452,-0.2894,0.1017,0.1805,0.0833,-0.0993,0.0679,-1.0,-1.0,-0.6336,1.0,0.1514,1.0,1.0,-1.0,1.0,-1.0,-0.4674,-0.389,-1.0,-1.0,-0.6692,-1.0,0.8322,1.0,0.0,0.0,0.0,0.0,0.0,0.0,0.0,0.0,0.0,0.1333,0.0,0.1333,0.0,0
1.44,run,1.61,6.64,-1.99,-12.0,12.12,0.0,0.022,0.0,0.5,-31.03,-8.53,110.48,-33.05,-1.93,79.98,-13.89,-6.24,113.91,19.07,0.26,92.64,-34.8,-1.93,84.99,-11.07,-2.2,72.42,-35.0,-11.8,107.69,-27.5,1.94,85.72,-1.32,-12.54,125.25,7.41,-6.77,91.9,-35.0,-11.56,85.99,-10.68,11.23,76.72,-1.0,-1.0,-1.0,1.0,-1.0,1.0,1.0,-1.0,1.0,-1.0,-1.0,-1.0,-1.0,-1.0,1.0,-1.0,1.0,1.0,0.052,0.013,0.104,0.006,0.052,0.0,0.033,0.026,0.143,0.039,0.084,0.091,0.019,0.019,0.0,0.156,0.058,0.019,-0.5216,-0.4341,0.5292,-0.6029,-0.3375,0.0383,-0.27,-0.3835,0.5844,0.3574,-0.27,0.2362,-0.6029,-0.2884,0.135,-0.2117,-0.3283,-0.0828,-0.2406,-0.2214,0.2975,0.0122,0.248,-0.2125,0.2717,-0.1971,0.3404,-0.2582,0.1633,-0.063,-0.1127,0.0332,-0.2615,0.2727,0.2456,-0.2936,0.0928,0.1815,-0.0406,-0.0031,0.0444,-1.0,-1.0,-1.0,1.0,-1.0,1.0,1.0,-1.0,1.0,-1.0,-0.8736,-0.9837,-1.0,-1.0,1.0,-1.0,1.0,1.0,0.0,0.0,0.0,0.0,0.0,0.0,0.0,0.0,0.0,0.1467,0.0,0.1467,0.0,0
1.48,run,1.37,6.49,-6.99,-5.43,15.24,0.0,0.024,0.0,0.5,-32.34,-9.67,111.09,-31.82,-0.7,79.98,-12.39,-7.65,115.4,17.93,0.26,92.81,-34.89,-3.43,84.02,-10.02,-1.41,71.89,-35.0,-13.3,106.19,-26.0,0.44,87.22,0.18,-14.04,126.75,5.91,-8.27,90.4,-35.0,-13.06,87.49,-12.18,9.73,78.22,-1.0,-1.0,-1.0,1.0,-1.0,1.0,1.0,-1.0,1.0,-1.0,-1.0,-0.9975,-1.0,-1.0,1.0,-1.0,0.0376,1.0,0.045,0.0,0.026,0.006,0.071,0.033,0.026,0.013,0.104,0.117,0.0,0.091,0.0,0.0,0.006,0.111,0.305,0.006,-0.543,-0.451,0.5461,-0.5875,-0.3145,0.0307,-0.2454,-0.408,0.6136,0.3344,-0.27,0.2485,-0.6044,-0.3022,0.1135,-0.1902,-0.3129,-0.0936,-0.2483,-0.2177,0.271,0.0655,0.2592,-0.1773,0.2815,-0.2293,0.3466,-0.2663,0.1143,0.0015,-0.0846,-0.0281,-0.2629,0.2708,0.229,-0.2455,0.0884,0.1427,-0.0348,-0.2094,0.2116,-1.0,-1.0,-1.0,1.0,-1.0,1.0,1.0,-1.0,1.0,-1.0,-1.0,-1.0,-1.0,-1.0,1.0,-1.0,1.0,1.0,0.0,0.0,0.0,0.0,0.0,0.0,0.0,0.0,0.0,0.16,0.0,0.16,0.0,0
1.52,run,1.45,6.4,3.59,-1.46,0.53,0.0,0.026,0.0,0.5,-33.22,-10.9,111.45,-30.5,0.18,80.33,-10.99,-8.88,116.98,16.7,0.0,92.81,-34.89,-4.66,83.41,-9.23,-0.53,71.81,-35.0,-14.8,104.69,-24.5,-1.06,88.72,1.68,-15.54,128.25,4.41,-9.77,88.9,-35.0,-14.56,88.99,-13.68,8.23,79.72,-1.0,-1.0,-1.0,1.0,-1.0,1.0,1.0,-1.0,1.0,-1.0,-1.0,-1.0,-1.0,-1.0,1.0,-1.0,-0.3748,1.0,0.045,0.0,0.026,0.006,0.071,0.033,0.026,0.013,0.104,0.117,0.0,0.091,0.0,0.0,0.006,0.111,0.305,0.006,-0.566,-0.4709,0.5568,-0.566,-0.293,0.0307,-0.2194,-0.4326,0.6397,0.3145,-0.27,0.2516,-0.6059,-0.3283,0.0966,-0.1718,-0.2991,-0.1028,-0.2608,-0.2278,0.2303,0.1271,0.2626,-0.1241,0.2956,-0.2533,0.3412,-0.2618,0.08,0.0127,-0.065,-0.1182,-0.2478,0.2591,0.2125,-0.2066,0.0675,0.1291,-0.122,-0.0948,0.266,-1.0,-1.0,-1.0,1.0,-1.0,1.0,1.0,-1.0,1.0,-1.0,-1.0,-0.9975,-1.0,-1.0,1.0,-1.0,0.0376,1.0,0.0,0.0,0.0,0.0,0.0,0.0,0.0,0.0,0.0,0.1733,0.0,0.1733,0.0,0
1.56,run,1.22,6.03,-7.05,-6.84,7.44,0.0,0.028,0.0,0.5,-33.93,-11.95,111.45,-29.09,0.88,80.95,-9.58,-10.2,118.48,15.47,-0.97,92.81,-34.89,-5.98,83.06,-9.05,0.35,71.81,-35.0,-16.3,103.19,-23.0,-2.56,90.22,3.18,-17.04,129.75,2.91,-11.27,87.4,-33.5,-16.06,90.49,-15.18,6.73,81.22,-1.0,-1.0,-1.0,1.0,-1.0,1.0,1.0,-1.0,1.0,-1.0,-1.0,-0.7219,-0.9122,-1.0,1.0,-1.0,-0.3288,1.0,0.045,0.0,0.026,0.006,0.071,0.033,0.026,0.013,0.104,0.117,0.0,0.091,0.0,0.0,0.006,0.111,0.305,0.006,-0.5814,-0.4924,0.563,-0.543,-0.2777,0.0368,-0.1948,-0.4541,0.6673,0.293,-0.2746,0.2516,-0.6059,-0.3497,0.0859,-0.158,-0.2838,-0.1043,-0.2396,-0.2394,0.1841,0.1746,0.2409,-0.064,0.2983,-0.2572,0.3416,-0.2632,0.0389,0.0089,-0.0455,-0.1627,-0.2135,0.2328,0.2058,-0.1504,0.0742,0.122,0.0626,-0.0255,0.0092,-1.0,-1.0,-1.0,1.0,-1.0,1.0,1.0,-1.0,1.0,-1.0,-1.0,-1.0,-1.0,-1.0,1.0,-1.0,-0.3748,1.0,0.0,0.0,0.0,0.0,0.0,0.0,0.0,0.0,0.0,0.1867,0.0,0.1867,0.0,0
1.6,run,0.71,5.27,-10.64,-17.32,13.93,0.0,0.03,0.0,0.5,-34.45,-13.18,111.27,-27.77,1.32,81.83,-8.09,-11.69,119.88,13.89,-2.29,92.2,-34.8,-7.38,82.97,-8.88,2.81,72.33,-35.0,-17.8,101.69,-21.5,-4.06,91.72,4.68,-18.54,131.25,1.41,-12.77,85.9,-32.0,-17.56,91.99,-16.68,5.23,82.72,-1.0,-1.0,-1.0,1.0,-1.0,1.0,1.0,-1.0,1.0,-1.0,-1.0,-0.636,-0.4952,-1.0,1.0,-1.0,-1.0,1.0,0.013,0.0,0.006,0.013,0.065,0.091,0.026,0.0,0.078,0.091,0.0,0.0,0.019,0.006,0.019,0.026,0.104,0.026,-0.5937,-0.5108,0.563,-0.5185,-0.2654,0.0476,-0.1703,-0.4771,0.6934,0.2715,-0.2915,0.2516,-0.6059,-0.3728,0.0798,-0.1549,-0.2684,-0.1043,-0.2138,-0.2366,0.1288,0.2143,0.2147,-0.0045,0.3009,-0.2664,0.337,-0.2648,-0.0361,0.0062,-0.0319,-0.2002,-0.1724,0.1745,0.2016,-0.1052,0.0538,0.0898,-0.123,-0.1193,0.1298,-1.0,-1.0,-1.0,1.0,-1.0,1.0,1.0,-1.0,1.0,-1.0,-1.0,-0.7219,-0.9122,-1.0,1.0,-1.0,-0.3288,1.0,0.0,0.0,0.0,0.0,0.0,0.0,0.0,0.0,0.0,0.2,0.0,0.2,0.0,0
1.64,run,0.04,4.99,-13.97,-9.17,9.32,0.0,0.032,0.0,0.5,-34.54,-14.33,110.48,-26.46,1.41,83.14,-6.77,-13.1,121.38,12.3,-3.6,91.14,-34.28,-8.79,83.58,-8.88,4.13,73.12,-35.0,-19.3,100.19,-20.0,-5.56,93.22,6.18,-20.04,132.75,-0.09,-13.39,84.4,-30.5,-19.06,93.49,-18.18,3.73,84.22,-1.0,-0.8496,-1.0,1.0,-1.0,1.0,1.0,-1.0,1.0,-1.0,0.211,0.1149,1.0,-1.0,1.0,-1.0,-1.0,1.0,0.013,0.0,0.006,0.013,0.065,0.091,0.026,0.0,0.078,0.091,0.0,0.0,0.019,0.006,0.019,0.026,0.104,0.026,-0.6029,-0.5323,0.5599,-0.4955,-0.2577,0.0629,-0.1442,-0.5031,0.7179,0.2439,-0.3145,0.2408,-0.6044,-0.3973,0.0782,-0.1519,-0.2255,-0.0951,-0.1842,-0.2462,0.0787,0.2363,0.1791,0.0544,0.3085,-0.2843,0.328,-0.2889,-0.1116,-0.0359,-0.0165,-0.2322,-0.1265,0.1336,0.3023,-0.0391,0.0096,0.0228,-0.1857,-0.3024,0.2431,-1.0,-1.0,-1.0,1.0,-1.0,1.0,1.0,-1.0,1.0,-1.0,-1.0,-0.636,-0.4952,-1.0,1.0,-1.0,-1.0,1.0,0.0,0.0,0.0,0.0,0.0,0.0,0.0,0.0,0.0,0.2133,0.0,0.2133,0.0,0
1.68,run,-0.53,4.63,-13.43,-9.74,7.37,0.0,0.034,0.0,0.5,-34.54,-15.64,109.34,-25.49,1.41,84.55,-5.36,-14.59,122.78,10.81,-5.1,89.74,-33.31,-10.28,84.46,-9.58,4.75,74.18,-35.0,-20.8,98.69,-18.5,-7.06,94.72,7.68,-21.54,134.25,-1.59,-14.89,82.9,-29.0,-20.56,94.99,-19.68,2.23,85.72,-1.0,-0.3943,-1.0,1.0,-1.0,1.0,1.0,-1.0,1.0,-1.0,-0.2304,-1.0,1.0,-1.0,1.0,-1.0,-1.0,1.0,0.013,0.0,0.006,0.013,0.065,0.091,0.026,0.0,0.078,0.091,0.0,0.0,0.019,0.006,0.019,0.026,0.104,0.026,-0.6044,-0.5522,0.5461,-0.4725,-0.2562,0.0859,-0.1212,-0.5277,0.744,0.2163,-0.3375,0.2224,-0.5952,-0.4218,0.089,-0.1519,-0.2025,-0.0813,-0.1347,-0.247,0.0034,0.2516,0.1311,0.1242,0.3021,-0.2909,0.3272,-0.3056,-0.1643,-0.0941,0.0229,-0.2545,-0.0483,0.0935,0.2977,0.0243,-0.0485,-0.0009,-0.2438,-0.1601,0.1626,-1.0,-0.8496,-1.0,1.0,-1.0,1.0,1.0,-1.0,1.0,-1.0,0.211,0.1149,1.0,-1.0,1.0,-1.0,-1.0,1.0,0.0,0.0,0.0,0.0,0.0,0.0,0.0,0.0,0.0,0.2267,0.0,0.2267,0.0,0
1.72,run,-1.11,4.41,-14.92,-4.22,6.1,0.0,0.036,0.0,0.5,-34.63,-16.96,108.02,-23.82,1.23,85.96,-3.87,-15.91,124.19,9.4,-6.33,88.24,-32.26,-11.78,85.34,-10.55,5.01,75.32,-35.0,-22.3,97.19,-17.0,-8.56,96.22,9.18,-23.04,135.75,-3.09,-13.39,81.4,-27.5,-22.06,96.49,-21.18,0.73,87.22,-1.0,-0.3193,-1.0,1.0,-1.0,1.0,1.0,-1.0,1.0,-1.0,0.3037,-0.2934,1.0,-1.0,1.0,-1.0,-1.0,1.0,0.013,0.0,0.013,0.026,0.0,0.104,0.026,0.0,0.078,0.052,0.0,0.0,0.013,0.0,0.033,0.013,0.163,0.097,-0.6044,-0.5752,0.5262,-0.4556,-0.2562,0.1104,-0.0966,-0.5538,0.7685,0.1902,-0.3636,0.1979,-0.5783,-0.4479,0.1043,-0.1641,-0.1917,-0.0629,-0.0943,-0.2593,-0.0725,0.2394,0.0918,0.1791,0.3036,-0.3015,0.3212,-0.3118,-0.2128,-0.158,0.0793,-0.276,0.0237,0.0194,0.2487,0.0861,-0.0984,-0.0327,-0.2343,-0.1701,0.1286,-1.0,-0.3943,-1.0,1.0,-1.0,1.0,1.0,-1.0,1.0,-1.0,-0.2304,-1.0,1.0,-1.0,1.0,-1.0,-1.0,1.0,0.0,0.0,0.0,0.0,0.0,0.0,0.0,0.0,0.0,0.24,0.0,0.24,0.0,0
1.76,run,-1.19,3.93,-3.43,-10.2,-0.61,0.0,0.038,0.0,0.5,-34.63,-18.46,106.52,-22.15,0.18,87.63,-2.29,-17.58,125.86,7.73,-7.91,86.66,-30.67,-13.45,86.84,-11.6,5.01,76.64,-35.0,-20.8,95.69,-15.5,-10.06,97.72,10.68,-24.54,137.25,-4.59,-14.89,79.9,-26.0,-23.56,97.99,-22.68,-0.77,88.72,-1.0,0.1793,-1.0,1.0,-1.0,1.0,1.0,-1.0,1.0,-1.0,-0.2514,-1.0,1.0,-1.0,1.0,-1.0,-1.0,1.0,0.013,0.0,0.013,0.026,0.0,0.104,0.026,0.0,0.078,0.052,0.0,0.0,0.013,0.0,0.033,0.013,0.163,0.097,-0.6059,-0.5983,0.5031,-0.4264,-0.2592,0.135,-0.0706,-0.5768,0.7931,0.1657,-0.385,0.1718,-0.5599,-0.474,0.1197,-0.181,-0.1871,-0.043,-0.0717,-0.2677,-0.137,0.2769,0.0527,0.2173,0.3102,-0.2973,0.3168,-0.3103,-0.2295,-0.2083,0.1245,-0.2909,0.0741,-0.0497,0.1914,0.135,-0.149,-0.0518,-0.2603,-0.0737,0.1065,-1.0,-0.3193,-1.0,1.0,-1.0,1.0,1.0,-1.0,1.0,-1.0,0.3037,-0.2934,1.0,-1.0,1.0,-1.0,-1.0,1.0,0.0,0.0,0.0,0.0,0.0,0.0,0.0,0.0,0.0,0.2533,0.0,0.2533,0.0,0
1.8,run,-1.24,3.59,-2.35,-9.1,-0.1,0.0,0.04,0.0,0.5,-34.63,-19.51,105.38,-21.01,-0.88,88.86,-1.14,-18.9,127.09,6.5,-8.96,85.52,-29.62,-14.68,87.98,-12.92,5.01,77.78,-35.0,-19.3,94.19,-14.0,-11.56,99.22,12.18,-26.04,138.75,-6.09,-13.39,81.4,-24.5,-25.06,99.49,-24.18,-2.27,90.22,-1.0,0.2948,-1.0,1.0,-1.0,1.0,1.0,-0.6993,1.0,-1.0,0.9107,0.9306,1.0,-1.0,1.0,-1.0,-1.0,1.0,0.013,0.0,0.013,0.026,0.0,0.104,0.026,0.0,0.078,0.052,0.0,0.0,0.013,0.0,0.033,0.013,0.163,0.097,-0.6059,-0.6243,0.4771,-0.3973,-0.2777,0.1641,-0.043,-0.6059,0.8222,0.1365,-0.4126,0.1442,-0.5323,-0.5031,0.1457,-0.1994,-0.1871,-0.0199,-0.0502,-0.2735,-0.182,0.29,-0.0239,0.2484,0.3083,-0.3043,0.318,-0.3134,-0.2518,-0.237,0.1783,-0.2999,0.138,-0.0955,0.1339,0.1705,-0.1566,-0.0943,-0.0599,-0.1781,-0.0106,-1.0,0.1793,-1.0,1.0,-1.0,1.0,1.0,-1.0,1.0,-1.0,-0.2514,-1.0,1.0,-1.0,1.0,-1.0,-1.0,1.0,0.0,0.0,0.0,0.0,0.0,0.0,0.0,0.0,0.0,0.2667,0.0,0.2667,0.0,0
1.84,run,-1.32,3.06,-1.54,-11.76,5.45,0.0,0.042,0.0,0.5,-34.72,-20.48,103.89,-19.78,-2.11,90.18,0.18,-20.48,128.41,4.92,-10.28,84.2,-28.3,-16.08,89.21,-14.33,5.01,79.01,-35.0,-17.8,92.69,-12.5,-13.06,100.72,13.68,-27.54,140.25,-7.59,-11.89,79.9,-23.0,-26.56,100.99,-25.68,-3.77,91.72,-1.0,1.0,-1.0,1.0,-1.0,1.0,1.0,-0.348,1.0,-1.0,0.2953,-1.0,1.0,-1.0,1.0,-1.0,-1.0,1.0,0.013,0.006,0.013,0.052,0.0,0.104,0.033,0.013,0.084,0.039,0.0,0.0,0.026,0.0,0.052,0.033,0.006,0.111,-0.6059,-0.6427,0.4571,-0.3774,-0.2961,0.1856,-0.023,-0.6289,0.8437,0.115,-0.431,0.1243,-0.5139,-0.5246,0.1657,-0.2224,-0.1871,0.0,-0.0352,-0.272,-0.2146,0.2903,-0.0972,0.2678,0.3031,-0.3137,0.3166,-0.3134,-0.2568,-0.2531,0.2054,-0.3039,0.1838,-0.1675,0.0938,0.2066,-0.1609,-0.1235,-0.041,-0.1589,-0.0017,-1.0,0.2948,-1.0,1.0,-1.0,1.0,1.0,-0.6993,1.0,-1.0,0.9107,0.9306,1.0,-1.0,1.0,-1.0,-1.0,1.0,0.0,0.0,0.0,0.0,0.0,0.0,0.0,0.0,0.0,0.28,0.0,0.28,0.0,0
1.88,run,-1.6,2.91,-6.24,-5.5,16.1,0.0,0.044,0.0,0.5,-34.72,-21.18,102.57,-18.46,-3.43,91.67,1.67,-21.88,129.81,3.43,-11.43,82.79,-26.98,-17.58,90.7,-15.64,4.31,80.42,-35.0,-16.3,91.19,-11.0,-14.56,102.22,15.18,-26.04,141.75,-9.09,-10.39,81.4,-21.5,-28.06,102.49,-27.18,-5.27,93.22,-1.0,0.3763,-1.0,1.0,-1.0,1.0,1.0,1.0,1.0,-0.6881,1.0,0.6425,1.0,-1.0,1.0,-1.0,-1.0,1.0,0.013,0.006,0.013,0.052,0.0,0.104,0.033,0.013,0.084,0.039,0.0,0.0,0.026,0.0,0.052,0.033,0.006,0.111,-0.6075,-0.6596,0.431,-0.3559,-0.3175,0.2086,0.0,-0.6565,0.8667,0.0874,-0.4541,0.1012,-0.4909,-0.5492,0.1871,-0.247,-0.1871,0.0215,-0.0303,-0.2533,-0.2474,0.2832,-0.1481,0.2732,0.2979,-0.3225,0.3073,-0.3222,-0.2655,-0.2629,0.2295,-0.3042,0.2087,-0.2087,0.0656,0.2246,-0.1676,-0.1701,-0.0269,-0.2052,0.095,-1.0,1.0,-1.0,1.0,-1.0,1.0,1.0,-0.348,1.0,-1.0,0.2953,-1.0,1.0,-1.0,1.0,-1.0,-1.0,1.0,0.0,0.0,0.0,0.0,0.0,0.0,0.0,0.0,0.0,0.2933,0.0,0.2933,0.0,0
1.92,run,-1.72,2.94,-2.72,0.11,12.93,0.0,0.046,0.0,0.5,-34.72,-21.45,100.9,-17.05,-4.92,93.08,3.08,-23.38,131.04,1.93,-12.3,81.65,-25.58,-18.98,92.11,-16.88,3.08,81.74,-35.0,-14.8,89.69,-9.5,-16.06,103.72,16.68,-24.54,143.25,-10.59,-11.89,79.9,-20.0,-29.56,103.99,-28.68,-6.77,94.72,-1.0,1.0,-1.0,1.0,-1.0,1.0,1.0,0.9897,1.0,-0.4899,0.1574,-1.0,1.0,-1.0,1.0,-1.0,-1.0,1.0,0.013,0.006,0.013,0.052,0.0,0.104,0.033,0.013,0.084,0.039,0.0,0.0,0.026,0.0,0.052,0.033,0.006,0.111,-0.6075,-0.6719,0.408,-0.3329,-0.3405,0.2347,0.0261,-0.6811,0.8912,0.0614,-0.474,0.0767,-0.4679,-0.5752,0.2132,-0.27,-0.1994,0.046,-0.0212,-0.2233,-0.2595,0.2845,-0.19,0.2891,0.3063,-0.3178,0.3072,-0.3234,-0.2606,-0.2761,0.247,-0.3107,0.2439,-0.2324,-0.0001,0.2493,-0.192,-0.1833,-0.109,-0.096,0.281,-1.0,0.3763,-1.0,1.0,-1.0,1.0,1.0,1.0,1.0,-0.6881,1.0,0.6425,1.0,-1.0,1.0,-1.0,-1.0,1.0,0.0,0.0,0.0,0.0,0.0,0.0,0.0,0.0,0.0,0.3067,0.0,0.3067,0.0,0
1.96,run,-1.98,2.89,-5.76,-3.16,3.97,0.0,0.048,0.0,0.5,-34.8,-21.97,100.02,-15.73,-6.33,94.57,4.57,-24.61,132.36,0.44,-12.92,80.68,-24.08,-20.48,93.52,-18.02,1.67,83.06,-35.0,-13.3,88.19,-8.0,-17.56,105.22,18.18,-23.04,144.75,-9.35,-13.39,78.4,-18.5,-31.06,105.49,-30.18,-8.27,96.22,-1.0,0.854,-1.0,1.0,-1.0,1.0,1.0,1.0,1.0,-0.2671,-0.0265,0.0123,1.0,-1.0,1.0,-1.0,-1.0,1.0,0.006,0.0,0.019,0.039,0.0,0.084,0.033,0.026,0.136,0.019,0.0,0.0,0.026,0.0,0.065,0.156,0.0,0.143,-0.6075,-0.6765,0.3789,-0.3083,-0.3666,0.2592,0.0506,-0.7072,0.9127,0.0353,-0.4893,0.0568,-0.4433,-0.5998,0.2378,-0.2915,-0.2209,0.069,-0.0149,-0.1735,-0.2907,0.2911,-0.2306,0.2942,0.3063,-0.3201,0.2954,-0.324,-0.2399,-0.2679,0.2647,-0.3094,0.2626,-0.2431,-0.0804,0.2606,-0.2026,-0.18,-0.0476,0.0019,0.2257,-1.0,1.0,-1.0,1.0,-1.0,1.0,1.0,0.9897,1.0,-0.4899,0.1574,-1.0,1.0,-1.0,1.0,-1.0,-1.0,1.0,0.0,0.0,0.0,0.0,0.0,0.0,0.0,0.0,0.0,0.32,0.0,0.32,0.0,0
2.0,run,-2.16,3.28,-4.02,9.16,-4.88,0.0,0.05,0.0,0.5,-34.89,-22.32,98.17,-14.24,-7.73,95.98,5.89,-25.58,133.59,-0.97,-13.27,79.89,-22.76,-21.88,94.92,-19.25,0.26,84.38,-35.0,-11.8,86.69,-6.5,-19.06,106.72,19.68,-21.54,143.25,-10.85,-14.89,76.9,-17.0,-32.56,106.99,-31.68,-9.77,97.72,-1.0,1.0,-1.0,1.0,-1.0,1.0,1.0,1.0,0.4931,-0.6772,-1.0,-0.9518,1.0,-1.0,1.0,-1.0,-1.0,1.0,0.006,0.0,0.019,0.039,0.0,0.084,0.033,0.026,0.136,0.019,0.0,0.0,0.026,0.0,0.065,0.156,0.0,0.143,-0.609,-0.6857,0.3636,-0.2853,-0.3912,0.2853,0.0767,-0.7286,0.9357,0.0092,-0.5001,0.0399,-0.4172,-0.6259,0.2623,-0.3114,-0.2454,0.092,-0.0162,-0.1561,-0.2611,0.2902,-0.2536,0.3039,0.3124,-0.3047,0.2932,-0.3247,-0.2082,-0.2509,0.2833,-0.3145,0.276,-0.2451,-0.1485,0.2689,-0.2251,-0.1849,-0.1004,-0.0551,0.0693,-1.0,0.854,-1.0,1.0,-1.0,1.0,1.0,1.0,1.0,-0.2671,-0.0265,0.0123,1.0,-1.0,1.0,-1.0,-1.0,1.0,0.0,0.0,0.0,0.0,0.0,0.0,0.0,0.0,0.0,0.3333,0.0,0.3333,0.0,0
2.04,run,-2.34,3.66,-2.82,9.4,-3.55,0.0,0.05,0.0,0.5,-34.89,-21.62,96.42,-12.74,-9.14,97.38,7.12,-26.19,134.82,-2.37,-13.36,78.93,-21.36,-23.29,96.24,-20.57,-1.05,85.69,-35.0,-10.3,85.19,-5.0,-20.56,108.22,21.18,-20.04,141.75,-12.35,-16.39,75.4,-15.5,-34.06,108.49,-33.18,-11.27,99.22,-1.0,1.0,-1.0,1.0,-1.0,1.0,1.0,1.0,0.2454,-0.6642,-1.0,-0.5408,1.0,-1.0,1.0,-1.0,-1.0,1.0,0.006,0.0,0.019,0.039,0.0,0.084,0.033,0.026,0.136,0.019,0.0,0.0,0.026,0.0,0.065,0.156,0.0,0.143,-0.6105,-0.6918,0.3313,-0.2592,-0.4157,0.3099,0.0997,-0.7455,0.9572,-0.0153,-0.5062,0.0261,-0.3942,-0.6504,0.2869,-0.3329,-0.27,0.115,-0.0171,-0.1323,-0.3036,0.3009,-0.2696,0.3048,0.305,-0.2766,0.2858,-0.3194,-0.1688,-0.2274,0.2846,-0.3122,0.2853,-0.2521,-0.196,0.2745,-0.241,-0.1507,-0.0702,0.1598,-0.0851,-1.0,1.0,-1.0,1.0,-1.0,1.0,1.0,1.0,0.4931,-0.6772,-1.0,-0.9518,1.0,-1.0,1.0,-1.0,-1.0,1.0,0.0,0.0,0.0,0.0,0.0,0.0,0.0,0.0,0.0,0.3333,0.0,0.3333,0.0,0
2.08,run,-1.77,4.35,10.49,15.25,0.88,0.0,0.05,0.0,0.5,-34.89,-20.57,95.1,-11.07,-10.72,99.14,8.7,-26.63,135.62,-4.04,-13.97,77.61,-19.78,-24.96,97.82,-22.24,-2.55,87.1,-35.0,-8.8,83.69,-3.5,-22.06,109.72,22.68,-18.54,140.25,-13.85,-17.89,73.9,-14.0,-35.56,109.99,-34.68,-12.77,100.72,-1.0,1.0,-1.0,1.0,-1.0,1.0,1.0,1.0,-0.3113,-0.4095,-1.0,-0.9616,1.0,-0.7372,1.0,-1.0,-1.0,1.0,0.0,0.033,0.006,0.039,0.0,0.065,0.045,0.045,0.396,0.013,0.013,0.013,0.026,0.0,0.058,0.143,0.0,0.195,-0.6105,-0.6796,0.3007,-0.2332,-0.4403,0.3344,0.1212,-0.7563,0.9787,-0.0399,-0.5077,0.0092,-0.3697,-0.675,0.3099,-0.3559,-0.293,0.1381,-0.0119,-0.0466,-0.3276,0.3084,-0.2807,0.3054,0.294,-0.2339,0.2806,-0.3156,-0.1239,-0.2225,0.2912,-0.3106,0.286,-0.2627,-0.2235,0.2784,-0.2564,-0.1178,-0.0492,0.1641,-0.062,-1.0,1.0,-1.0,1.0,-1.0,1.0,1.0,1.0,0.2454,-0.6642,-1.0,-0.5408,1.0,-1.0,1.0,-1.0,-1.0,1.0,0.0,0.0,0.0,0.0,0.0,0.0,0.0,0.0,0.0,0.3333,0.0,0.3333,0.0,0
2.12,run,-1.6,4.17,-0.2,-7.37,4.32,0.0,0.05,0.0,0.5,-34.89,-19.42,93.78,-9.76,-12.04,100.37,10.11,-26.63,136.14,-5.54,-14.06,76.55,-18.46,-26.19,99.23,-23.73,-3.96,88.42,-35.0,-7.3,82.19,-2.0,-23.56,111.22,24.18,-17.04,138.75,-15.35,-19.39,75.4,-12.5,-34.06,111.49,-35.0,-14.27,102.22,-1.0,1.0,-1.0,1.0,-1.0,1.0,1.0,1.0,-0.9633,-0.5897,-1.0,0.2425,1.0,1.0,1.0,-1.0,-1.0,1.0,0.0,0.033,0.006,0.039,0.0,0.065,0.045,0.045,0.396,0.013,0.013,0.013,0.026,0.0,0.058,0.143,0.0,0.195,-0.6105,-0.6611,0.2777,-0.204,-0.4679,0.3651,0.1488,-0.7639,0.9925,-0.069,-0.5185,-0.0138,-0.3421,-0.7041,0.3375,-0.385,-0.3191,0.1626,-0.0084,0.0274,-0.3043,0.3109,-0.2865,0.3137,0.2958,-0.1887,0.2414,-0.3159,-0.1217,-0.2307,0.2938,-0.3124,0.2901,-0.2789,-0.2414,0.2749,-0.2073,-0.057,0.1831,0.2661,0.0154,-1.0,1.0,-1.0,1.0,-1.0,1.0,1.0,1.0,-0.3113,-0.4095,-1.0,-0.9616,1.0,-0.7372,1.0,-1.0,-1.0,1.0,0.0,0.0,0.0,0.0,0.0,0.0,0.0,0.0,0.0,0.3333,0.0,0.3333,0.0,0
2.16,run,-1.87,3.98,-12.98,-9.37,6.29,0.0,0.05,0.0,0.5,-34.89,-18.37,92.55,-8.61,-13.36,101.69,11.43,-26.63,136.41,-6.86,-15.12,75.32,-17.31,-27.51,100.63,-25.14,-5.19,89.82,-35.0,-5.8,80.69,-0.5,-25.06,112.72,25.68,-15.54,137.25,-13.85,-20.89,76.9,-11.0,-32.56,112.99,-35.0,-15.77,103.72,-1.0,1.0,-1.0,0.2558,-1.0,1.0,1.0,1.0,-1.0,0.6737,-1.0,0.7985,1.0,0.8404,1.0,-1.0,-1.0,1.0,0.0,0.033,0.006,0.039,0.0,0.065,0.045,0.045,0.396,0.013,0.013,0.013,0.026,0.0,0.058,0.143,0.0,0.195,-0.6105,-0.6412,0.2546,-0.181,-0.4909,0.3866,0.1733,-0.7639,1.0017,-0.0951,-0.52,-0.0322,-0.3191,-0.7256,0.362,-0.4111,-0.3436,0.1856,-0.0059,0.0976,-0.3035,0.3081,-0.2911,0.3041,0.3036,-0.1321,0.2052,-0.3237,-0.0912,-0.2339,0.2962,-0.3031,0.2997,-0.2978,-0.2655,0.2829,-0.1924,-0.0729,-0.0035,-0.1286,0.0755,-1.0,1.0,-1.0,1.0,-1.0,1.0,1.0,1.0,-0.9633,-0.5897,-1.0,0.2425,1.0,1.0,1.0,-1.0,-1.0,1.0,0.0,0.0,0.0,0.0,0.0,0.0,0.0,0.0,0.0,0.3333,0.0,0.3333,0.0,0
2.2,run,-1.51,4.35,5.86,5.98,3.89,0.0,0.05,0.0,0.689,-34.45,-17.4,91.49,-7.38,-14.59,103.18,12.92,-26.54,136.49,-8.17,-16.0,74.62,-16.26,-28.74,102.04,-26.46,-6.5,91.23,-34.61,-4.3,79.19,-2.0,-26.56,114.22,27.18,-14.04,135.75,-12.35,-22.39,78.4,-9.5,-31.06,114.49,-35.0,-17.27,105.22,-0.989,1.0,-0.1356,-1.0,-0.8054,1.0,1.0,1.0,-1.0,0.9084,-1.0,1.0,1.0,0.7661,0.8575,-1.0,-1.0,1.0,0.006,0.045,0.006,0.033,0.0,0.052,0.039,0.351,0.689,0.013,0.006,0.013,0.019,0.0,0.019,0.078,0.0,0.175,-0.6105,-0.6228,0.2332,-0.1611,-0.5139,0.4096,0.1963,-0.7639,1.0063,-0.1181,-0.5384,-0.0537,-0.2991,-0.7486,0.3866,-0.4357,-0.3651,0.2102,-0.0041,0.1367,-0.2922,0.2897,-0.2892,0.2983,0.298,-0.0925,0.1607,-0.312,-0.1322,-0.2435,0.2814,-0.2976,0.3009,-0.2996,-0.2656,0.2892,-0.2154,-0.0892,-0.2266,-0.1635,0.1097,-1.0,1.0,-1.0,0.2558,-1.0,1.0,1.0,1.0,-1.0,0.6737,-1.0,0.7985,1.0,0.8404,1.0,-1.0,-1.0,1.0,0.0,0.0,0.0,0.0,0.0,0.0,0.0,0.0,0.0,0.3333,0.0,0.3333,0.0,0
2.24,run,-1.95,4.13,-10.47,-6.11,-7.62,0.0,0.05,0.0,0.689,-33.84,-16.35,90.18,-6.15,-16.08,104.59,14.24,-25.66,136.58,-9.58,-16.88,74.27,-14.85,-29.97,103.54,-27.95,-7.91,92.72,-33.11,-2.8,77.69,-3.5,-28.06,115.72,28.68,-15.54,134.25,-10.85,-23.89,79.9,-8.0,-29.56,115.99,-35.0,-18.77,106.72,1.0,1.0,0.0341,-1.0,-1.0,1.0,1.0,-0.0865,-1.0,0.6584,-1.0,1.0,1.0,1.0,0.8757,-1.0,-1.0,1.0,0.006,0.045,0.006,0.033,0.0,0.052,0.039,0.351,0.689,0.013,0.006,0.013,0.019,0.0,0.019,0.078,0.0,0.175,-0.6029,-0.6059,0.2148,-0.1396,-0.5354,0.4357,0.2224,-0.7624,1.0078,-0.1411,-0.5538,-0.066,-0.2807,-0.7701,0.4111,-0.4587,-0.3881,0.2347,0.0257,0.1586,-0.2732,0.2829,-0.2825,0.3061,0.3058,-0.059,0.1182,-0.3043,-0.1498,-0.2162,0.2656,-0.2885,0.3022,-0.2956,-0.2718,0.294,-0.1839,-0.0576,0.1022,0.1044,0.0679,-0.989,1.0,-0.1356,-1.0,-0.8054,1.0,1.0,1.0,-1.0,0.9084,-1.0,1.0,1.0,0.7661,0.8575,-1.0,-1.0,1.0,0.0,0.0,0.0,0.0,0.0,0.0,0.0,0.0,0.0,0.3333,0.0,0.3333,0.0,0
2.28,run,-2.04,4.12,-3.43,-0.69,-4.46,0.0,0.05,0.0,0.689,-33.66,-15.38,89.12,-4.92,-17.05,105.73,15.29,-24.87,136.58,-10.46,-17.4,73.92,-13.8,-30.59,104.5,-29.09,-9.05,93.78,-31.61,-1.3,79.19,-5.0,-29.56,117.22,30.18,-14.04,132.75,-9.35,-25.39,81.4,-6.5,-28.06,114.49,-35.0,-20.27,108.22,1.0,1.0,1.0,-1.0,-0.198,1.0,1.0,1.0,-1.0,1.0,-1.0,1.0,1.0,1.0,-0.8406,-1.0,-1.0,1.0,0.006,0.045,0.006,0.033,0.0,0.052,0.039,0.351,0.689,0.013,0.006,0.013,0.019,0.0,0.019,0.078,0.0,0.175,-0.5921,-0.5875,0.1917,-0.1181,-0.5614,0.4602,0.2454,-0.747,1.0094,-0.1657,-0.5691,-0.0721,-0.2562,-0.7915,0.4372,-0.4847,-0.4126,0.2608,0.0517,0.1688,-0.2634,0.2654,-0.2796,0.2912,0.2862,0.0068,0.0876,-0.2899,-0.1529,-0.1706,0.2629,-0.2693,0.2933,-0.2887,-0.2672,0.2876,-0.2225,-0.076,-0.1826,-0.1066,-0.1331,1.0,1.0,0.0341,-1.0,-1.0,1.0,1.0,-0.0865,-1.0,0.6584,-1.0,1.0,1.0,1.0,0.8757,-1.0,-1.0,1.0,0.0,0.0,0.0,0.0,0.0,0.0,0.0,0.0,0.0,0.3333,0.0,0.3333,0.0,0
2.32,run,-2.21,4.53,-3.93,9.76,-0.13,0.0,0.05,0.0,0.689,-32.61,-14.33,87.98,-3.87,-17.93,106.79,16.17,-23.99,136.58,-11.16,-17.84,74.36,-12.74,-31.03,105.47,-29.97,-10.02,94.83,-30.11,0.2,80.69,-6.5,-31.06,118.72,31.68,-15.54,131.25,-7.85,-26.89,82.9,-5.0,-26.56,112.99,-35.0,-21.77,109.72,1.0,1.0,1.0,-1.0,-0.4141,1.0,1.0,-1.0,-1.0,1.0,-1.0,1.0,1.0,1.0,-1.0,-1.0,-1.0,1.0,0.006,0.052,0.006,0.026,0.0,0.019,0.052,0.663,0.143,0.006,0.013,0.006,0.019,0.019,0.026,0.104,0.0,0.13,-0.589,-0.5706,0.1733,-0.0966,-0.5783,0.4801,0.2638,-0.7332,1.0094,-0.181,-0.5783,-0.0782,-0.2378,-0.8023,0.4541,-0.5047,-0.4326,0.2792,0.0476,0.181,-0.253,0.2658,-0.2586,0.2782,0.269,0.0562,0.0613,-0.2601,-0.1414,-0.1423,0.2526,-0.2285,0.2682,-0.2764,-0.2614,0.2699,-0.2305,-0.0769,-0.0598,-0.0121,-0.0778,1.0,1.0,1.0,-1.0,-0.198,1.0,1.0,1.0,-1.0,1.0,-1.0,1.0,1.0,1.0,-0.8406,-1.0,-1.0,1.0,0.0,0.0,0.0,0.0,0.0,0.0,0.0,0.0,0.0,0.3333,0.0,0.3333,0.0,0
2.36,run,-1.34,5.68,5.26,6.77,7.38,0.0,0.05,0.0,0.773,-28.65,-10.2,83.41,-0.62,-20.57,109.6,19.07,-19.69,135.7,-9.58,-18.46,78.22,-8.09,-29.62,107.93,-32.78,-12.74,97.91,-28.61,1.7,82.19,-8.0,-32.56,120.22,33.18,-17.04,129.75,-6.35,-28.39,84.4,-3.5,-25.06,111.49,-35.0,-23.27,111.22,1.0,1.0,1.0,-1.0,-0.5987,1.0,1.0,-1.0,-1.0,1.0,-1.0,1.0,1.0,1.0,-1.0,-1.0,-1.0,1.0,0.019,0.091,0.0,0.013,0.006,0.006,0.006,0.773,0.0,0.0,0.006,0.006,0.013,0.084,0.006,0.006,0.033,0.045,-0.5706,-0.5522,0.1534,-0.0782,-0.5937,0.4985,0.2792,-0.7179,1.0094,-0.1933,-0.586,-0.0706,-0.2194,-0.8099,0.4709,-0.52,-0.4495,0.2976,0.1023,0.1957,-0.2519,0.2551,-0.2385,0.2637,0.2458,0.0969,0.0429,-0.2281,-0.1277,-0.0708,0.2459,-0.1887,0.251,-0.251,-0.2462,0.258,-0.2452,-0.0412,-0.0686,0.1703,-0.0024,1.0,1.0,1.0,-1.0,-0.4141,1.0,1.0,-1.0,-1.0,1.0,-1.0,1.0,1.0,1.0,-1.0,-1.0,-1.0,1.0,0.0,0.0,0.0,0.0,0.0,0.0,0.0,0.0,0.0,0.3333,0.0,0.3333,0.0,0
2.4,run,-1.16,5.93,2.76,5.2,4.17,0.0,0.05,0.0,0.773,-27.69,-9.23,82.27,-0.44,-20.57,109.25,19.07,-18.98,134.82,-8.96,-17.67,78.84,-7.03,-28.56,107.84,-32.78,-12.74,97.91,-27.11,3.2,83.69,-9.5,-34.06,118.72,34.68,-18.54,128.25,-4.85,-29.89,85.9,-2.0,-23.56,109.99,-35.0,-24.77,109.72,1.0,1.0,1.0,-1.0,-1.0,-0.6024,1.0,-1.0,-1.0,1.0,-1.0,1.0,0.3879,1.0,-1.0,-1.0,-1.0,-0.6334,0.019,0.091,0.0,0.013,0.006,0.006,0.006,0.773,0.0,0.0,0.006,0.006,0.013,0.084,0.006,0.006,0.033,0.045,-0.5016,-0.4801,0.0736,-0.0215,-0.6397,0.5476,0.3298,-0.6427,0.994,-0.1657,-0.5967,-0.0031,-0.1381,-0.7854,0.5139,-0.5691,-0.497,0.3513,0.1353,0.2035,-0.2499,0.2309,-0.2094,0.2299,0.2188,0.1372,0.0159,-0.1342,-0.0993,0.0127,0.2471,-0.1095,0.2153,-0.221,-0.2162,0.2301,-0.1693,0.0585,0.0918,0.1181,0.1289,1.0,1.0,1.0,-1.0,-0.5987,1.0,1.0,-1.0,-1.0,1.0,-1.0,1.0,1.0,1.0,-1.0,-1.0,-1.0,1.0,0.0,0.0,0.0,0.0,0.0,0.0,0.0,0.0,0.0,0.3333,0.0,0.3333,0.0,0
2.44,run,-0.86,6.21,7.92,5.78,8.32,0.0,0.05,0.0,0.773,-26.89,-8.09,81.47,-0.44,-20.65,109.25,19.07,-18.02,133.86,-7.73,-16.96,79.54,-5.8,-27.51,107.58,-32.78,-12.74,97.91,-25.61,4.7,85.19,-11.0,-35.56,117.22,35.0,-20.04,126.75,-3.35,-31.39,87.4,-3.5,-22.06,108.49,-35.0,-26.27,108.22,0.9449,1.0,1.0,-1.0,-1.0,-1.0,1.0,-1.0,-1.0,1.0,-1.0,1.0,-1.0,1.0,-1.0,-1.0,-1.0,-1.0,0.019,0.091,0.0,0.013,0.006,0.006,0.006,0.773,0.0,0.0,0.006,0.006,0.013,0.084,0.006,0.006,0.033,0.045,-0.4847,-0.4633,0.0537,-0.0184,-0.6397,0.5415,0.3298,-0.6305,0.9787,-0.1549,-0.5829,0.0077,-0.1197,-0.767,0.5123,-0.5691,-0.497,0.3513,0.157,0.2047,-0.2485,0.173,-0.1466,0.1383,0.1531,0.1413,-0.0455,-0.0543,-0.0186,0.0485,0.2409,-0.0087,0.1451,-0.1547,-0.1514,0.1611,-0.154,0.0806,0.0481,0.0908,0.0728,1.0,1.0,1.0,-1.0,-1.0,-0.6024,1.0,-1.0,-1.0,1.0,-1.0,1.0,0.3879,1.0,-1.0,-1.0,-1.0,-0.6334,0.0,0.0,0.0,0.0,0.0,0.0,0.0,0.0,0.0,0.3333,0.0,0.3333,0.0,0
2.48,run,-0.55,6.32,7.94,3.61,6.72,0.0,0.05,0.0,0.773,-26.28,-6.94,80.77,-0.79,-20.83,109.6,19.16,-17.49,132.8,-6.15,-16.44,80.6,-4.75,-26.37,107.75,-32.78,-12.74,98.09,-24.11,3.2,86.69,-12.5,-37.06,115.72,35.0,-21.54,125.25,-1.85,-32.89,88.9,-5.0,-20.56,106.99,-35.0,-27.77,106.72,1.0,0.1819,1.0,-1.0,-1.0,-1.0,1.0,-1.0,-1.0,1.0,-1.0,1.0,-1.0,1.0,-1.0,-1.0,-1.0,-1.0,0.013,0.143,0.0,0.019,0.0,0.045,0.045,0.624,0.006,0.013,0.0,0.019,0.006,0.13,0.013,0.084,0.0,0.084,-0.4709,-0.4433,0.0399,-0.0184,-0.6412,0.5415,0.3298,-0.6136,0.9618,-0.1335,-0.5706,0.0199,-0.0982,-0.7486,0.5077,-0.5691,-0.497,0.3513,0.1618,0.2183,-0.2258,0.1211,-0.1084,0.0968,0.1072,0.1623,-0.0953,0.0427,0.0331,0.0801,0.2493,0.0631,0.0843,-0.1083,-0.106,0.1127,-0.1278,0.1047,0.1382,0.1008,0.1451,0.9449,1.0,1.0,-1.0,-1.0,-1.0,1.0,-1.0,-1.0,1.0,-1.0,1.0,-1.0,1.0,-1.0,-1.0,-1.0,-1.0,0.0,0.0,0.0,0.0,0.0,0.0,0.0,0.0,0.0,0.3333,0.0,0.3333,0.0,0
2.52,run,-0.43,6.32,3.86,0.9,10.16,0.0,0.05,0.0,0.773,-25.66,-5.71,80.51,-1.14,-21.36,110.3,19.78,-17.05,131.75,-5.36,-16.44,81.83,-4.04,-25.05,107.75,-33.66,-13.54,98.88,-22.61,1.7,88.19,-14.0,-38.56,114.22,35.0,-23.04,123.75,-0.35,-34.39,90.4,-6.5,-19.06,105.49,-33.5,-29.27,105.22,1.0,-0.0846,1.0,-1.0,-1.0,-1.0,1.0,-1.0,-1.0,1.0,-1.0,1.0,-1.0,1.0,-1.0,-0.6654,-1.0,-1.0,0.013,0.143,0.0,0.019,0.0,0.045,0.045,0.624,0.006,0.013,0.0,0.019,0.006,0.13,0.013,0.084,0.0,0.084,-0.4602,-0.4234,0.0276,-0.0245,-0.6443,0.5476,0.3313,-0.6044,0.9434,-0.1058,-0.5614,0.0383,-0.0798,-0.7286,0.5108,-0.5691,-0.497,0.3543,0.1535,0.2276,-0.2041,0.0617,-0.0874,0.0908,0.0808,0.1481,-0.1357,0.1334,0.0577,0.1251,0.2436,0.1189,0.0705,-0.0758,-0.0742,0.0904,-0.1001,0.115,0.1386,0.063,0.1173,1.0,0.1819,1.0,-1.0,-1.0,-1.0,1.0,-1.0,-1.0,1.0,-1.0,1.0,-1.0,1.0,-1.0,-1.0,-1.0,-1.0,0.0,0.0,0.0,0.0,0.0,0.0,0.0,0.0,0.0,0.3333,0.0,0.3333,0.0,0
2.56,run,-0.3,6.16,3.22,-3.19,10.77,0.0,0.05,0.0,0.773,-24.79,-4.39,80.51,-2.2,-22.32,111.36,20.65,-16.96,130.61,-3.6,-16.44,83.32,-3.6,-23.73,107.31,-34.28,-14.33,99.84,-21.11,0.2,89.69,-15.5,-40.06,112.72,35.0,-24.54,122.25,1.15,-35.89,91.9,-8.0,-17.56,103.99,-32.0,-30.77,103.72,1.0,-0.681,1.0,-1.0,-1.0,-1.0,1.0,-1.0,-1.0,1.0,-1.0,1.0,-1.0,1.0,-1.0,0.4822,-1.0,-1.0,0.013,0.143,0.0,0.019,0.0,0.045,0.045,0.624,0.006,0.013,0.0,0.019,0.006,0.13,0.013,0.084,0.0,0.084,-0.4495,-0.4019,0.023,-0.0307,-0.6535,0.5599,0.3421,-0.5967,0.925,-0.092,-0.5614,0.0598,-0.0675,-0.7056,0.5108,-0.5844,-0.5108,0.3682,0.1477,0.2398,-0.1601,0.0202,-0.0956,0.1095,0.0968,0.1324,-0.164,0.1451,0.0404,0.168,0.2165,0.1695,0.0493,-0.1105,-0.1037,0.115,-0.0902,0.115,0.0673,0.0158,0.1772,1.0,-0.0846,1.0,-1.0,-1.0,-1.0,1.0,-1.0,-1.0,1.0,-1.0,1.0,-1.0,1.0,-1.0,-0.6654,-1.0,-1.0,0.0,0.0,0.0,0.0,0.0,0.0,0.0,0.0,0.0,0.3333,0.0,0.3333,0.0,0
2.6,run,-0.29,5.79,-0.04,-8.31,15.38,0.0,0.05,0.0,0.773,-23.82,-3.16,80.51,-3.69,-23.47,112.5,21.88,-16.96,129.46,-2.29,-17.14,84.64,-3.43,-22.32,106.26,-34.54,-15.47,101.07,-19.61,-1.3,91.19,-17.0,-41.56,111.22,35.0,-23.04,120.75,2.65,-37.39,93.4,-9.5,-16.06,102.49,-30.5,-32.27,102.22,0.6755,-1.0,1.0,-1.0,-1.0,-1.0,1.0,0.3115,-1.0,1.0,-1.0,1.0,-1.0,1.0,-1.0,1.0,-1.0,-1.0,0.026,0.143,0.058,0.026,0.006,0.026,0.052,0.078,0.019,0.013,0.006,0.013,0.013,0.149,0.0,0.006,0.0,0.052,-0.4341,-0.3789,0.023,-0.0491,-0.6703,0.5783,0.3574,-0.5952,0.905,-0.0614,-0.5614,0.0859,-0.0598,-0.6826,0.5031,-0.5952,-0.5246,0.385,0.1609,0.2542,-0.1121,-0.0549,-0.1303,0.1457,0.1253,0.0985,-0.1896,0.2167,0.0283,0.2155,0.1803,0.205,0.0058,-0.1177,-0.1244,0.1438,-0.0786,0.1006,0.0562,-0.0556,0.188,1.0,-0.681,1.0,-1.0,-1.0,-1.0,1.0,-1.0,-1.0,1.0,-1.0,1.0,-1.0,1.0,-1.0,0.4822,-1.0,-1.0,0.0,0.0,0.0,0.0,0.0,0.0,0.0,0.0,0.0,0.3333,0.0,0.3333,0.0,0
2.64,run,-0.26,5.44,0.65,-6.87,21.44,0.0,0.05,0.0,0.773,-22.5,-2.11,81.21,-5.1,-24.87,113.29,23.29,-16.96,128.06,-0.88,-18.11,86.13,-4.31,-21.01,105.21,-34.45,-16.79,101.95,-19.79,-2.8,92.69,-18.5,-43.06,109.72,35.0,-21.54,119.25,4.15,-38.89,94.9,-11.0,-14.56,100.99,-29.0,-33.77,100.72,-0.5655,-1.0,1.0,-1.0,-0.9251,-1.0,1.0,1.0,-1.0,1.0,-1.0,1.0,-1.0,1.0,-1.0,1.0,-1.0,-1.0,0.026,0.143,0.058,0.026,0.006,0.026,0.052,0.078,0.019,0.013,0.006,0.013,0.013,0.149,0.0,0.006,0.0,0.052,-0.4172,-0.3574,0.023,-0.0752,-0.6903,0.5983,0.3789,-0.5952,0.8851,-0.0383,-0.5737,0.1089,-0.0568,-0.6581,0.4847,-0.5998,-0.5446,0.4065,0.176,0.2585,-0.0785,-0.1363,-0.166,0.1769,0.1683,0.0689,-0.2076,0.238,-0.0263,0.2372,0.1377,0.2356,-0.0651,-0.0996,-0.1619,0.1813,-0.0779,0.0682,-0.0007,-0.145,0.2684,0.6755,-1.0,1.0,-1.0,-1.0,-1.0,1.0,0.3115,-1.0,1.0,-1.0,1.0,-1.0,1.0,-1.0,1.0,-1.0,-1.0,0.0,0.0,0.0,0.0,0.0,0.0,0.0,0.0,0.0,0.3333,0.0,0.3333,0.0,0
2.68,run,-0.27,4.84,0.28,-13.11,23.18,0.0,0.05,0.0,0.773,-21.45,-1.49,82.27,-6.59,-26.02,113.91,24.7,-17.67,126.65,0.53,-19.25,87.63,-5.01,-19.78,103.89,-33.75,-17.93,102.74,-21.29,-4.3,94.19,-20.0,-44.56,108.22,35.0,-20.04,117.75,5.65,-40.39,96.4,-12.5,-13.06,99.49,-27.5,-35.27,99.22,-1.0,-1.0,1.0,-1.0,-0.3728,-1.0,1.0,1.0,-1.0,1.0,-1.0,1.0,-1.0,1.0,-1.0,1.0,-1.0,-1.0,0.026,0.143,0.058,0.026,0.006,0.026,0.052,0.078,0.019,0.013,0.006,0.013,0.013,0.149,0.0,0.006,0.0,0.052,-0.3942,-0.339,0.0353,-0.0997,-0.7148,0.6121,0.4034,-0.5952,0.8606,-0.0138,-0.5906,0.135,-0.0721,-0.6351,0.4663,-0.5983,-0.5676,0.4218,0.2079,0.2487,-0.0097,-0.1858,-0.2066,0.1746,0.2082,0.0482,-0.2357,0.257,-0.0805,0.262,0.0399,0.2496,-0.1133,-0.0641,-0.198,0.1834,-0.0755,0.0381,0.0113,-0.1198,0.3742,-0.5655,-1.0,1.0,-1.0,-0.9251,-1.0,1.0,1.0,-1.0,1.0,-1.0,1.0,-1.0,1.0,-1.0,1.0,-1.0,-1.0,0.0,0.0,0.0,0.0,0.0,0.0,0.0,0.0,0.0,0.3333,0.0,0.3333,0.0,0
2.72,run,-0.3,4.01,0.27,-20.55,25.04,0.0,0.05,0.0,0.773,-20.48,-0.97,83.67,-8.0,-26.89,113.91,26.1,-19.34,125.33,1.85,-20.65,89.03,-5.89,-18.37,102.57,-33.05,-19.16,103.1,-22.79,-5.8,95.69,-21.5,-43.06,106.72,33.5,-18.54,116.25,7.15,-41.89,97.9,-14.0,-14.56,97.99,-26.0,-36.77,97.72,-1.0,-1.0,1.0,-1.0,0.3091,-1.0,0.1868,1.0,-1.0,1.0,-1.0,1.0,-1.0,-0.9847,-1.0,1.0,-1.0,-1.0,0.006,0.104,0.058,0.026,0.039,0.0,0.052,0.026,0.039,0.013,0.019,0.013,0.039,0.143,0.006,0.013,0.006,0.006,-0.3758,-0.3283,0.0537,-0.1258,-0.7348,0.6228,0.428,-0.6075,0.836,0.0107,-0.6105,0.1611,-0.0844,-0.6136,0.4433,-0.586,-0.5875,0.4357,0.2173,0.216,0.065,-0.2318,-0.2224,0.1641,0.2415,-0.0141,-0.2607,0.2756,-0.1342,0.2852,-0.0199,0.2585,-0.1691,0.003,-0.2164,0.1822,-0.0762,-0.0146,0.0048,-0.2288,0.4045,-1.0,-1.0,1.0,-1.0,-0.3728,-1.0,1.0,1.0,-1.0,1.0,-1.0,1.0,-1.0,1.0,-1.0,1.0,-1.0,-1.0,0.0,0.0,0.0,0.0,0.0,0.0,0.0,0.0,0.0,0.3333,0.0,0.3333,0.0,0
2.76,run,-0.04,3.68,7.08,-9.49,20.88,0.0,0.05,0.0,0.773,-19.86,-0.79,85.08,-9.49,-28.39,113.55,27.6,-20.21,124.1,3.16,-22.06,90.44,-7.12,-17.23,101.25,-31.64,-20.04,103.1,-24.29,-7.3,97.19,-23.0,-41.56,105.22,32.0,-17.04,114.75,8.65,-43.39,99.4,-15.5,-16.06,96.49,-24.5,-38.27,96.22,-1.0,-1.0,1.0,-1.0,0.613,-1.0,-0.0652,1.0,-1.0,1.0,-1.0,1.0,-1.0,-1.0,-1.0,1.0,-1.0,-1.0,0.006,0.104,0.058,0.026,0.039,0.0,0.052,0.026,0.039,0.013,0.019,0.013,0.039,0.143,0.006,0.013,0.006,0.006,-0.359,-0.3191,0.0782,-0.1503,-0.7501,0.6228,0.4525,-0.6366,0.813,0.0337,-0.6351,0.1856,-0.0997,-0.589,0.4203,-0.5737,-0.609,0.4418,0.2143,0.1851,0.1359,-0.2526,-0.2122,0.1149,0.2594,-0.1172,-0.2672,0.2777,-0.1843,0.29,-0.0704,0.2713,-0.2031,0.0473,-0.2306,0.1501,-0.0785,-0.087,0.0047,-0.3586,0.437,-1.0,-1.0,1.0,-1.0,0.3091,-1.0,0.1868,1.0,-1.0,1.0,-1.0,1.0,-1.0,-0.9847,-1.0,1.0,-1.0,-1.0,0.0,0.0,0.0,0.0,0.0,0.0,0.0,0.0,0.0,0.3333,0.0,0.3333,0.0,0
2.8,run,0.39,3.56,10.99,-1.08,9.0,0.0,0.05,0.0,0.773,-19.78,-0.79,86.48,-10.99,-29.88,112.94,29.0,-20.92,122.78,4.66,-23.38,91.85,-8.44,-16.08,99.84,-30.32,-21.36,102.83,-25.79,-8.8,98.69,-24.5,-40.06,103.72,30.5,-15.54,113.25,10.15,-44.89,100.9,-17.0,-17.56,94.99,-23.0,-39.77,94.72,-1.0,-1.0,1.0,-1.0,0.9445,-1.0,-0.3418,1.0,-1.0,1.0,-1.0,1.0,-1.0,-0.2927,-1.0,1.0,-1.0,-1.0,0.006,0.104,0.058,0.026,0.039,0.0,0.052,0.026,0.039,0.013,0.019,0.013,0.039,0.143,0.006,0.013,0.006,0.006,-0.3482,-0.316,0.1028,-0.1764,-0.7762,0.6167,0.4786,-0.6519,0.7915,0.0568,-0.6596,0.2102,-0.1212,-0.5691,0.3973,-0.5492,-0.6243,0.4418,0.1904,0.1411,0.1876,-0.2751,-0.2467,0.0573,0.2798,-0.1398,-0.2679,0.281,-0.2214,0.2954,-0.1302,0.265,-0.2288,0.1256,-0.2192,0.1051,-0.0555,-0.1161,0.1236,-0.1657,0.3644,-1.0,-1.0,1.0,-1.0,0.613,-1.0,-0.0652,1.0,-1.0,1.0,-1.0,1.0,-1.0,-1.0,-1.0,1.0,-1.0,-1.0,0.0,0.0,0.0,0.0,0.0,0.0,0.0,0.0,0.0,0.3333,0.0,0.3333,0.0,0
2.84,run,0.69,3.46,9.18,-0.99,1.37,0.0,0.05,0.0,0.773,-19.86,-0.97,87.8,-12.39,-31.11,111.8,30.32,-21.53,121.38,6.06,-24.87,93.34,-9.84,-15.29,98.35,-28.83,-22.94,102.04,-27.29,-10.3,100.19,-26.0,-38.56,102.22,29.0,-14.04,111.75,11.65,-46.39,102.4,-18.5,-19.06,93.49,-21.5,-41.27,93.22,-1.0,-1.0,1.0,-1.0,1.0,-1.0,-1.0,1.0,-1.0,1.0,-1.0,1.0,-1.0,-0.158,-1.0,1.0,-1.0,-1.0,0.019,0.0,0.071,0.019,0.039,0.019,0.026,0.013,0.058,0.013,0.019,0.013,0.039,0.136,0.006,0.013,0.033,0.019,-0.3467,-0.316,0.1273,-0.2025,-0.8023,0.6059,0.5031,-0.6642,0.7685,0.0828,-0.6826,0.2347,-0.1442,-0.5492,0.3728,-0.5262,-0.6473,0.4372,0.139,0.0988,0.223,-0.2899,-0.2701,0.0,0.2875,-0.1437,-0.2735,0.2941,-0.241,0.2985,-0.1771,0.26,-0.2519,0.1738,-0.2394,0.0564,-0.0184,-0.126,0.1917,-0.0188,0.1571,-1.0,-1.0,1.0,-1.0,0.9445,-1.0,-0.3418,1.0,-1.0,1.0,-1.0,1.0,-1.0,-0.2927,-1.0,1.0,-1.0,-1.0,0.0,0.0,0.0,0.0,0.0,0.0,0.0,0.0,0.0,0.3333,0.0,0.3333,0.0,0
2.88,run,1.01,3.5,7.37,2.51,-3.75,0.0,0.05,0.0,0.773,-20.92,-1.58,89.12,-13.8,-32.52,110.48,31.29,-21.8,119.97,7.38,-26.28,94.66,-11.51,-14.85,97.03,-27.33,-24.35,101.34,-28.79,-11.8,101.69,-27.5,-37.06,100.72,27.5,-12.54,110.25,13.15,-47.89,103.9,-20.0,-20.56,91.99,-20.0,-42.77,91.72,-1.0,-1.0,1.0,-1.0,1.0,-1.0,-1.0,1.0,-1.0,1.0,-1.0,1.0,-1.0,-0.4476,-0.9102,1.0,-1.0,-1.0,0.019,0.0,0.071,0.019,0.039,0.019,0.026,0.013,0.058,0.013,0.019,0.013,0.039,0.136,0.006,0.013,0.033,0.019,-0.3482,-0.3191,0.1503,-0.227,-0.8237,0.586,0.5262,-0.675,0.744,0.1074,-0.7087,0.2608,-0.1687,-0.5354,0.3467,-0.5001,-0.675,0.4234,0.0915,0.0576,0.2427,-0.2954,-0.2699,-0.0751,0.2879,-0.141,-0.2839,0.2983,-0.2668,0.3071,-0.2164,0.234,-0.2745,0.2199,-0.2715,-0.0125,0.0077,-0.1352,0.1602,-0.0172,0.0239,-1.0,-1.0,1.0,-1.0,1.0,-1.0,-1.0,1.0,-1.0,1.0,-1.0,1.0,-1.0,-0.158,-1.0,1.0,-1.0,-1.0,0.0,0.0,0.0,0.0,0.0,0.0,0.0,0.0,0.0,0.3333,0.0,0.3333,0.0,0
2.92,run,1.47,4.06,10.99,13.96,-2.59,0.0,0.05,0.0,0.773,-21.88,-3.08,90.62,-15.38,-34.01,108.98,31.99,-21.8,118.3,8.96,-27.77,96.24,-13.18,-14.68,95.45,-25.93,-25.84,99.58,-30.29,-13.3,103.19,-29.0,-35.56,99.22,26.0,-11.04,108.75,14.65,-49.39,105.4,-21.5,-22.06,90.49,-18.5,-44.27,90.22,-1.0,-1.0,1.0,-1.0,1.0,-1.0,-1.0,1.0,-1.0,1.0,-1.0,1.0,-1.0,-0.1713,-0.562,1.0,-0.6373,-1.0,0.019,0.0,0.071,0.019,0.039,0.019,0.026,0.013,0.058,0.013,0.019,0.013,0.039,0.136,0.006,0.013,0.033,0.019,-0.3666,-0.3298,0.1733,-0.2516,-0.8483,0.563,0.543,-0.6796,0.7194,0.1304,-0.7332,0.2838,-0.1979,-0.5277,0.3237,-0.474,-0.6995,0.4111,-0.0045,0.0003,0.2556,-0.2982,-0.2804,-0.1382,0.2644,-0.1159,-0.2901,0.2945,-0.2782,0.3007,-0.26,0.1924,-0.2778,0.251,-0.2815,-0.0545,0.036,-0.1316,0.1287,0.0438,-0.0655,-1.0,-1.0,1.0,-1.0,1.0,-1.0,-1.0,1.0,-1.0,1.0,-1.0,1.0,-1.0,-0.4476,-0.9102,1.0,-1.0,-1.0,0.0,0.0,0.0,0.0,0.0,0.0,0.0,0.0,0.0,0.3333,0.0,0.3333,0.0,0
2.96,run,2.41,4.1,20.0,3.13,1.79,0.0,0.05,0.0,0.773,-23.03,-4.31,91.85,-16.7,-35.33,107.67,32.34,-21.8,116.19,10.28,-29.09,97.56,-14.85,-14.68,94.04,-24.52,-27.16,98.17,-31.79,-14.8,104.69,-30.5,-34.06,97.72,24.5,-9.54,107.25,16.15,-50.89,106.9,-23.0,-20.56,88.99,-17.0,-42.77,88.72,-1.0,-1.0,1.0,-1.0,1.0,-1.0,-1.0,0.6059,-1.0,1.0,-1.0,1.0,-1.0,1.0,-0.2583,1.0,0.1007,-1.0,0.006,0.0,0.123,0.013,0.013,0.019,0.006,0.344,0.0,0.006,0.013,0.013,0.0,0.0,0.0,0.019,0.033,0.013,-0.3835,-0.3559,0.1994,-0.2792,-0.8744,0.5369,0.5553,-0.6796,0.6903,0.158,-0.7593,0.3114,-0.227,-0.5246,0.2961,-0.4495,-0.7256,0.3804,-0.0631,-0.0924,0.2715,-0.3068,-0.2889,-0.1894,0.2287,-0.0811,-0.3066,0.3042,-0.2874,0.3086,-0.2855,0.1455,-0.2926,0.2629,-0.2897,-0.1471,0.0762,-0.0828,0.1919,0.2436,-0.0453,-1.0,-1.0,1.0,-1.0,1.0,-1.0,-1.0,1.0,-1.0,1.0,-1.0,1.0,-1.0,-0.1713,-0.562,1.0,-0.6373,-1.0,0.0,0.0,0.0,0.0,0.0,0.0,0.0,0.0,0.0,0.3333,0.0,0.3333,0.0,0
3.0,run,1.08,4.17,-27.45,-7.94,-11.05,0.0,0.05,0.0,0.773,-24.7,-5.8,93.6,-18.28,-36.3,105.91,32.52,-21.36,114.17,11.78,-30.85,99.4,-16.52,-15.56,92.37,-22.85,-29.0,96.59,-33.29,-16.3,106.19,-32.0,-32.56,96.22,23.0,-8.04,105.75,17.65,-49.39,108.4,-24.5,-19.06,87.49,-15.5,-41.27,87.22,-1.0,-1.0,1.0,-1.0,1.0,-1.0,-1.0,1.0,-1.0,1.0,0.3363,1.0,-1.0,1.0,-0.9767,1.0,0.96,-1.0,0.006,0.0,0.123,0.013,0.013,0.019,0.006,0.344,0.0,0.006,0.013,0.013,0.0,0.0,0.0,0.019,0.033,0.013,-0.4034,-0.3774,0.2209,-0.3022,-0.8974,0.5139,0.5614,-0.6796,0.6535,0.181,-0.7823,0.3344,-0.2562,-0.5246,0.2715,-0.4249,-0.7486,0.3559,-0.1233,-0.1499,0.2753,-0.3061,-0.2935,-0.2239,0.1844,-0.0568,-0.3607,0.3043,-0.2925,0.3073,-0.3155,0.1019,-0.3022,0.2814,-0.2941,-0.2004,0.158,-0.0787,0.3491,0.0547,0.0312,-1.0,-1.0,1.0,-1.0,1.0,-1.0,-1.0,0.6059,-1.0,1.0,-1.0,1.0,-1.0,1.0,-0.2583,1.0,0.1007,-1.0,0.0,0.0,0.0,0.0,0.0,0.0,0.0,0.0,0.0,0.3333,0.0,0.3333,0.0,0
3.04,run,0.83,4.47,-11.17,4.39,-12.6,0.0,0.05,0.0,0.773,-26.02,-7.29,95.01,-20.3,-36.91,104.41,32.43,-20.39,112.76,13.45,-32.26,100.63,-17.84,-16.52,90.97,-21.45,-30.23,95.19,-34.79,-17.8,107.69,-33.5,-31.06,94.72,21.5,-6.54,104.25,19.15,-47.89,106.9,-26.0,-20.56,85.99,-14.0,-39.77,85.72,-1.0,-1.0,1.0,-1.0,1.0,-1.0,-1.0,1.0,-0.0671,1.0,1.0,0.082,-1.0,-1.0,-1.0,1.0,1.0,-1.0,0.006,0.0,0.123,0.013,0.013,0.019,0.006,0.344,0.0,0.006,0.013,0.013,0.0,0.0,0.0,0.019,0.033,0.013,-0.4326,-0.4034,0.2516,-0.3298,-0.9143,0.4832,0.5645,-0.6719,0.6182,0.2071,-0.813,0.3666,-0.2853,-0.54,0.2424,-0.3958,-0.7808,0.3283,-0.1766,-0.1857,0.2878,-0.2998,-0.2578,-0.2518,0.1386,-0.016,-0.3618,0.2938,-0.2998,0.3149,-0.3112,0.0238,-0.3018,0.2873,-0.3057,-0.2258,0.0417,-0.0726,-0.4791,-0.1386,-0.1929,-1.0,-1.0,1.0,-1.0,1.0,-1.0,-1.0,1.0,-1.0,1.0,0.3363,1.0,-1.0,1.0,-0.9767,1.0,0.96,-1.0,0.0,0.0,0.0,0.0,0.0,0.0,0.0,0.0,0.0,0.3333,0.0,0.3333,0.0,0
3.08,run,0.46,4.96,-11.11,11.23,-6.89,0.0,0.05,0.0,0.773,-27.42,-8.61,96.5,-20.83,-37.18,103.1,31.29,-19.16,111.45,14.85,-33.75,102.13,-19.07,-17.84,89.65,-20.04,-31.64,93.78,-35.0,-19.3,109.19,-35.0,-29.56,96.22,20.0,-5.04,102.75,20.65,-46.39,108.4,-27.5,-22.06,84.49,-12.5,-38.27,84.22,-1.0,-1.0,1.0,-1.0,1.0,0.4824,-0.0089,0.6817,-1.0,1.0,1.0,1.0,-1.0,0.0272,0.1495,1.0,1.0,-1.0,0.026,0.0,0.071,0.0,0.0,0.013,0.039,0.592,0.006,0.019,0.013,0.013,0.013,0.0,0.0,0.019,0.033,0.019,-0.4556,-0.4295,0.2761,-0.3651,-0.925,0.4571,0.563,-0.655,0.5937,0.2362,-0.8376,0.3881,-0.3083,-0.5568,0.2178,-0.3712,-0.8023,0.3037,-0.2095,-0.2273,0.293,-0.3415,-0.2205,-0.2736,0.0913,0.0518,-0.3449,0.3144,-0.3014,0.3006,-0.3037,-0.0463,-0.3029,0.2927,-0.2941,-0.2497,0.0202,-0.0469,-0.1949,0.0767,-0.2199,-1.0,-1.0,1.0,-1.0,1.0,-1.0,-1.0,1.0,-0.0671,1.0,1.0,0.082,-1.0,-1.0,-1.0,1.0,1.0,-1.0,0.0,0.0,0.0,0.0,0.0,0.0,0.0,0.0,0.0,0.3333,0.0,0.3333,0.0,0
3.12,run,-1.28,5.33,-44.04,9.97,-4.62,0.0,0.05,0.0,0.773,-28.83,-9.93,97.82,-22.59,-37.09,101.6,30.15,-17.67,110.13,16.17,-35.16,103.45,-20.48,-19.25,88.15,-18.63,-33.05,92.37,-35.0,-17.8,110.69,-35.0,-28.06,94.72,18.5,-6.54,101.25,22.15,-44.89,109.9,-29.0,-20.56,82.99,-11.0,-36.77,82.72,-1.0,0.589,1.0,-1.0,1.0,-1.0,-0.161,-0.9361,-1.0,1.0,1.0,1.0,-1.0,0.279,-0.7928,1.0,1.0,-1.0,0.026,0.0,0.071,0.0,0.0,0.013,0.039,0.592,0.006,0.019,0.013,0.013,0.013,0.0,0.0,0.019,0.033,0.019,-0.4801,-0.4525,0.3022,-0.3743,-0.9296,0.4341,0.543,-0.6335,0.5706,0.2608,-0.8636,0.4142,-0.3298,-0.5798,0.1948,-0.3467,-0.8268,0.2792,-0.2387,-0.2454,0.3029,-0.2736,-0.1716,-0.2778,-0.0109,0.1168,-0.3277,0.3122,-0.3088,0.3082,-0.2931,-0.1187,-0.2983,0.297,-0.2979,-0.2668,-0.012,-0.0042,-0.1938,0.1959,-0.1203,-1.0,-1.0,1.0,-1.0,1.0,0.4824,-0.0089,0.6817,-1.0,1.0,1.0,1.0,-1.0,0.0272,0.1495,1.0,1.0,-1.0,0.0,0.0,0.0,0.0,0.0,0.0,0.0,0.0,0.0,0.3333,0.0,0.3333,0.0,0
3.16,run,-2.37,6.09,-28.2,20.46,-9.23,0.0,0.05,0.0,0.773,-30.15,-11.25,99.14,-24.26,-36.74,100.2,28.83,-15.82,108.63,17.67,-36.47,105.03,-21.8,-20.48,86.75,-17.31,-34.45,90.97,-35.0,-16.3,112.19,-35.0,-26.56,93.22,17.0,-5.04,99.75,23.65,-43.39,111.4,-30.5,-22.06,81.49,-9.5,-35.27,81.22,-1.0,0.681,1.0,-1.0,1.0,-1.0,-0.8303,1.0,-0.9759,1.0,1.0,1.0,-1.0,-1.0,-0.1634,1.0,1.0,-1.0,0.026,0.0,0.071,0.0,0.0,0.013,0.039,0.592,0.006,0.019,0.013,0.013,0.013,0.0,0.0,0.019,0.033,0.019,-0.5047,-0.4755,0.3252,-0.405,-0.9281,0.408,0.5231,-0.6075,0.5476,0.2838,-0.8882,0.4372,-0.3543,-0.6044,0.1687,-0.3221,-0.8514,0.2546,-0.2591,-0.2581,0.2983,-0.3066,-0.1144,-0.2923,-0.0824,0.1796,-0.3157,0.3048,-0.3082,0.302,-0.2972,-0.1752,-0.3066,0.2999,-0.3006,-0.2788,-0.1641,0.0285,-0.7686,0.1741,-0.0806,-1.0,0.589,1.0,-1.0,1.0,-1.0,-0.161,-0.9361,-1.0,1.0,1.0,1.0,-1.0,0.279,-0.7928,1.0,1.0,-1.0,0.0,0.0,0.0,0.0,0.0,0.0,0.0,0.0,0.0,0.3333,0.0,0.3333,0.0,0
3.2,run,-2.95,6.55,-12.63,11.03,-9.96,0.0,0.05,0.0,0.773,-31.55,-12.57,100.55,-25.4,-35.68,98.79,27.51,-13.97,107.23,19.16,-37.97,106.35,-23.29,-21.27,85.34,-16.0,-35.51,89.56,-35.0,-14.8,113.69,-35.0,-25.06,94.72,15.5,-6.54,98.25,25.15,-41.89,112.9,-32.0,-23.56,82.99,-8.0,-33.77,79.72,-1.0,1.0,1.0,-1.0,1.0,0.6228,-0.0868,-1.0,-1.0,1.0,1.0,0.884,-1.0,-0.6985,1.0,1.0,1.0,-1.0,0.033,0.0,0.104,0.033,0.013,0.019,0.045,0.267,0.0,0.013,0.013,0.006,0.019,0.006,0.006,0.045,0.026,0.026,-0.5277,-0.4985,0.3482,-0.4341,-0.9219,0.3835,0.5001,-0.5752,0.5216,0.3099,-0.9112,0.4648,-0.3774,-0.6259,0.1442,-0.2991,-0.8759,0.2301,-0.2677,-0.267,0.2952,-0.324,-0.057,-0.2967,-0.144,0.2466,-0.3188,0.3112,-0.3021,0.315,-0.2944,-0.2032,-0.3067,0.2963,-0.3025,-0.2873,-0.2589,0.0946,-0.4921,0.3571,-0.161,-1.0,0.681,1.0,-1.0,1.0,-1.0,-0.8303,1.0,-0.9759,1.0,1.0,1.0,-1.0,-1.0,-0.1634,1.0,1.0,-1.0,0.0,0.0,0.0,0.0,0.0,0.0,0.0,0.0,0.0,0.3333,0.0,0.3333,0.0,0
3.24,run,-3.98,7.21,-17.22,10.4,-3.89,0.0,0.05,0.0,0.773,-33.05,-14.5,102.74,-27.69,-33.75,96.77,25.4,-11.69,105.12,21.27,-39.81,108.54,-25.4,-22.5,83.5,-13.97,-36.91,87.54,-33.5,-13.3,115.19,-35.0,-23.56,93.22,14.0,-8.04,96.75,26.65,-40.39,114.4,-33.5,-25.06,84.49,-6.5,-32.27,78.22,-0.0321,1.0,1.0,-1.0,1.0,-1.0,-0.2609,-1.0,-1.0,1.0,1.0,1.0,-1.0,-0.4257,1.0,1.0,1.0,-1.0,0.033,0.0,0.104,0.033,0.013,0.019,0.045,0.267,0.0,0.013,0.013,0.006,0.019,0.006,0.006,0.045,0.026,0.026,-0.5522,-0.5216,0.3728,-0.4541,-0.9035,0.359,0.4771,-0.543,0.497,0.3359,-0.9373,0.4878,-0.4034,-0.6397,0.1197,-0.2761,-0.8943,0.2056,-0.2795,-0.2732,0.2987,-0.3016,0.0291,-0.2998,-0.1872,0.2935,-0.3153,0.3157,-0.3093,0.3069,-0.3039,-0.194,-0.3068,0.2937,-0.2808,-0.2932,-0.3094,0.1348,-0.2204,0.1925,-0.1738,-1.0,1.0,1.0,-1.0,1.0,0.6228,-0.0868,-1.0,-1.0,1.0,1.0,0.884,-1.0,-0.6985,1.0,1.0,1.0,-1.0,0.0,0.0,0.0,0.0,0.0,0.0,0.0,0.0,0.0,0.3333,0.0,0.3333,0.0,0
3.28,run,-4.6,7.52,-19.83,11.01,-2.84,0.0,0.05,0.0,0.773,-33.66,-15.29,103.89,-28.83,-32.52,95.89,24.26,-10.63,103.97,22.41,-40.52,109.69,-26.63,-22.94,82.79,-12.83,-37.18,86.31,-35.0,-11.8,116.69,-35.0,-22.06,91.72,12.5,-9.54,95.25,28.15,-38.89,115.9,-35.0,-26.56,85.99,-5.0,-30.77,76.72,-1.0,1.0,1.0,-1.0,1.0,-0.8567,0.2068,-1.0,-0.2722,1.0,1.0,1.0,-1.0,-0.9427,0.9675,1.0,1.0,-1.0,0.033,0.0,0.104,0.033,0.013,0.019,0.045,0.267,0.0,0.013,0.013,0.006,0.019,0.006,0.006,0.045,0.026,0.026,-0.5783,-0.5553,0.4111,-0.4939,-0.8698,0.3237,0.4403,-0.5031,0.4602,0.3728,-0.9695,0.5262,-0.4403,-0.6611,0.0874,-0.2408,-0.9189,0.1703,-0.2592,-0.2735,0.3025,-0.3083,0.1026,-0.2958,-0.2207,0.3026,-0.3104,0.3107,-0.295,0.3082,-0.3024,-0.1881,-0.2932,0.2916,-0.2564,-0.2912,-0.3996,0.192,-0.3006,0.1815,-0.0679,-0.0321,1.0,1.0,-1.0,1.0,-1.0,-0.2609,-1.0,-1.0,1.0,1.0,1.0,-1.0,-0.4257,1.0,1.0,1.0,-1.0,0.0,0.0,0.0,0.0,0.0,0.0,0.0,0.0,0.0,0.3333,0.0,0.3333,0.0,0
3.32,run,-5.14,7.77,-14.4,6.9,5.8,0.0,0.05,0.0,0.773,-34.01,-15.82,105.29,-30.23,-31.2,94.66,22.85,-9.4,102.57,23.82,-41.13,111.09,-28.04,-23.99,82.18,-11.51,-37.35,84.9,-35.0,-10.3,118.19,-35.0,-20.56,90.22,14.0,-11.04,93.75,29.65,-37.39,117.4,-35.0,-28.06,87.49,-3.5,-29.27,75.22,-1.0,1.0,1.0,-1.0,1.0,-0.8182,1.0,-1.0,0.1462,1.0,1.0,1.0,-1.0,-1.0,0.8553,1.0,1.0,-1.0,0.045,0.0,0.117,0.019,0.013,0.019,0.045,0.143,0.0,0.019,0.006,0.013,0.019,0.013,0.006,0.104,0.0,0.026,-0.589,-0.5691,0.431,-0.5139,-0.8483,0.3083,0.4203,-0.4847,0.4403,0.3927,-0.9817,0.5461,-0.4617,-0.6688,0.0752,-0.2209,-0.9235,0.1488,-0.2305,-0.2545,0.3028,-0.3068,0.1699,-0.2771,-0.2455,0.2959,-0.3083,0.3085,-0.2625,0.3068,-0.3098,-0.1667,-0.2613,0.2951,-0.2005,-0.3019,-0.4537,0.2192,-0.3461,0.1922,-0.0497,-1.0,1.0,1.0,-1.0,1.0,-0.8567,0.2068,-1.0,-0.2722,1.0,1.0,1.0,-1.0,-0.9427,0.9675,1.0,1.0,-1.0,0.0,0.0,0.0,0.0,0.0,0.0,0.0,0.0,0.0,0.3333,0.0,0.3333,0.0,0
3.36,run,-5.53,7.79,-9.21,1.23,15.79,0.0,0.05,0.0,0.773,-34.19,-16.44,106.79,-31.64,-29.71,93.25,21.36,-8.53,101.25,25.22,-41.66,112.41,-29.44,-25.22,82.0,-10.02,-37.35,83.5,-35.0,-8.8,119.69,-35.0,-19.06,88.72,15.5,-12.54,95.25,31.15,-35.89,118.9,-35.0,-29.56,85.99,-2.0,-27.77,73.72,-1.0,1.0,1.0,-1.0,1.0,-1.0,1.0,-1.0,0.9958,1.0,1.0,1.0,-1.0,-1.0,0.1396,1.0,1.0,-1.0,0.045,0.0,0.117,0.019,0.013,0.019,0.045,0.143,0.0,0.019,0.006,0.013,0.019,0.013,0.006,0.104,0.0,0.026,-0.5952,-0.5783,0.4556,-0.5384,-0.8253,0.2869,0.3958,-0.4633,0.4157,0.4172,-0.9925,0.5706,-0.4863,-0.6872,0.0644,-0.1979,-0.9265,0.1243,-0.1843,-0.2126,0.304,-0.3068,0.2052,-0.2745,-0.2639,0.2876,-0.3078,0.308,-0.224,0.3068,-0.3089,-0.1857,-0.2232,0.2929,-0.1518,-0.3033,-0.5011,0.2409,-0.2513,0.1205,0.1012,-1.0,1.0,1.0,-1.0,1.0,-0.8182,1.0,-1.0,0.1462,1.0,1.0,1.0,-1.0,-1.0,0.8553,1.0,1.0,-1.0,0.0,0.0,0.0,0.0,0.0,0.0,0.0,0.0,0.0,0.3333,0.0,0.3333,0.0,0
3.4,run,-5.73,7.71,-5.04,-1.94,15.27,0.0,0.05,0.0,0.773,-34.19,-16.52,108.11,-32.87,-28.21,91.93,19.95,-8.0,99.76,26.63,-41.75,113.73,-30.94,-26.46,82.09,-8.61,-36.83,82.09,-35.0,-7.3,121.19,-35.0,-17.56,87.22,17.0,-14.04,96.75,32.65,-34.39,120.4,-35.0,-31.06,84.49,-0.5,-26.27,72.22,-1.0,1.0,1.0,-1.0,1.0,-1.0,1.0,-1.0,1.0,1.0,1.0,1.0,-1.0,-1.0,-1.0,1.0,1.0,-1.0,0.045,0.0,0.117,0.019,0.013,0.019,0.045,0.143,0.0,0.019,0.006,0.013,0.019,0.013,0.006,0.104,0.0,0.026,-0.5983,-0.589,0.4817,-0.563,-0.7992,0.2623,0.3697,-0.4479,0.3927,0.4418,-1.0017,0.5937,-0.5108,-0.7087,0.0614,-0.1718,-0.9265,0.0997,-0.1405,-0.1889,0.31,-0.3062,0.2408,-0.2836,-0.2819,0.2585,-0.3012,0.3071,-0.1911,0.3005,-0.3077,-0.21,-0.1676,0.3022,-0.1063,-0.3038,-0.5353,0.2426,-0.1608,0.0214,0.2756,-1.0,1.0,1.0,-1.0,1.0,-1.0,1.0,-1.0,0.9958,1.0,1.0,1.0,-1.0,-1.0,0.1396,1.0,1.0,-1.0,0.0,0.0,0.0,0.0,0.0,0.0,0.0,0.0,0.0,0.3333,0.0,0.3333,0.0,0
3.44,run,-5.73,7.62,0.87,-3.34,10.69,0.0,0.05,0.0,0.773,-34.19,-16.52,109.51,-33.75,-26.89,90.53,18.63,-7.91,98.53,28.04,-41.75,115.05,-32.34,-27.77,82.71,-7.21,-35.95,80.68,-35.0,-5.8,122.69,-35.0,-16.06,85.72,18.5,-15.54,98.25,34.15,-32.89,121.9,-35.0,-32.56,82.99,1.0,-24.77,70.72,-1.0,1.0,1.0,-1.0,1.0,-0.7582,1.0,-1.0,1.0,1.0,1.0,1.0,-1.0,-0.7695,-1.0,1.0,1.0,-1.0,0.039,0.111,0.13,0.006,0.006,0.013,0.039,0.033,0.0,0.026,0.026,0.026,0.006,0.019,0.0,0.111,0.013,0.026,-0.5983,-0.5906,0.5047,-0.5844,-0.7731,0.2393,0.3451,-0.4387,0.3666,0.4663,-1.0032,0.6167,-0.5369,-0.7302,0.0629,-0.1473,-0.9173,0.0752,-0.0983,-0.138,0.3036,-0.2952,0.2668,-0.2852,-0.2898,0.2156,-0.3091,0.3074,-0.1396,0.297,-0.3136,-0.2279,-0.1116,0.304,-0.0397,-0.3051,-0.5526,0.2363,-0.0879,-0.0339,0.2665,-1.0,1.0,1.0,-1.0,1.0,-1.0,1.0,-1.0,1.0,1.0,1.0,1.0,-1.0,-1.0,-1.0,1.0,1.0,-1.0,0.0,0.0,0.0,0.0,0.0,0.0,0.0,0.0,0.0,0.3333,0.0,0.3333,0.0,0
3.48,run,-5.43,7.27,6.47,-8.61,8.11,0.0,0.05,0.0,0.773,-34.19,-16.52,110.83,-34.37,-25.49,89.12,17.58,-7.91,97.47,29.44,-41.48,116.46,-33.4,-29.18,83.5,-5.89,-34.72,79.28,-35.0,-4.3,124.19,-35.0,-14.56,84.22,20.0,-17.04,99.75,35.0,-31.39,120.4,-35.0,-31.06,81.49,2.5,-23.27,69.22,-1.0,1.0,1.0,-1.0,1.0,-0.0596,1.0,-1.0,1.0,1.0,1.0,0.2334,-1.0,-0.0969,-1.0,1.0,1.0,-1.0,0.039,0.111,0.13,0.006,0.006,0.013,0.039,0.033,0.0,0.026,0.026,0.026,0.006,0.019,0.0,0.111,0.013,0.026,-0.5983,-0.5906,0.5292,-0.5998,-0.7501,0.2148,0.3221,-0.4372,0.3451,0.4909,-1.0032,0.6397,-0.5614,-0.7532,0.0736,-0.1227,-0.902,0.0506,-0.0688,-0.0966,0.3043,-0.264,0.2728,-0.2914,-0.2889,0.1567,-0.2966,0.3069,-0.0977,0.2939,-0.3113,-0.2456,-0.038,0.3045,0.0295,-0.3053,-0.5522,0.2279,0.0152,-0.0583,0.1866,-1.0,1.0,1.0,-1.0,1.0,-0.7582,1.0,-1.0,1.0,1.0,1.0,1.0,-1.0,-0.7695,-1.0,1.0,1.0,-1.0,0.0,0.0,0.0,0.0,0.0,0.0,0.0,0.0,0.0,0.3333,0.0,0.3333,0.0,0
3.52,run,-4.94,6.91,11.09,-7.84,14.38,0.0,0.05,0.0,0.773,-34.19,-16.0,112.15,-34.72,-23.99,87.71,16.88,-8.53,96.68,30.76,-40.08,117.69,-34.19,-30.41,83.58,-4.48,-33.4,77.78,-35.0,-2.8,125.69,-35.0,-13.06,85.72,21.5,-18.54,101.25,35.0,-29.89,118.9,-35.0,-29.56,79.99,4.0,-21.77,67.72,-1.0,0.8976,1.0,-1.0,1.0,0.4946,1.0,-1.0,1.0,1.0,1.0,-1.0,-1.0,0.0553,-1.0,1.0,1.0,-1.0,0.039,0.111,0.13,0.006,0.006,0.013,0.039,0.033,0.0,0.026,0.026,0.026,0.006,0.019,0.0,0.111,0.013,0.026,-0.5983,-0.5906,0.5522,-0.6105,-0.7256,0.1902,0.3037,-0.4372,0.3267,0.5154,-0.9986,0.6642,-0.5798,-0.7777,0.0874,-0.0997,-0.8805,0.0261,-0.0482,-0.0676,0.2992,-0.225,0.2828,-0.2959,-0.2711,0.1097,-0.2766,0.3068,-0.0512,0.2977,-0.2868,-0.2638,0.0251,0.2993,0.1011,-0.3056,-0.5259,0.1973,0.1129,-0.1502,0.1415,-1.0,1.0,1.0,-1.0,1.0,-0.0596,1.0,-1.0,1.0,1.0,1.0,0.2334,-1.0,-0.0969,-1.0,1.0,1.0,-1.0,0.0,0.0,0.0,0.0,0.0,0.0,0.0,0.0,0.0,0.3333,0.0,0.3333,0.0,0
3.56,run,-4.27,6.4,17.34,-13.55,17.8,0.0,0.05,0.0,0.773,-34.1,-15.03,113.47,-34.8,-22.68,86.4,16.44,-9.67,96.06,31.99,-38.76,118.74,-34.72,-31.38,83.58,-3.08,-31.82,76.46,-35.0,-4.3,127.19,-35.0,-11.56,87.22,23.0,-20.04,102.75,33.5,-28.39,117.4,-35.0,-31.06,78.49,5.5,-20.27,66.22,-1.0,-0.2202,1.0,-1.0,1.0,1.0,1.0,-1.0,1.0,-0.0623,1.0,-1.0,-1.0,-0.5106,-1.0,1.0,1.0,-1.0,0.058,0.357,0.136,0.0,0.006,0.013,0.013,0.0,0.0,0.019,0.013,0.033,0.0,0.006,0.019,0.084,0.006,0.033,-0.5983,-0.5814,0.5752,-0.6167,-0.6995,0.1657,0.2915,-0.4479,0.3129,0.5384,-0.9741,0.6857,-0.5937,-0.7992,0.089,-0.0752,-0.8575,0.0,-0.0337,-0.0127,0.2959,-0.1806,0.296,-0.2993,-0.2359,0.0364,-0.2455,0.3012,0.0564,0.289,-0.2526,-0.2653,0.0234,0.3017,0.1572,-0.3119,-0.4835,0.1662,0.1936,-0.1368,0.2511,-1.0,0.8976,1.0,-1.0,1.0,0.4946,1.0,-1.0,1.0,1.0,1.0,-1.0,-1.0,0.0553,-1.0,1.0,1.0,-1.0,0.0,0.0,0.0,0.0,0.0,0.0,0.0,0.0,0.0,0.3333,0.0,0.3333,0.0,0
3.6,run,-3.44,5.64,19.7,-19.53,17.48,0.0,0.05,0.0,0.773,-34.1,-13.89,114.87,-34.8,-21.18,85.43,16.35,-11.07,95.89,33.13,-37.53,119.44,-34.8,-31.9,83.06,-1.67,-30.41,75.06,-35.0,-5.8,128.69,-35.0,-10.06,88.72,24.5,-21.54,104.25,32.0,-26.89,115.9,-35.0,-32.56,76.99,7.0,-18.77,67.72,-1.0,-1.0,0.771,-1.0,1.0,1.0,1.0,-1.0,1.0,-1.0,1.0,-1.0,-1.0,-0.8617,-1.0,1.0,1.0,0.3708,0.058,0.357,0.136,0.0,0.006,0.013,0.013,0.0,0.0,0.019,0.013,0.033,0.0,0.006,0.019,0.084,0.006,0.033,-0.5967,-0.5645,0.5983,-0.6182,-0.6765,0.1427,0.2838,-0.4679,0.3022,0.5599,-0.9511,0.7041,-0.6029,-0.8161,0.089,-0.0506,-0.8299,-0.023,-0.0179,0.0542,0.2933,-0.1321,0.2933,-0.2957,-0.1938,-0.0492,-0.212,0.2912,0.1256,0.2712,-0.2113,-0.2489,0.0163,0.3031,0.2134,-0.3045,-0.4251,0.1216,0.3027,-0.2364,0.3106,-1.0,-0.2202,1.0,-1.0,1.0,1.0,1.0,-1.0,1.0,-0.0623,1.0,-1.0,-1.0,-0.5106,-1.0,1.0,1.0,-1.0,0.0,0.0,0.0,0.0,0.0,0.0,0.0,0.0,0.0,0.3333,0.0,0.3333,0.0,0
3.64,run,-2.7,4.73,17.26,-22.7,21.7,0.0,0.05,0.0,0.773,-34.1,-12.74,116.19,-34.8,-19.78,84.73,16.35,-12.57,95.89,34.01,-36.3,120.06,-34.89,-32.34,81.91,-0.26,-29.0,73.56,-35.0,-7.3,127.19,-35.0,-8.56,90.22,26.0,-23.04,105.75,30.5,-25.39,114.4,-35.0,-34.06,75.49,5.5,-17.27,69.22,-1.0,-1.0,-1.0,-1.0,1.0,1.0,1.0,-1.0,1.0,-1.0,1.0,-1.0,-1.0,-1.0,-0.8671,-0.9722,1.0,1.0,0.058,0.357,0.136,0.0,0.006,0.013,0.013,0.0,0.0,0.019,0.013,0.033,0.0,0.006,0.019,0.084,0.006,0.033,-0.5967,-0.5446,0.6228,-0.6182,-0.6504,0.1258,0.2823,-0.4924,0.2991,0.5798,-0.9296,0.7164,-0.6044,-0.8253,0.0798,-0.0261,-0.8053,-0.0476,-0.0125,0.1129,0.2975,-0.0925,0.3033,-0.2704,-0.1415,-0.1266,-0.16,0.2788,0.1686,0.236,-0.1537,-0.2088,-0.0231,0.3044,0.2416,-0.3054,-0.353,0.0553,0.3437,-0.3409,0.305,-1.0,-1.0,0.771,-1.0,1.0,1.0,1.0,-1.0,1.0,-1.0,1.0,-1.0,-1.0,-0.8617,-1.0,1.0,1.0,0.3708,0.0,0.0,0.0,0.0,0.0,0.0,0.0,0.0,0.0,0.3333,0.0,0.3333,0.0,0
3.68,run,-2.27,4.01,9.94,-19.29,16.11,0.0,0.05,0.0,0.773,-34.1,-11.51,117.42,-34.8,-18.37,84.29,16.79,-13.97,96.24,34.63,-35.24,120.15,-34.8,-32.34,80.86,1.05,-27.69,72.25,-35.0,-8.8,125.69,-33.5,-7.06,91.72,27.5,-24.54,107.25,29.0,-23.89,112.9,-35.0,-35.56,76.99,4.0,-15.77,70.72,-1.0,-1.0,-1.0,0.0856,1.0,1.0,1.0,-1.0,1.0,-1.0,1.0,-1.0,-1.0,-1.0,0.9338,-1.0,1.0,1.0,0.052,0.351,0.182,0.0,0.006,0.013,0.013,0.0,0.045,0.0,0.078,0.006,0.0,0.019,0.013,0.084,0.006,0.026,-0.5967,-0.5246,0.6458,-0.6182,-0.6259,0.1135,0.2823,-0.5185,0.2991,0.5952,-0.9081,0.7271,-0.6059,-0.833,0.0598,-0.0015,-0.7808,-0.0736,-0.0088,0.1521,0.2926,-0.0647,0.3023,-0.2342,-0.099,-0.1842,-0.112,0.2514,0.1968,0.2046,-0.1132,-0.1743,-0.0893,0.3031,0.2591,-0.3094,-0.2878,-0.024,0.3012,-0.3962,0.3788,-1.0,-1.0,-1.0,-1.0,1.0,1.0,1.0,-1.0,1.0,-1.0,1.0,-1.0,-1.0,-1.0,-0.8671,-0.9722,1.0,1.0,0.0,0.0,0.0,0.0,0.0,0.0,0.0,0.0,0.0,0.3333,0.0,0.3333,0.0,0
3.72,run,-2.07,3.41,5.08,-13.76,13.28,0.0,0.05,0.0,0.773,-34.1,-10.55,118.83,-34.8,-17.05,84.29,17.84,-15.56,97.03,34.89,-34.01,119.79,-34.89,-32.96,79.45,2.46,-26.1,71.02,-35.0,-10.3,124.19,-32.0,-5.56,93.22,29.0,-26.04,108.75,27.5,-22.39,111.4,-35.0,-37.06,78.49,2.5,-14.27,72.22,-1.0,-1.0,-1.0,1.0,1.0,1.0,1.0,-1.0,1.0,-1.0,1.0,-1.0,-1.0,-1.0,1.0,-1.0,1.0,1.0,0.052,0.351,0.182,0.0,0.006,0.013,0.013,0.0,0.045,0.0,0.078,0.006,0.0,0.019,0.013,0.084,0.006,0.026,-0.5967,-0.5031,0.6673,-0.6182,-0.6013,0.1058,0.2899,-0.543,0.3053,0.6059,-0.8897,0.7286,-0.6044,-0.833,0.0414,0.0215,-0.7578,-0.0966,-0.0061,0.1892,0.2876,-0.0453,0.3062,-0.1935,-0.0398,-0.2235,-0.0547,0.2173,0.2087,0.1491,-0.0733,-0.122,-0.1334,0.3008,0.27,-0.3052,-0.2505,-0.0865,0.1735,-0.3367,0.2812,-1.0,-1.0,-1.0,0.0856,1.0,1.0,1.0,-1.0,1.0,-1.0,1.0,-1.0,-1.0,-1.0,0.9338,-1.0,1.0,1.0,0.0,0.0,0.0,0.0,0.0,0.0,0.0,0.0,0.0,0.3333,0.0,0.3333,0.0,0
3.76,run,-1.95,2.71,3.37,-15.59,12.39,0.0,0.05,0.0,0.773,-34.1,-9.93,120.06,-34.45,-16.17,84.73,18.81,-16.88,98.09,34.8,-32.87,119.27,-34.89,-33.84,78.31,3.25,-24.79,70.14,-35.0,-11.8,122.69,-30.5,-4.06,94.72,30.5,-27.54,110.25,26.0,-20.89,109.9,-35.0,-38.56,79.99,1.0,-12.77,73.72,-1.0,-1.0,-1.0,1.0,1.0,1.0,1.0,-1.0,1.0,-1.0,1.0,-1.0,-1.0,-1.0,1.0,-1.0,0.8029,1.0,0.052,0.351,0.182,0.0,0.006,0.013,0.013,0.0,0.045,0.0,0.078,0.006,0.0,0.019,0.013,0.084,0.006,0.026,-0.5967,-0.4863,0.6918,-0.6182,-0.5783,0.1058,0.3083,-0.5706,0.3191,0.6105,-0.8682,0.7225,-0.6059,-0.8437,0.0169,0.046,-0.7302,-0.1181,-0.0043,0.1924,0.2885,-0.0317,0.2961,-0.1355,0.0376,-0.2546,0.0107,0.1685,0.2224,0.0826,-0.0568,-0.1236,-0.1806,0.2978,0.2871,-0.29,-0.2333,-0.1392,0.0886,-0.2401,0.2317,-1.0,-1.0,-1.0,1.0,1.0,1.0,1.0,-1.0,1.0,-1.0,1.0,-1.0,-1.0,-1.0,1.0,-1.0,1.0,1.0,0.0,0.0,0.0,0.0,0.0,0.0,0.0,0.0,0.0,0.3333,0.0,0.3333,0.0,0
3.8,run,-1.75,1.98,6.02,-17.71,8.37,0.0,0.05,0.0,0.773,-34.1,-9.58,121.29,-33.66,-14.5,85.61,20.21,-18.37,99.14,34.01,-31.64,118.21,-34.8,-34.89,77.61,3.87,-23.29,69.43,-35.0,-13.3,121.19,-29.0,-2.56,96.22,32.0,-29.04,111.75,24.5,-19.39,108.4,-35.0,-40.06,81.49,-0.5,-14.27,75.22,-1.0,-1.0,-1.0,1.0,1.0,1.0,1.0,-1.0,1.0,-1.0,1.0,-1.0,-1.0,-1.0,1.0,-1.0,-0.0206,1.0,0.058,0.267,0.208,0.013,0.039,0.019,0.006,0.0,0.13,0.052,0.163,0.0,0.006,0.026,0.006,0.13,0.013,0.006,-0.5967,-0.4755,0.7133,-0.6121,-0.563,0.1135,0.3252,-0.5937,0.3375,0.609,-0.8483,0.7133,-0.6059,-0.859,-0.0031,0.0598,-0.7072,-0.1335,-0.003,0.1746,0.2817,0.0006,0.2642,-0.0663,0.089,-0.2637,0.0759,0.1122,0.2297,0.0236,-0.0397,-0.1435,-0.2005,0.2597,0.2865,-0.2599,-0.2227,-0.2004,0.0589,-0.2721,0.2163,-1.0,-1.0,-1.0,1.0,1.0,1.0,1.0,-1.0,1.0,-1.0,1.0,-1.0,-1.0,-1.0,1.0,-1.0,0.8029,1.0,0.0,0.0,0.0,0.0,0.0,0.0,0.0,0.0,0.0,0.3333,0.0,0.3333,0.0,0
3.84,run,-1.76,1.05,-1.28,-23.04,8.9,0.0,0.05,0.0,0.773,-34.1,-9.49,122.26,-32.61,-13.27,86.57,21.71,-19.78,100.37,33.31,-30.41,116.89,-34.89,-36.21,77.17,4.13,-21.88,69.17,-35.0,-14.8,119.69,-27.5,-1.06,94.72,33.5,-30.54,113.25,23.0,-17.89,106.9,-35.0,-41.56,82.99,-2.0,-15.77,76.72,-1.0,-1.0,-1.0,1.0,0.8545,-0.2618,1.0,-1.0,1.0,-1.0,1.0,-1.0,-1.0,-1.0,1.0,-1.0,-0.767,1.0,0.058,0.267,0.208,0.013,0.039,0.019,0.006,0.0,0.13,0.052,0.163,0.0,0.006,0.026,0.006,0.13,0.013,0.006,-0.5967,-0.4694,0.7348,-0.5983,-0.5338,0.1289,0.3497,-0.6197,0.3559,0.5952,-0.8268,0.6949,-0.6044,-0.8774,-0.0153,0.0706,-0.6811,-0.1457,-0.0021,0.1451,0.2773,0.0519,0.2936,0.0108,0.1538,-0.2818,0.1218,0.0271,0.2409,-0.0521,-0.0221,-0.1691,-0.1861,0.2218,0.2977,-0.2277,-0.2049,-0.2639,0.105,-0.3092,0.1461,-1.0,-1.0,-1.0,1.0,1.0,1.0,1.0,-1.0,1.0,-1.0,1.0,-1.0,-1.0,-1.0,1.0,-1.0,-0.0206,1.0,0.0,0.0,0.0,0.0,0.0,0.0,0.0,0.0,0.0,0.3333,0.0,0.3333,0.0,0
3.88,run,-2.02,0.62,-7.27,-9.71,6.7,0.0,0.05,0.0,0.773,-34.1,-9.49,123.05,-31.29,-12.13,87.89,23.03,-21.18,101.69,32.17,-29.09,115.31,-34.89,-37.71,77.08,4.31,-21.09,69.17,-35.0,-16.3,118.19,-26.0,-2.56,93.22,35.0,-32.04,114.75,21.5,-16.39,105.4,-35.0,-43.06,84.49,-3.5,-17.27,78.22,-1.0,-1.0,-1.0,1.0,0.3332,-0.718,1.0,-1.0,1.0,-1.0,1.0,-1.0,-1.0,-1.0,1.0,-1.0,-1.0,1.0,0.058,0.267,0.208,0.013,0.039,0.019,0.006,0.0,0.13,0.052,0.163,0.0,0.006,0.026,0.006,0.13,0.013,0.006,-0.5967,-0.4679,0.7517,-0.5798,-0.5123,0.1457,0.3758,-0.6443,0.3774,0.5829,-0.8053,0.6719,-0.6059,-0.9004,-0.023,0.0752,-0.6565,-0.1503,-0.0015,0.1074,0.2582,0.1062,0.2871,0.0716,0.2067,-0.2904,0.1668,-0.0276,0.2501,-0.1238,-0.0213,-0.2057,-0.1594,0.1728,0.3016,-0.1769,-0.2062,-0.3456,-0.0224,-0.4022,0.1553,-1.0,-1.0,-1.0,1.0,0.8545,-0.2618,1.0,-1.0,1.0,-1.0,1.0,-1.0,-1.0,-1.0,1.0,-1.0,-0.767,1.0,0.0,0.0,0.0,0.0,0.0,0.0,0.0,0.0,0.0,0.3333,0.0,0.3333,0.0,0
3.92,run,-2.25,0.23,-7.88,-9.49,6.96,0.0,0.05,0.0,0.773,-34.1,-9.49,123.49,-29.97,-10.81,89.3,24.43,-22.59,103.1,30.85,-27.86,113.82,-34.89,-39.02,77.34,4.31,-19.34,69.43,-35.0,-17.8,116.69,-24.5,-1.06,91.72,35.0,-33.54,116.25,20.0,-14.89,103.9,-35.0,-44.56,85.99,-5.0,-18.77,79.72,-1.0,-1.0,-1.0,1.0,0.4443,-0.1094,1.0,-1.0,1.0,-1.0,1.0,-1.0,-1.0,-1.0,1.0,-1.0,-1.0,1.0,0.065,0.013,0.058,0.013,0.084,0.033,0.026,0.0,0.117,0.123,0.234,0.0,0.0,0.033,0.013,0.0,0.006,0.006,-0.5967,-0.4679,0.7655,-0.5568,-0.4924,0.1687,0.3988,-0.6688,0.4004,0.563,-0.7823,0.6443,-0.6059,-0.9265,-0.0245,0.0782,-0.6427,-0.1503,-0.001,0.0752,0.2324,0.1605,0.2756,0.1362,0.2308,-0.2952,0.2029,-0.094,0.2612,-0.19,-0.0149,-0.2416,-0.1173,0.1324,0.2628,-0.1238,-0.2286,-0.383,-0.127,-0.1694,0.1169,-1.0,-1.0,-1.0,1.0,0.3332,-0.718,1.0,-1.0,1.0,-1.0,1.0,-1.0,-1.0,-1.0,1.0,-1.0,-1.0,1.0,0.0,0.0,0.0,0.0,0.0,0.0,0.0,0.0,0.0,0.3333,0.0,0.3333,0.0,0
3.96,run,-2.97,-0.22,-19.08,-8.57,1.82,0.0,0.05,0.0,0.773,-34.19,-9.49,123.57,-28.65,-9.58,90.53,25.75,-23.91,104.59,29.62,-26.72,112.41,-34.89,-40.34,78.22,3.43,-18.19,70.31,-35.0,-19.3,115.19,-23.0,-2.56,90.22,35.0,-35.04,117.75,18.5,-13.39,102.4,-35.0,-46.06,87.49,-6.5,-20.27,81.22,-1.0,-1.0,-1.0,1.0,0.0439,-0.8783,1.0,-1.0,1.0,-1.0,1.0,-1.0,-1.0,-1.0,1.0,-1.0,-1.0,1.0,0.065,0.013,0.058,0.013,0.084,0.033,0.026,0.0,0.117,0.123,0.234,0.0,0.0,0.033,0.013,0.0,0.006,0.006,-0.5967,-0.4679,0.7731,-0.5338,-0.4694,0.1933,0.4234,-0.6934,0.4249,0.54,-0.7609,0.6182,-0.6059,-0.9495,-0.0199,0.0782,-0.6121,-0.1457,-0.0007,0.0526,0.1912,0.1979,0.2785,0.1866,0.2528,-0.2979,0.2333,-0.1513,0.2627,-0.23,-0.0104,-0.2547,-0.065,0.0927,0.298,-0.0696,-0.2489,-0.4164,-0.1376,-0.1657,0.1214,-1.0,-1.0,-1.0,1.0,0.4443,-0.1094,1.0,-1.0,1.0,-1.0,1.0,-1.0,-1.0,-1.0,1.0,-1.0,-1.0,1.0,0.0,0.0,0.0,0.0,0.0,0.0,0.0,0.0,0.0,0.3333,0.0,0.3333,0.0,0
4.0,run,-3.74,-0.52,-22.67,-7.52,0.28,0.0,0.05,0.0,0.773,-34.28,-10.81,123.66,-27.25,-8.26,91.49,27.16,-25.31,106.17,28.3,-25.49,110.92,-34.89,-41.66,79.28,2.29,-17.49,71.19,-35.0,-20.8,113.69,-21.5,-1.06,88.72,35.0,-36.54,119.25,17.0,-11.89,100.9,-35.0,-47.56,88.99,-8.0,-21.77,82.72,-1.0,-1.0,-1.0,1.0,0.8257,0.2636,1.0,-1.0,1.0,-1.0,1.0,-1.0,-1.0,-1.0,1.0,-1.0,-1.0,1.0,0.065,0.013,0.058,0.013,0.084,0.033,0.026,0.0,0.117,0.123,0.234,0.0,0.0,0.033,0.013,0.0,0.006,0.006,-0.5983,-0.4679,0.7747,-0.5108,-0.4479,0.2148,0.4464,-0.7164,0.451,0.5185,-0.7409,0.5937,-0.6059,-0.9725,-0.0046,0.0629,-0.5921,-0.1304,-0.0063,0.0368,0.1396,0.2257,0.2763,0.212,0.2641,-0.2957,0.2621,-0.1873,0.2594,-0.254,-0.0073,-0.2654,0.0126,0.0068,0.2842,0.0094,-0.3113,-0.456,-0.3331,-0.1495,0.0318,-1.0,-1.0,-1.0,1.0,0.0439,-0.8783,1.0,-1.0,1.0,-1.0,1.0,-1.0,-1.0,-1.0,1.0,-1.0,-1.0,1.0,0.0,0.0,0.0,0.0,0.0,0.0,0.0,0.0,0.0,0.3333,0.0,0.3333,0.0,0
4.04,run,-4.31,-0.38,-14.83,2.65,-9.0,0.0,0.05,0.0,0.773,-34.28,-12.22,123.49,-26.28,-6.94,92.2,28.48,-26.72,107.67,26.89,-24.35,109.42,-34.89,-42.98,80.6,0.88,-16.79,72.95,-35.0,-22.3,112.19,-20.0,0.44,87.22,35.0,-38.04,120.75,15.5,-10.39,99.4,-35.0,-49.06,90.49,-9.5,-23.27,84.22,-1.0,-1.0,-1.0,1.0,0.7699,-0.8425,1.0,-1.0,1.0,-1.0,0.754,-1.0,-1.0,-1.0,1.0,-1.0,-1.0,1.0,0.033,0.0,0.0,0.033,0.13,0.026,0.033,0.0,0.091,0.156,0.422,0.0,0.0,0.039,0.006,0.0,0.006,0.006,-0.5998,-0.4909,0.7762,-0.4863,-0.4249,0.2316,0.4709,-0.7409,0.4786,0.4955,-0.7194,0.5676,-0.6059,-0.9956,0.0138,0.043,-0.5798,-0.115,-0.0101,-0.0601,0.1035,0.2496,0.2793,0.2114,0.2765,-0.2986,0.2865,-0.217,0.2617,-0.2751,-0.0051,-0.2717,0.0775,-0.0697,0.2447,0.0638,-0.3786,-0.4819,-0.3957,-0.1313,0.0048,-1.0,-1.0,-1.0,1.0,0.8257,0.2636,1.0,-1.0,1.0,-1.0,1.0,-1.0,-1.0,-1.0,1.0,-1.0,-1.0,1.0,0.0,0.0,0.0,0.0,0.0,0.0,0.0,0.0,0.0,0.3333,0.0,0.3333,0.0,0
4.08,run,-4.5,-0.36,-5.21,0.97,-6.78,0.0,0.05,0.0,0.773,-34.37,-13.45,122.52,-24.87,-5.62,92.46,29.88,-28.12,109.16,25.49,-23.2,108.11,-34.8,-44.38,82.0,-0.44,-16.61,74.36,-35.0,-23.8,110.69,-18.5,-1.06,85.72,35.0,-39.54,122.25,14.0,-11.89,97.9,-34.93,-50.56,91.99,-11.0,-24.77,85.72,-1.0,-1.0,-1.0,1.0,0.0545,-0.5175,1.0,-1.0,1.0,-1.0,0.0048,-1.0,-0.9981,-1.0,1.0,-1.0,-1.0,1.0,0.033,0.0,0.0,0.033,0.13,0.026,0.033,0.0,0.091,0.156,0.422,0.0,0.0,0.039,0.006,0.0,0.006,0.006,-0.5998,-0.5154,0.7731,-0.4694,-0.4019,0.2439,0.4939,-0.7655,0.5047,0.4709,-0.6995,0.5415,-0.6059,-1.0186,0.0368,0.0184,-0.5676,-0.0844,-0.0071,-0.1324,0.0611,0.2368,0.2802,0.1931,0.2783,-0.2994,0.2966,-0.2423,0.2567,-0.2886,-0.0036,-0.2749,0.139,-0.1391,0.2165,0.1577,-0.429,-0.4702,-0.2589,0.0463,-0.157,-1.0,-1.0,-1.0,1.0,0.7699,-0.8425,1.0,-1.0,1.0,-1.0,0.754,-1.0,-1.0,-1.0,1.0,-1.0,-1.0,1.0,0.0,0.0,0.0,0.0,0.0,0.0,0.0,0.0,0.0,0.3333,0.0,0.3333,0.0,0
4.12,run,-4.67,-0.14,-4.76,3.92,-5.1,0.0,0.05,0.0,0.773,-34.37,-15.03,121.11,-23.12,-4.31,92.46,31.55,-29.62,110.92,23.91,-21.71,106.35,-34.8,-45.97,83.67,-2.11,-16.88,76.03,-35.0,-25.3,109.19,-17.0,-2.56,84.22,35.0,-41.04,123.75,12.5,-13.39,96.4,-33.43,-52.06,93.49,-12.5,-26.27,87.22,-1.0,-1.0,-1.0,1.0,-0.8013,-0.3206,1.0,-1.0,1.0,-1.0,-0.0378,-1.0,0.2195,-1.0,1.0,-1.0,-1.0,1.0,0.033,0.0,0.0,0.033,0.13,0.026,0.033,0.0,0.091,0.156,0.422,0.0,0.0,0.039,0.006,0.0,0.006,0.006,-0.6013,-0.5369,0.7563,-0.4449,-0.3789,0.2485,0.5185,-0.79,0.5308,0.4464,-0.6796,0.5185,-0.6044,-1.0431,0.0614,-0.0046,-0.5645,-0.0598,-0.0108,-0.1749,-0.0218,0.2597,0.2842,0.1528,0.2887,-0.3035,0.3074,-0.2635,0.2559,-0.29,0.0034,-0.2863,0.1912,-0.1854,0.1633,0.2043,-0.4451,-0.468,-0.0909,0.017,-0.1183,-1.0,-1.0,-1.0,1.0,0.0545,-0.5175,1.0,-1.0,1.0,-1.0,0.0048,-1.0,-0.9981,-1.0,1.0,-1.0,-1.0,1.0,0.0,0.0,0.0,0.0,0.0,0.0,0.0,0.0,0.0,0.3333,0.0,0.3333,0.0,0
4.16,run,-4.84,0.04,-8.17,5.52,-7.29,0.0,0.05,0.0,0.773,-34.37,-16.08,120.06,-22.06,-3.43,92.2,32.34,-30.67,112.15,22.76,-20.74,105.12,-34.8,-47.02,84.9,-3.16,-16.96,77.17,-35.0,-26.8,107.69,-15.5,-4.06,85.72,35.0,-42.54,125.25,11.0,-14.89,94.9,-31.93,-53.56,94.99,-14.0,-27.77,88.72,-1.0,-1.0,-1.0,1.0,-0.7534,1.0,1.0,-1.0,1.0,-1.0,-0.7178,-1.0,1.0,-1.0,1.0,-1.0,-1.0,1.0,0.026,0.0,0.006,0.045,0.123,0.0,0.019,0.006,0.052,0.175,0.468,0.0,0.019,0.071,0.006,0.0,0.026,0.013,-0.6013,-0.5645,0.7317,-0.4142,-0.3559,0.2485,0.5476,-0.8161,0.5614,0.4188,-0.6535,0.4878,-0.6044,-1.0707,0.0905,-0.0337,-0.5691,-0.0307,-0.0076,-0.2081,-0.0914,0.277,0.2703,0.107,0.2925,-0.2934,0.3104,-0.2701,0.2601,-0.2982,0.0024,-0.2861,0.2243,-0.2203,0.1,0.2334,-0.4601,-0.4493,-0.0831,0.0684,-0.089,-1.0,-1.0,-1.0,1.0,-0.8013,-0.3206,1.0,-1.0,1.0,-1.0,-0.0378,-1.0,0.2195,-1.0,1.0,-1.0,-1.0,1.0,0.0,0.0,0.0,0.0,0.0,0.0,0.0,0.0,0.0,0.3333,0.0,0.3333,0.0,0
4.2,run,-4.57,0.1,6.15,4.25,-6.95,0.0,0.05,0.0,0.773,-34.37,-17.58,118.65,-20.83,-2.64,91.41,33.4,-31.99,113.82,21.36,-19.6,103.8,-34.1,-48.34,86.31,-4.66,-17.93,78.57,-35.0,-28.3,106.19,-14.0,-5.56,87.22,35.0,-44.04,126.75,9.5,-16.39,93.4,-30.43,-55.06,96.49,-15.5,-29.27,90.22,-1.0,-1.0,-1.0,1.0,-0.7522,1.0,1.0,-1.0,1.0,-0.319,-1.0,-1.0,1.0,-1.0,1.0,-1.0,-1.0,1.0,0.026,0.0,0.006,0.045,0.123,0.0,0.019,0.006,0.052,0.175,0.468,0.0,0.019,0.071,0.006,0.0,0.026,0.013,-0.6013,-0.5829,0.7133,-0.3958,-0.3405,0.2439,0.5614,-0.8345,0.5829,0.3988,-0.6366,0.4663,-0.6044,-1.0891,0.112,-0.0522,-0.5706,-0.0107,-0.0053,-0.2332,-0.1516,0.2815,0.2622,0.053,0.2705,-0.2929,0.3194,-0.284,0.2623,-0.3109,0.0016,-0.2879,0.2592,-0.2418,0.0627,0.2583,-0.4745,-0.4332,-0.1425,0.0964,-0.1272,-1.0,-1.0,-1.0,1.0,-0.7534,1.0,1.0,-1.0,1.0,-1.0,-0.7178,-1.0,1.0,-1.0,1.0,-1.0,-1.0,1.0,0.0,0.0,0.0,0.0,0.0,0.0,0.0,0.0,0.0,0.3333,0.0,0.3333,0.0,0
4.24,run,-4.55,0.06,0.49,-1.38,-8.96,0.0,0.05,0.0,0.773,-34.37,-18.9,117.42,-19.34,-2.11,90.26,33.93,-33.4,115.22,19.86,-18.37,102.39,-33.31,-49.83,87.71,-5.98,-19.25,79.98,-35.0,-29.8,104.69,-12.5,-7.06,88.72,35.0,-45.54,128.25,8.0,-17.89,91.9,-28.93,-56.56,97.99,-17.0,-30.77,91.72,-1.0,-1.0,-1.0,1.0,-1.0,1.0,1.0,-0.6363,1.0,-0.2885,-0.7222,-1.0,1.0,-1.0,1.0,-1.0,-1.0,1.0,0.026,0.0,0.006,0.045,0.123,0.0,0.019,0.006,0.052,0.175,0.468,0.0,0.019,0.071,0.006,0.0,0.026,0.013,-0.6013,-0.609,0.6888,-0.3743,-0.3267,0.2301,0.5798,-0.8575,0.6121,0.3743,-0.6167,0.4433,-0.5921,-1.1121,0.1365,-0.0782,-0.5875,0.0138,-0.0037,-0.2609,-0.198,0.2774,0.2352,-0.0146,0.2582,-0.2912,0.3327,-0.2906,0.2583,-0.3038,0.0471,-0.2876,0.2733,-0.2668,-0.0193,0.2727,-0.4512,-0.4278,0.1073,0.0741,-0.1213,-1.0,-1.0,-1.0,1.0,-0.7522,1.0,1.0,-1.0,1.0,-0.319,-1.0,-1.0,1.0,-1.0,1.0,-1.0,-1.0,1.0,0.0,0.0,0.0,0.0,0.0,0.0,0.0,0.0,0.0,0.3333,0.0,0.3333,0.0,0
4.28,run,-4.86,0.2,-9.34,3.82,-5.49,0.0,0.05,0.0,0.773,-34.45,-20.3,116.37,-18.02,-1.93,89.21,34.28,-34.8,116.63,18.46,-17.58,100.9,-32.17,-51.15,89.12,-7.38,-20.65,81.39,-35.0,-31.3,103.19,-11.0,-8.56,90.22,35.0,-44.04,129.75,6.5,-19.39,90.4,-27.43,-58.06,99.49,-18.5,-32.27,93.22,-1.0,-1.0,-1.0,1.0,-1.0,1.0,1.0,0.1552,1.0,-0.0033,-0.5832,-1.0,1.0,-1.0,1.0,-1.0,-1.0,1.0,0.019,0.0,0.006,0.058,0.078,0.0,0.013,0.0,0.052,0.208,0.357,0.0,0.019,0.084,0.006,0.006,0.026,0.013,-0.6013,-0.632,0.6673,-0.3482,-0.3175,0.2102,0.589,-0.882,0.6366,0.3482,-0.5952,0.4188,-0.5783,-1.1382,0.1611,-0.1012,-0.6105,0.0383,-0.0026,-0.2689,-0.2191,0.2919,0.1992,-0.085,0.2153,-0.2958,0.3249,-0.3012,0.2613,-0.3047,0.0847,-0.2991,0.2833,-0.273,-0.0997,0.2829,-0.4491,-0.4318,0.0085,-0.024,-0.1564,-1.0,-1.0,-1.0,1.0,-1.0,1.0,1.0,-0.6363,1.0,-0.2885,-0.7222,-1.0,1.0,-1.0,1.0,-1.0,-1.0,1.0,0.0,0.0,0.0,0.0,0.0,0.0,0.0,0.0,0.0,0.3333,0.0,0.3333,0.0,0
4.32,run,-4.77,0.34,1.08,2.48,-4.0,0.0,0.05,0.0,0.773,-34.45,-21.71,114.7,-16.7,-1.93,88.51,34.45,-36.21,118.04,17.05,-17.14,99.58,-30.67,-52.56,90.53,-8.79,-22.06,82.88,-35.0,-32.8,101.69,-9.5,-10.06,91.72,35.0,-42.54,131.25,6.98,-20.89,88.9,-25.93,-59.56,100.99,-20.0,-33.77,94.72,-1.0,-1.0,-1.0,1.0,-0.599,1.0,1.0,0.6067,1.0,0.1994,-1.0,-1.0,1.0,-1.0,1.0,-1.0,-1.0,1.0,0.019,0.0,0.006,0.058,0.078,0.0,0.013,0.0,0.052,0.208,0.357,0.0,0.019,0.084,0.006,0.006,0.026,0.013,-0.6029,-0.6565,0.6489,-0.3252,-0.3145,0.1917,0.5952,-0.9066,0.6611,0.3237,-0.5814,0.3927,-0.5584,-1.1612,0.1856,-0.1258,-0.6351,0.0629,-0.0075,-0.2798,-0.2221,0.2903,0.1509,-0.1282,0.1736,-0.2987,0.319,-0.3025,0.2345,-0.3106,0.1337,-0.2953,0.2899,-0.2828,-0.1614,0.2896,-0.4767,-0.4194,-0.1629,0.0667,-0.0959,-1.0,-1.0,-1.0,1.0,-1.0,1.0,1.0,0.1552,1.0,-0.0033,-0.5832,-1.0,1.0,-1.0,1.0,-1.0,-1.0,1.0,0.0,0.0,0.0,0.0,0.0,0.0,0.0,0.0,0.0,0.3333,0.0,0.3333,0.0,0
4.36,run,-4.43,1.01,8.29,15.52,-5.84,0.0,0.05,0.0,0.773,-34.45,-23.03,113.2,-15.29,-1.93,88.07,34.54,-37.62,119.44,15.56,-16.96,98.09,-29.36,-54.05,92.02,-10.2,-23.38,84.38,-35.0,-34.3,100.19,-8.0,-11.56,93.22,35.0,-41.04,132.75,5.48,-22.39,87.4,-24.43,-58.06,102.49,-21.5,-35.27,96.22,-1.0,-1.0,-1.0,1.0,-1.0,1.0,1.0,1.0,1.0,-0.1248,-0.5814,-1.0,1.0,-0.4169,1.0,-1.0,-1.0,1.0,0.019,0.0,0.006,0.058,0.078,0.0,0.013,0.0,0.052,0.208,0.357,0.0,0.019,0.084,0.006,0.006,0.026,0.013,-0.6029,-0.6811,0.6197,-0.3022,-0.3145,0.1795,0.5983,-0.9311,0.6857,0.2991,-0.5737,0.3697,-0.5323,-1.1858,0.2102,-0.1503,-0.6596,0.089,-0.0053,-0.2879,-0.2647,0.2894,0.1056,-0.1357,0.133,-0.3011,0.3153,-0.3037,0.1929,-0.3037,0.1914,-0.2987,0.2949,-0.2899,-0.205,0.3005,-0.469,-0.4074,0.0188,0.0432,-0.0698,-1.0,-1.0,-1.0,1.0,-0.599,1.0,1.0,0.6067,1.0,0.1994,-1.0,-1.0,1.0,-1.0,1.0,-1.0,-1.0,1.0,0.0,0.0,0.0,0.0,0.0,0.0,0.0,0.0,0.0,0.3333,0.0,0.3333,0.0,0
4.4,run,-4.39,1.85,-0.02,17.16,-6.15,0.0,0.05,0.0,0.773,-34.45,-24.43,111.8,-13.97,-2.2,87.63,34.54,-38.85,120.85,13.97,-16.88,96.68,-27.95,-55.46,93.52,-11.6,-24.87,85.61,-35.0,-35.8,98.69,-6.5,-13.06,94.72,35.0,-39.54,134.25,3.98,-23.89,85.9,-22.93,-56.56,103.99,-23.0,-36.77,97.72,-1.0,-0.7832,-1.0,1.0,-0.988,1.0,1.0,1.0,1.0,-0.367,-1.0,-1.0,1.0,0.2848,1.0,-1.0,-0.4344,1.0,0.026,0.0,0.013,0.052,0.0,0.039,0.006,0.0,0.045,0.084,0.078,0.0,0.013,0.058,0.013,0.006,0.026,0.033,-0.6029,-0.7041,0.5937,-0.2777,-0.3145,0.1718,0.5998,-0.9557,0.7102,0.273,-0.5706,0.3436,-0.5093,-1.2118,0.2362,-0.1749,-0.6826,0.115,-0.0037,-0.2879,-0.2831,0.2947,0.0739,-0.1238,0.0989,-0.3029,0.3128,-0.3105,0.1465,-0.3104,0.2203,-0.3069,0.3043,-0.295,-0.2298,0.3082,-0.4391,-0.3483,0.1447,0.2709,-0.102,-1.0,-1.0,-1.0,1.0,-1.0,1.0,1.0,1.0,1.0,-0.1248,-0.5814,-1.0,1.0,-0.4169,1.0,-1.0,-1.0,1.0,0.0,0.0,0.0,0.0,0.0,0.0,0.0,0.0,0.0,0.3333,0.0,0.3333,0.0,0
4.44,run,-3.63,5.48,16.25,68.42,1.63,0.0,0.05,0.0,0.773,-34.8,-26.1,108.98,-11.87,-3.78,87.98,34.54,-40.25,123.05,11.87,-16.7,94.75,-26.02,-56.78,95.45,-13.36,-27.86,87.63,-35.0,-37.3,97.19,-5.0,-14.56,96.22,35.0,-38.04,135.75,2.48,-25.39,84.4,-21.43,-55.06,105.49,-24.5,-38.27,99.22,-1.0,-0.4605,-1.0,1.0,-0.3781,1.0,1.0,1.0,1.0,-0.3062,-1.0,-1.0,1.0,0.6671,1.0,-1.0,-0.242,1.0,0.026,0.0,0.013,0.052,0.0,0.039,0.006,0.0,0.045,0.084,0.078,0.0,0.013,0.058,0.013,0.006,0.026,0.033,-0.6029,-0.7286,0.5691,-0.2546,-0.3191,0.1641,0.5998,-0.9771,0.7348,0.2454,-0.5691,0.3191,-0.4847,-1.2364,0.2623,-0.1994,-0.7087,0.1365,-0.0026,-0.2935,-0.2902,0.2925,0.0345,-0.1154,0.0692,-0.2925,0.311,-0.3208,0.1083,-0.3093,0.2462,-0.3069,0.3108,-0.2985,-0.2586,0.2962,-0.4355,-0.2758,-0.0004,0.2996,-0.1073,-1.0,-0.7832,-1.0,1.0,-0.988,1.0,1.0,1.0,1.0,-0.367,-1.0,-1.0,1.0,0.2848,1.0,-1.0,-0.4344,1.0,0.0,0.0,0.0,0.0,0.0,0.0,0.0,0.0,0.0,0.3333,0.0,0.3333,0.0,0
4.48,run,-3.71,5.09,-14.2,-21.45,-2.05,0.0,0.05,0.0,0.773,-34.89,-26.89,108.46,-10.99,-4.75,88.33,34.54,-40.69,124.01,10.81,-16.79,94.04,-24.96,-57.39,96.42,-14.41,-27.77,88.51,-35.0,-35.8,95.69,-3.5,-16.06,97.72,35.0,-36.54,137.25,0.98,-26.89,82.9,-19.93,-53.56,106.99,-26.0,-36.77,100.72,-1.0,1.0,-1.0,1.0,-0.8606,1.0,1.0,1.0,1.0,-1.0,-1.0,-1.0,1.0,1.0,1.0,-1.0,1.0,1.0,0.026,0.0,0.013,0.052,0.0,0.039,0.006,0.0,0.045,0.084,0.078,0.0,0.013,0.058,0.013,0.006,0.026,0.033,-0.609,-0.7578,0.52,-0.2178,-0.3467,0.1703,0.5998,-1.0017,0.7731,0.2086,-0.566,0.2853,-0.451,-1.2594,0.2961,-0.2301,-0.7609,0.1718,-0.0184,-0.2842,-0.3358,0.3042,-0.0505,-0.0642,0.0484,-0.2711,0.3213,-0.324,0.0841,-0.3077,0.2635,-0.277,0.3087,-0.2919,-0.322,0.3027,-0.3695,0.0416,0.2837,1.1942,0.0284,-1.0,-0.4605,-1.0,1.0,-0.3781,1.0,1.0,1.0,1.0,-0.3062,-1.0,-1.0,1.0,0.6671,1.0,-1.0,-0.242,1.0,0.0,0.0,0.0,0.0,0.0,0.0,0.0,0.0,0.0,0.3333,0.0,0.3333,0.0,0
4.52,run,-3.83,5.27,-2.69,2.27,12.19,0.0,0.05,0.0,0.773,-34.72,-28.12,107.49,-9.58,-6.06,89.03,34.54,-40.96,125.33,9.58,-17.67,92.81,-23.99,-57.92,97.73,-15.73,-29.18,89.91,-35.0,-37.3,94.19,-2.0,-17.56,99.22,35.0,-35.04,138.75,2.48,-28.39,81.4,-18.43,-52.06,108.49,-27.5,-38.27,102.22,-1.0,-0.8464,-1.0,1.0,-0.5871,1.0,1.0,1.0,1.0,0.75,-0.8458,-1.0,1.0,-0.4315,1.0,-1.0,-1.0,1.0,0.006,0.019,0.013,0.039,0.0,0.104,0.0,0.006,0.039,0.065,0.0,0.0,0.006,0.0,0.019,0.019,0.026,0.013,-0.6105,-0.7716,0.5108,-0.2025,-0.3636,0.1764,0.5998,-1.0094,0.79,0.1902,-0.5676,0.273,-0.4326,-1.2701,0.3129,-0.2485,-0.7593,0.1871,-0.0219,-0.2799,-0.289,0.303,-0.1343,-0.0089,0.0339,-0.2347,0.3239,-0.3348,0.0499,-0.2874,0.2925,-0.2569,0.3151,-0.3123,-0.2164,0.3019,-0.3761,0.007,-0.2478,-0.3743,-0.0358,-1.0,1.0,-1.0,1.0,-0.8606,1.0,1.0,1.0,1.0,-1.0,-1.0,-1.0,1.0,1.0,1.0,-1.0,1.0,1.0,0.0,0.0,0.0,0.0,0.0,0.0,0.0,0.0,0.0,0.3333,0.0,0.3333,0.0,0
4.56,run,-4.11,5.62,-6.66,7.82,5.13,0.0,0.05,0.0,0.773,-34.89,-28.83,106.26,-8.35,-7.29,90.09,34.63,-41.04,126.74,8.26,-18.81,91.85,-22.76,-58.01,99.14,-17.14,-30.59,91.32,-35.0,-35.8,92.69,-0.5,-19.06,100.72,35.0,-33.54,140.25,2.41,-29.89,79.9,-16.93,-50.56,109.99,-29.0,-39.77,103.72,-1.0,1.0,-1.0,1.0,-0.7935,1.0,1.0,1.0,1.0,0.0688,-1.0,-1.0,1.0,1.0,1.0,-1.0,-0.3702,1.0,0.006,0.019,0.013,0.039,0.0,0.104,0.0,0.006,0.039,0.065,0.0,0.0,0.006,0.0,0.019,0.019,0.026,0.013,-0.6075,-0.7931,0.4939,-0.1779,-0.3866,0.1887,0.5998,-1.014,0.813,0.1687,-0.5829,0.2516,-0.4157,-1.2793,0.3359,-0.2715,-0.7839,0.2117,-0.0039,-0.2757,-0.2649,0.3032,-0.1794,0.0393,0.0237,-0.1814,0.3121,-0.3141,-0.022,-0.2809,0.2674,-0.214,0.306,-0.304,-0.2425,0.3024,-0.3868,0.0229,-0.047,0.0396,0.2128,-1.0,-0.8464,-1.0,1.0,-0.5871,1.0,1.0,1.0,1.0,0.75,-0.8458,-1.0,1.0,-0.4315,1.0,-1.0,-1.0,1.0,0.0,0.0,0.0,0.0,0.0,0.0,0.0,0.0,0.0,0.3333,0.0,0.3333,0.0,0
4.6,run,-4.09,5.58,-0.41,1.66,3.49,0.0,0.05,0.0,0.773,-34.63,-30.41,105.21,-7.12,-8.44,91.05,34.54,-40.52,127.97,7.03,-19.86,90.79,-21.71,-57.66,100.37,-18.54,-31.73,92.64,-35.0,-34.3,91.19,1.0,-20.56,102.22,35.0,-32.04,141.75,0.91,-31.39,78.4,-15.43,-49.06,111.49,-30.5,-38.27,105.22,-1.0,1.0,-1.0,1.0,-0.2362,1.0,1.0,1.0,1.0,-0.5026,-1.0,-1.0,1.0,0.7283,1.0,-1.0,0.0103,1.0,0.006,0.019,0.013,0.039,0.0,0.104,0.0,0.006,0.039,0.065,0.0,0.0,0.006,0.0,0.019,0.019,0.026,0.013,-0.6105,-0.8053,0.4725,-0.1565,-0.408,0.2071,0.6013,-1.0155,0.8376,0.1457,-0.6029,0.2347,-0.3942,-1.2809,0.3605,-0.2961,-0.8084,0.2362,-0.0142,-0.2387,-0.2656,0.2923,-0.2057,0.0962,0.0223,-0.1327,0.3101,-0.3057,-0.0898,-0.2596,0.2673,-0.1555,0.3057,-0.3044,-0.2613,0.3032,-0.411,0.0532,-0.1163,0.1365,0.0896,-1.0,1.0,-1.0,1.0,-0.7935,1.0,1.0,1.0,1.0,0.0688,-1.0,-1.0,1.0,1.0,1.0,-1.0,-0.3702,1.0,0.0,0.0,0.0,0.0,0.0,0.0,0.0,0.0,0.0,0.3333,0.0,0.3333,0.0,0
4.64,run,-3.63,5.31,8.6,-6.08,4.93,0.0,0.05,0.0,0.773,-34.72,-31.9,104.06,-5.8,-9.93,92.37,34.54,-39.29,129.55,5.45,-21.36,89.47,-20.3,-56.87,102.04,-20.21,-33.31,94.57,-35.0,-32.8,89.69,2.5,-22.06,103.72,35.0,-30.54,143.25,-0.59,-32.89,76.9,-13.93,-47.56,112.99,-32.0,-36.77,106.72,-1.0,1.0,-1.0,1.0,-0.7792,1.0,1.0,1.0,1.0,-0.5575,-1.0,-1.0,1.0,0.7307,1.0,-1.0,-0.1575,1.0,0.006,0.019,0.0,0.026,0.0,0.033,0.006,0.013,0.039,0.006,0.019,0.013,0.006,0.013,0.006,0.013,0.033,0.006,-0.6059,-0.833,0.4541,-0.135,-0.428,0.224,0.5998,-1.0063,0.859,0.1243,-0.6213,0.2163,-0.3758,-1.2747,0.382,-0.3206,-0.8283,0.2592,0.0073,-0.2708,-0.255,0.2853,-0.2189,0.1307,0.0099,-0.0583,0.2977,-0.2946,-0.132,-0.2508,0.2562,-0.0858,0.2947,-0.3052,-0.2578,0.2987,-0.4095,0.0504,-0.0072,0.029,0.0609,-1.0,1.0,-1.0,1.0,-0.2362,1.0,1.0,1.0,1.0,-0.5026,-1.0,-1.0,1.0,0.7283,1.0,-1.0,0.0103,1.0,0.0,0.0,0.0,0.0,0.0,0.0,0.0,0.0,0.0,0.3333,0.0,0.3333,0.0,0
4.68,run,-3.52,5.37,0.48,0.51,1.19,0.0,0.05,0.0,0.773,-34.89,-33.05,102.57,-4.39,-11.51,93.96,34.54,-38.23,131.13,3.96,-22.24,88.24,-18.98,-55.63,103.62,-21.71,-34.8,95.98,-35.0,-31.3,88.19,4.0,-23.56,105.22,35.0,-29.04,141.75,-2.09,-34.39,75.4,-12.43,-46.06,114.49,-33.5,-38.27,108.22,-1.0,1.0,-1.0,1.0,-1.0,1.0,1.0,1.0,0.8652,-0.4097,-1.0,-1.0,1.0,0.9145,1.0,-1.0,-0.5181,1.0,0.006,0.019,0.0,0.026,0.0,0.033,0.006,0.013,0.039,0.006,0.019,0.013,0.006,0.013,0.006,0.013,0.033,0.006,-0.6075,-0.859,0.4341,-0.112,-0.4541,0.247,0.5998,-0.9848,0.8866,0.0966,-0.6473,0.1933,-0.3513,-1.2609,0.4111,-0.3497,-0.856,0.293,0.0002,-0.2731,-0.2424,0.2734,-0.2368,0.1652,0.0069,0.028,0.2968,-0.2947,-0.1759,-0.2493,0.258,-0.0158,0.2996,-0.307,-0.2689,0.3172,-0.3694,0.0268,0.1502,-0.1061,0.086,-1.0,1.0,-1.0,1.0,-0.7792,1.0,1.0,1.0,1.0,-0.5575,-1.0,-1.0,1.0,0.7307,1.0,-1.0,-0.1575,1.0,0.0,0.0,0.0,0.0,0.0,0.0,0.0,0.0,0.0,0.3333,0.0,0.3333,0.0,0
4.72,run,-3.66,5.47,-4.8,4.19,-5.26,0.0,0.05,0.0,0.773,-34.45,-33.66,101.51,-3.34,-12.48,94.92,34.54,-37.35,132.01,2.99,-23.64,87.19,-17.93,-54.67,104.59,-22.68,-35.77,96.94,-35.0,-29.8,86.69,5.5,-25.06,106.72,35.0,-27.54,140.25,-3.59,-35.89,73.9,-10.93,-44.56,115.99,-35.0,-36.77,109.72,-1.0,1.0,-1.0,1.0,-1.0,1.0,1.0,1.0,0.0988,-0.3055,-1.0,-0.6931,1.0,-0.2452,1.0,-1.0,-0.0394,1.0,0.006,0.019,0.0,0.026,0.0,0.033,0.006,0.013,0.039,0.006,0.019,0.013,0.006,0.013,0.006,0.013,0.033,0.006,-0.6105,-0.879,0.408,-0.0874,-0.4817,0.2746,0.5998,-0.9664,0.9143,0.0706,-0.6627,0.1718,-0.3283,-1.2395,0.4387,-0.3758,-0.882,0.3175,-0.0097,-0.255,-0.2531,0.2699,-0.2541,0.204,0.0048,0.0785,0.2961,-0.2897,-0.1722,-0.2432,0.2542,0.0576,0.2981,-0.2983,-0.2717,0.3005,-0.36,0.0315,0.0084,0.0089,0.0208,-1.0,1.0,-1.0,1.0,-1.0,1.0,1.0,1.0,0.8652,-0.4097,-1.0,-1.0,1.0,0.9145,1.0,-1.0,-0.5181,1.0,0.0,0.0,0.0,0.0,0.0,0.0,0.0,0.0,0.0,0.3333,0.0,0.3333,0.0,0
4.76,run,-3.87,5.64,-6.37,4.16,-3.99,0.0,0.05,0.0,0.773,-34.19,-34.1,100.37,-2.11,-13.45,95.8,34.45,-36.47,132.98,1.85,-24.7,86.13,-16.88,-53.7,105.56,-23.55,-36.56,97.82,-35.0,-28.3,85.19,7.0,-26.56,108.22,35.0,-26.04,138.75,-5.09,-37.39,72.4,-9.43,-46.06,117.49,-35.0,-35.27,111.22,-1.0,1.0,-1.0,1.0,-1.0,1.0,1.0,1.0,-0.68,-0.2374,-1.0,-0.7521,1.0,-1.0,0.6749,-1.0,-0.0532,1.0,0.006,0.0,0.006,0.026,0.0,0.033,0.013,0.033,0.052,0.019,0.013,0.013,0.006,0.019,0.013,0.006,0.013,0.013,-0.6029,-0.8897,0.3896,-0.069,-0.4985,0.2915,0.5998,-0.9511,0.9296,0.0537,-0.6872,0.1534,-0.3099,-1.2226,0.4556,-0.3927,-0.8989,0.3344,0.0244,-0.2221,-0.252,0.2637,-0.2464,0.2113,0.0034,0.1173,0.2696,-0.2714,-0.2203,-0.245,0.2527,0.1089,0.2772,-0.2774,-0.2587,0.279,-0.3722,0.0406,-0.0838,0.0731,-0.0919,-1.0,1.0,-1.0,1.0,-1.0,1.0,1.0,1.0,0.0988,-0.3055,-1.0,-0.6931,1.0,-0.2452,1.0,-1.0,-0.0394,1.0,0.0,0.0,0.0,0.0,0.0,0.0,0.0,0.0,0.0,0.3333,0.0,0.3333,0.0,0
4.8,run,-4.03,5.82,-4.45,4.52,-3.97,0.0,0.05,0.0,0.773,-33.66,-34.19,99.14,-0.88,-14.5,96.94,34.1,-35.51,134.03,0.44,-25.66,84.99,-15.64,-52.56,106.7,-24.7,-37.09,98.96,-35.0,-26.8,83.69,8.5,-28.06,109.72,35.0,-24.54,137.25,-3.59,-38.89,73.9,-7.93,-47.56,115.99,-35.0,-33.77,112.72,-1.0,1.0,-1.0,1.0,-1.0,1.0,1.0,1.0,-1.0,-0.0025,-1.0,0.1787,1.0,-1.0,-0.6476,-1.0,-0.1444,1.0,0.006,0.0,0.006,0.026,0.0,0.033,0.013,0.033,0.052,0.019,0.013,0.013,0.006,0.019,0.013,0.006,0.013,0.013,-0.5983,-0.8974,0.3697,-0.0476,-0.5154,0.3068,0.5983,-0.9357,0.9465,0.0337,-0.7056,0.135,-0.2915,-1.2057,0.4725,-0.408,-0.9127,0.3497,0.0345,-0.1844,-0.2517,0.2657,-0.2362,0.2058,-0.0034,0.14,0.2524,-0.2652,-0.2237,-0.241,0.2464,0.1399,0.2578,-0.2521,-0.2332,0.2532,-0.3904,0.0552,-0.1111,0.0727,-0.0696,-1.0,1.0,-1.0,1.0,-1.0,1.0,1.0,1.0,-0.68,-0.2374,-1.0,-0.7521,1.0,-1.0,0.6749,-1.0,-0.0532,1.0,0.0,0.0,0.0,0.0,0.0,0.0,0.0,0.0,0.0,0.3333,0.0,0.3333,0.0,0
4.84,run,-4.04,5.88,-0.59,1.93,-4.53,0.0,0.05,0.0,0.773,-33.22,-34.1,98.09,0.26,-15.38,97.82,33.49,-34.63,134.74,-0.53,-26.54,83.94,-14.68,-51.68,107.58,-25.49,-37.27,99.58,-35.0,-25.3,82.19,10.0,-29.56,111.22,35.0,-23.04,135.75,-2.09,-40.39,75.4,-6.43,-49.06,114.49,-35.0,-35.27,114.22,-1.0,1.0,-1.0,1.0,-1.0,1.0,1.0,1.0,-1.0,0.3765,-1.0,0.8534,1.0,-1.0,-1.0,-1.0,-0.4392,1.0,0.006,0.0,0.006,0.026,0.0,0.033,0.013,0.033,0.052,0.019,0.013,0.013,0.006,0.019,0.013,0.006,0.013,0.013,-0.589,-0.8989,0.3482,-0.0261,-0.5338,0.3267,0.5921,-0.9189,0.9649,0.0092,-0.7225,0.115,-0.27,-1.1858,0.4924,-0.428,-0.9219,0.3697,0.0585,-0.1348,-0.2563,0.2661,-0.234,0.2185,-0.0253,0.1609,0.2454,-0.2772,-0.2195,-0.2431,0.2526,0.1723,0.2548,-0.2509,-0.1976,0.2516,-0.4045,0.0712,-0.0777,0.0788,-0.0692,-1.0,1.0,-1.0,1.0,-1.0,1.0,1.0,1.0,-1.0,-0.0025,-1.0,0.1787,1.0,-1.0,-0.6476,-1.0,-0.1444,1.0,0.0,0.0,0.0,0.0,0.0,0.0,0.0,0.0,0.0,0.3333,0.0,0.3333,0.0,0
4.88,run,-4.0,5.98,0.37,2.4,-4.94,0.0,0.05,0.0,0.773,-32.61,-33.31,96.94,1.23,-16.26,98.53,32.96,-33.66,135.0,-1.41,-27.51,82.79,-13.54,-50.8,108.37,-26.37,-37.18,100.72,-35.0,-23.8,80.69,8.5,-31.06,112.72,35.0,-21.54,134.25,-0.59,-41.89,76.9,-4.93,-50.56,112.99,-35.0,-36.77,115.72,-1.0,1.0,-1.0,-0.3546,-1.0,1.0,1.0,0.9913,-1.0,0.58,-1.0,1.0,1.0,-0.6216,-1.0,-1.0,-0.8347,1.0,0.006,0.013,0.013,0.033,0.006,0.013,0.019,0.111,0.156,0.006,0.019,0.006,0.013,0.026,0.013,0.013,0.006,0.013,-0.5814,-0.8974,0.3298,-0.0061,-0.5492,0.3421,0.5814,-0.9035,0.9771,-0.0077,-0.7378,0.0966,-0.2531,-1.1704,0.5077,-0.4418,-0.925,0.3804,0.0696,-0.0886,-0.2483,0.261,-0.2213,0.2104,-0.0579,0.1701,0.2177,-0.2573,-0.2111,-0.2391,0.24,0.1781,0.2358,-0.2273,-0.1498,0.2163,-0.4049,0.0761,-0.0102,0.0336,-0.0791,-1.0,1.0,-1.0,1.0,-1.0,1.0,1.0,1.0,-1.0,0.3765,-1.0,0.8534,1.0,-1.0,-1.0,-1.0,-0.4392,1.0,0.0,0.0,0.0,0.0,0.0,0.0,0.0,0.0,0.0,0.3333,0.0,0.3333,0.0,0
4.92,run,-3.9,6.07,1.19,2.4,-6.75,0.0,0.05,0.0,0.773,-32.17,-32.34,95.8,2.46,-17.23,99.67,32.61,-32.52,135.0,-1.93,-28.56,81.56,-12.3,-50.1,109.6,-27.42,-36.83,101.78,-35.0,-22.3,79.19,7.0,-32.56,114.22,35.0,-23.04,132.75,0.91,-43.39,78.4,-3.43,-49.06,111.49,-35.0,-38.27,117.22,-1.0,1.0,-0.2859,-1.0,-1.0,1.0,1.0,-0.3516,-1.0,1.0,-1.0,1.0,1.0,0.3398,-0.8524,-1.0,-1.0,1.0,0.006,0.013,0.013,0.033,0.006,0.013,0.019,0.111,0.156,0.006,0.019,0.006,0.013,0.026,0.013,0.013,0.006,0.013,-0.5706,-0.8836,0.3099,0.0107,-0.5645,0.3543,0.5722,-0.8866,0.9817,-0.023,-0.7547,0.0767,-0.2332,-1.1551,0.5216,-0.4571,-0.9235,0.4004,0.0891,-0.0102,-0.2487,0.246,-0.2125,0.1934,-0.0751,0.1824,0.1697,-0.2377,-0.2112,-0.2423,0.2429,0.1823,0.2169,-0.2167,-0.0991,0.2263,-0.4019,0.0849,0.0065,0.0419,-0.0862,-1.0,1.0,-1.0,-0.3546,-1.0,1.0,1.0,0.9913,-1.0,0.58,-1.0,1.0,1.0,-0.6216,-1.0,-1.0,-0.8347,1.0,0.0,0.0,0.0,0.0,0.0,0.0,0.0,0.0,0.0,0.3333,0.0,0.3333,0.0,0
4.96,run,-4.03,6.09,-3.97,3.17,-4.01,0.0,0.05,0.0,0.773,-32.78,-31.03,94.39,3.87,-18.46,100.99,32.52,-31.2,135.0,-2.02,-29.88,80.24,-10.9,-49.57,110.92,-28.74,-36.65,103.1,-34.78,-20.8,80.69,5.5,-34.06,115.72,35.0,-24.54,131.25,2.41,-44.89,79.9,-1.93,-47.56,109.99,-35.0,-39.77,118.72,-0.9938,1.0,0.7252,-1.0,-1.0,1.0,1.0,-0.8929,-1.0,1.0,-1.0,1.0,1.0,1.0,-0.5475,-1.0,-0.9418,1.0,0.006,0.013,0.013,0.033,0.006,0.013,0.019,0.111,0.156,0.006,0.019,0.006,0.013,0.026,0.013,0.013,0.006,0.013,-0.563,-0.8667,0.2899,0.0322,-0.5814,0.3743,0.566,-0.8667,0.9817,-0.0322,-0.7731,0.0552,-0.2117,-1.1428,0.543,-0.4755,-0.9173,0.4188,0.091,0.056,-0.2487,0.2525,-0.2118,0.2099,-0.0755,0.2023,0.1188,-0.2008,-0.2166,-0.2499,0.2503,0.1735,0.2321,-0.2205,-0.0464,0.2273,-0.3931,0.0927,0.0208,0.0419,-0.1179,-1.0,1.0,-0.2859,-1.0,-1.0,1.0,1.0,-0.3516,-1.0,1.0,-1.0,1.0,1.0,0.3398,-0.8524,-1.0,-1.0,1.0,0.0,0.0,0.0,0.0,0.0,0.0,0.0,0.0,0.0,0.3333,0.0,0.3333,0.0,0
5.0,run,-4.23,6.29,-5.92,4.71,-4.36,0.0,0.05,0.0,0.773,-33.4,-29.53,92.99,5.1,-19.69,102.57,32.61,-29.79,135.0,-1.76,-31.29,79.1,-9.49,-49.48,111.88,-30.23,-36.83,104.41,-33.28,-19.3,82.19,4.0,-35.56,117.22,35.0,-26.04,129.75,3.91,-46.39,81.4,-0.43,-46.06,108.49,-35.0,-41.27,120.22,-0.5405,1.0,1.0,-1.0,-0.6969,1.0,1.0,-1.0,-1.0,1.0,-1.0,1.0,0.2203,1.0,-1.0,-1.0,-1.0,1.0,0.006,0.013,0.019,0.013,0.019,0.026,0.013,0.149,0.006,0.013,0.019,0.0,0.013,0.078,0.006,0.019,0.006,0.019,-0.5737,-0.8437,0.2654,0.0568,-0.6029,0.3973,0.5645,-0.8437,0.9817,-0.0337,-0.7961,0.0322,-0.1871,-1.1336,0.566,-0.4985,-0.9143,0.4418,0.0234,0.1256,-0.2663,0.269,-0.229,0.2334,-0.0586,0.2281,0.0831,-0.1463,-0.2381,-0.2614,0.2675,0.156,0.249,-0.2409,-0.021,0.2456,-0.4041,0.095,-0.0693,0.0554,-0.0699,-0.9938,1.0,0.7252,-1.0,-1.0,1.0,1.0,-0.8929,-1.0,1.0,-1.0,1.0,1.0,1.0,-0.5475,-1.0,-0.9418,1.0,0.0,0.0,0.0,0.0,0.0,0.0,0.0,0.0,0.0,0.3333,0.0,0.3333,0.0,0
5.04,run,-4.23,6.32,-0.36,2.23,-2.84,0.0,0.048,0.0,0.773,-34.1,-28.12,91.67,5.89,-20.83,104.06,32.87,-28.65,135.0,-0.97,-32.7,78.49,-8.0,-48.6,112.5,-31.55,-36.91,105.73,-31.78,-17.8,83.69,2.5,-37.06,118.72,35.0,-27.54,128.25,5.41,-47.89,82.9,-1.93,-44.56,106.99,-35.0,-42.77,118.72,0.0494,1.0,1.0,-1.0,-0.4833,1.0,1.0,-1.0,-1.0,1.0,-1.0,1.0,-0.8912,1.0,-1.0,-1.0,-1.0,0.0468,0.006,0.013,0.019,0.013,0.019,0.026,0.013,0.149,0.006,0.013,0.019,0.0,0.013,0.078,0.006,0.019,0.006,0.019,-0.5844,-0.8176,0.2408,0.0782,-0.6243,0.4249,0.566,-0.8191,0.9817,-0.0291,-0.8207,0.0123,-0.1626,-1.1321,0.5829,-0.5246,-0.9173,0.4648,-0.0239,0.1857,-0.2784,0.2688,-0.2408,0.2669,-0.0353,0.2517,0.0582,-0.0852,-0.2587,-0.2577,0.2792,0.115,0.2375,-0.2664,-0.0262,0.2581,-0.4212,0.1124,-0.1034,0.0823,-0.076,-0.5405,1.0,1.0,-1.0,-0.6969,1.0,1.0,-1.0,-1.0,1.0,-1.0,1.0,0.2203,1.0,-1.0,-1.0,-1.0,1.0,0.0,0.0,0.0,0.0,0.0,0.0,0.0,0.0,0.0,0.32,0.0,0.32,0.0,0
5.08,run,-4.33,6.4,-3.0,2.87,-1.42,0.0,0.046,0.0,0.773,-34.28,-26.81,90.09,6.59,-22.41,105.47,33.75,-27.77,134.21,-0.26,-34.1,77.87,-6.68,-47.46,112.85,-32.87,-37.71,107.14,-30.28,-16.3,85.19,1.0,-38.56,117.22,35.0,-29.04,126.75,6.91,-49.39,84.4,-3.43,-43.06,105.49,-35.0,-44.27,117.22,0.7617,1.0,1.0,-1.0,-1.0,-0.8971,1.0,-1.0,-1.0,1.0,-1.0,1.0,-1.0,1.0,-1.0,-1.0,-1.0,-1.0,0.006,0.013,0.019,0.013,0.019,0.026,0.013,0.149,0.006,0.013,0.019,0.0,0.013,0.078,0.006,0.019,0.006,0.019,-0.5967,-0.7931,0.2178,0.092,-0.6443,0.451,0.5706,-0.7992,0.9817,-0.0153,-0.8452,0.0015,-0.1365,-1.1167,0.5937,-0.5476,-0.9189,0.4878,-0.0633,0.223,-0.2821,0.2405,-0.2442,0.2857,-0.0073,0.2518,0.0407,-0.0073,-0.2741,-0.2211,0.2943,0.1386,0.207,-0.2737,-0.0241,0.2679,-0.4214,0.115,-0.0063,0.0388,-0.0497,0.0494,1.0,1.0,-1.0,-0.4833,1.0,1.0,-1.0,-1.0,1.0,-1.0,1.0,-0.8912,1.0,-1.0,-1.0,-1.0,0.0468,0.0,0.0,0.0,0.0,0.0,0.0,0.0,0.0,0.0,0.3067,0.0,0.3067,0.0,0
