t_s,phase,roll_deg,pitch_deg,gyro_x_dps,gyro_y_dps,gyro_z_dps,height_ref_mm,vx_ref_mps,vy_ref_mps,max_cur_a,q0_deg,q1_deg,q2_deg,q3_deg,q4_deg,q5_deg,q6_deg,q7_deg,q8_deg,q9_deg,q10_deg,q11_deg,q12_deg,q13_deg,q14_deg,q15_deg,q16_deg,q17_deg,cmd0_deg,cmd1_deg,cmd2_deg,cmd3_deg,cmd4_deg,cmd5_deg,cmd6_deg,cmd7_deg,cmd8_deg,cmd9_deg,cmd10_deg,cmd11_deg,cmd12_deg,cmd13_deg,cmd14_deg,cmd15_deg,cmd16_deg,cmd17_deg,act0,act1,act2,act3,act4,act5,act6,act7,act8,act9,act10,act11,act12,act13,act14,act15,act16,act17,cur0_a,cur1_a,cur2_a,cur3_a,cur4_a,cur5_a,cur6_a,cur7_a,cur8_a,cur9_a,cur10_a,cur11_a,cur12_a,cur13_a,cur14_a,cur15_a,cur16_a,cur17_a,obs0,obs1,obs2,obs3,obs4,obs5,obs6,obs7,obs8,obs9,obs10,obs11,obs12,obs13,obs14,obs15,obs16,obs17,obs18,obs19,obs20,obs21,obs22,obs23,obs24,obs25,obs26,obs27,obs28,obs29,obs30,obs31,obs32,obs33,obs34,obs35,obs36,obs37,obs38,obs39,obs40,obs41,obs42,obs43,obs44,obs45,obs46,obs47,obs48,obs49,obs50,obs51,obs52,obs53,obs54,obs55,obs56,obs57,obs58,obs59,obs60,obs61,obs62,obs63,obs64,obs65,obs66,obs67,obs68,obs69,obs70,obs71,rot60_k
0.0,run,2.36,2.03,0.02,0.44,-0.78,0.0,-0.0,0.0,0.513,-0.44,18.19,79.1,-0.18,15.38,77.96,0.35,16.0,78.57,0.35,15.82,78.4,0.09,17.93,79.1,-0.09,17.31,77.7,-1.94,16.69,77.69,-1.76,13.88,79.72,1.85,14.5,80.34,1.94,14.32,79.99,1.59,16.87,77.6,-1.59,15.9,79.2,-1.0,-1.0,-0.4755,-1.0,-1.0,1.0,1.0,-1.0,1.0,1.0,-1.0,1.0,0.3634,-1.0,-0.0957,-1.0,-1.0,1.0,0.006,0.033,0.006,0.006,0.065,0.026,0.013,0.513,0.013,0.013,0.091,0.026,0.006,0.052,0.019,0.006,0.019,0.006,0.0,0.0,-0.0015,-0.0015,0.0,-0.0046,0.0,0.0,-0.0046,0.0,0.0,-0.0031,-0.0015,-0.0077,0.0,0.0,-0.0015,0.0,0.002,0.0,-0.0037,-0.0037,0.0,-0.007,0.0,0.0,-0.008,0.0,0.0,-0.0053,-0.0047,-0.0153,0.002,0.0,-0.0037,0.001,0.0,0.0,0.0111,0.0053,-0.0134,0.0,0.0,0.0,0.0,0.0,0.0,0.0,0.0,0.0,0.0,0.0,0.0,0.0,0.0,0.0,0.0,0.0,0.0,0.0,0.0,0.0,0.0,0.0,0.0,0.0,0.0,0.0,-0.0,0.0,-0.0,0.0,0
0.04,run,2.35,2.03,-0.82,0.5,0.17,0.0,-0.0,0.0,0.513,-0.44,18.19,79.1,-0.18,15.38,77.96,0.35,16.0,78.57,0.35,15.82,78.4,0.09,17.93,79.01,-0.09,17.31,77.7,-3.44,18.19,79.19,-3.26,12.38,81.22,0.35,13.0,78.84,3.44,12.82,81.49,0.09,15.37,79.1,-3.09,14.4,80.7,-1.0,1.0,1.0,-1.0,-1.0,1.0,-1.0,-1.0,-1.0,1.0,-1.0,1.0,-0.7805,-0.0045,1.0,-1.0,-1.0,1.0,0.006,0.033,0.006,0.006,0.065,0.026,0.013,0.513,0.013,0.013,0.091,0.026,0.006,0.052,0.019,0.006,0.019,0.006,0.0,0.0,-0.0015,0.0015,0.0,-0.0046,0.0,0.0,-0.0046,-0.0015,0.0,-0.0015,0.0,-0.0077,0.0,0.0,-0.0015,0.0,0.0014,0.0,-0.0026,0.0025,0.0,-0.0049,0.0,0.0,-0.0056,-0.0025,0.0,-0.0012,-0.0008,-0.0107,0.0014,0.0,-0.0026,0.0007,-0.0005,0.0034,0.0003,0.0077,-0.0135,-1.0,-1.0,-0.4755,-1.0,-1.0,1.0,1.0,-1.0,1.0,1.0,-1.0,1.0,0.3634,-1.0,-0.0957,-1.0,-1.0,1.0,0.0,0.0,0.0,0.0,0.0,0.0,0.0,0.0,0.0,-0.0,0.0,-0.0,0.0,0
0.08,run,2.37,2.01,0.18,-0.16,-0.31,0.0,-0.0,0.0,0.513,-0.44,18.19,79.1,-0.18,15.38,77.96,0.35,16.0,78.57,0.35,15.82,78.4,0.0,17.93,79.01,0.0,17.31,77.7,-4.94,19.69,77.69,-4.76,10.88,82.72,-1.15,14.5,80.34,4.94,11.32,82.99,-1.41,16.87,80.6,-4.59,12.9,82.2,-0.3619,1.0,0.1221,-1.0,-1.0,0.9064,-1.0,1.0,1.0,1.0,-1.0,1.0,-0.8331,1.0,1.0,-1.0,-1.0,1.0,0.006,0.033,0.006,0.006,0.065,0.026,0.013,0.513,0.013,0.013,0.091,0.026,0.006,0.052,0.019,0.006,0.019,0.006,0.0,0.0,-0.0015,0.0015,0.0,-0.0046,0.0,0.0,-0.0046,-0.0015,0.0,-0.0015,0.0,-0.0077,-0.0015,0.0,-0.0015,0.0,0.001,0.0,-0.0018,0.0017,0.0,-0.0034,0.0,0.0,-0.0039,-0.0018,0.0,-0.0009,-0.0005,-0.0075,-0.0048,0.0,-0.0018,0.0005,-0.0017,0.0039,-0.0142,0.0087,0.003,-1.0,1.0,1.0,-1.0,-1.0,1.0,-1.0,-1.0,-1.0,1.0,-1.0,1.0,-0.7805,-0.0045,1.0,-1.0,-1.0,1.0,0.0,0.0,0.0,0.0,0.0,0.0,0.0,0.0,0.0,-0.0,0.0,-0.0,0.0,0
0.12,run,2.35,2.01,-0.28,-0.59,-2.3,0.0,-0.0,0.0,0.513,-0.62,18.19,79.1,-0.18,15.38,78.05,0.18,16.0,78.57,0.35,15.82,78.4,-0.09,17.93,79.19,-0.26,17.31,77.7,-6.44,21.19,76.19,-6.26,9.38,84.22,-2.65,14.98,81.84,6.44,9.82,84.49,0.09,15.37,79.1,-6.09,11.4,83.7,-1.0,1.0,0.0681,-1.0,-1.0,1.0,-1.0,0.7268,1.0,1.0,-1.0,1.0,0.9579,0.3445,-1.0,-1.0,-1.0,1.0,0.0,0.065,0.0,0.006,0.019,0.058,0.026,0.292,0.039,0.006,0.026,0.104,0.026,0.0,0.013,0.013,0.0,0.019,0.0,0.0,-0.0015,0.0015,0.0,-0.0046,0.0,0.0,-0.0046,-0.0015,0.0,-0.0015,-0.0015,-0.0077,-0.0015,0.0015,-0.0015,0.0,0.0007,0.0,-0.0013,0.0012,0.0,-0.0024,0.0,0.0,-0.0027,-0.0012,0.0,-0.0006,-0.0061,-0.0053,-0.0034,0.0057,-0.0013,0.0003,0.0004,0.0021,0.0031,-0.0027,-0.0054,-0.3619,1.0,0.1221,-1.0,-1.0,0.9064,-1.0,1.0,1.0,1.0,-1.0,1.0,-0.8331,1.0,1.0,-1.0,-1.0,1.0,0.0,0.0,0.0,0.0,0.0,0.0,0.0,0.0,0.0,-0.0,0.0,-0.0,0.0,0
0.16,run,2.2,2.07,-3.61,0.81,-6.48,0.0,-0.0,0.0,0.513,-1.14,18.28,79.01,-0.44,15.38,78.57,-0.26,16.0,78.66,0.88,15.82,78.84,-0.44,17.58,79.63,-0.79,17.23,78.31,-7.94,22.69,74.69,-7.76,7.88,85.72,-4.15,13.48,80.34,7.94,8.32,85.99,1.59,13.87,80.6,-7.59,9.9,85.2,-1.0,1.0,-0.3417,-1.0,-1.0,1.0,-0.4963,-0.1169,-0.5191,1.0,-1.0,1.0,1.0,0.6712,1.0,-1.0,-1.0,1.0,0.0,0.065,0.0,0.006,0.019,0.058,0.026,0.292,0.039,0.006,0.026,0.104,0.026,0.0,0.013,0.013,0.0,0.019,-0.0031,0.0,-0.0015,0.0015,0.0,-0.0031,-0.0031,0.0,-0.0046,-0.0015,0.0,-0.0015,-0.0031,-0.0077,0.0015,-0.0031,-0.0015,0.0,-0.0111,0.0,-0.0009,0.0008,0.0,0.0041,-0.0116,0.0,-0.0019,-0.0009,0.0,-0.0004,-0.01,-0.0037,0.0092,-0.0134,-0.0009,0.0002,-0.0018,0.0016,-0.0049,-0.0103,-0.0402,-1.0,1.0,0.0681,-1.0,-1.0,1.0,-1.0,0.7268,1.0,1.0,-1.0,1.0,0.9579,0.3445,-1.0,-1.0,-1.0,1.0,0.0,0.0,0.0,0.0,0.0,0.0,0.0,0.0,0.0,-0.0,0.0,-0.0,0.0,0
0.2,run,1.97,2.27,-5.33,3.19,-6.87,0.0,-0.0,0.0,0.513,-1.93,18.63,78.49,-1.05,15.29,79.37,-0.88,16.0,79.19,1.49,15.64,79.63,-0.18,16.79,79.37,-1.58,16.7,78.93,-9.44,24.19,76.19,-9.26,6.38,87.22,-5.65,14.98,81.84,9.44,6.82,87.49,3.09,12.37,82.1,-9.09,8.4,86.7,-1.0,1.0,0.8408,-1.0,-1.0,1.0,-1.0,1.0,0.6858,1.0,-1.0,1.0,1.0,-0.7477,1.0,-1.0,-1.0,1.0,0.0,0.065,0.0,0.006,0.019,0.058,0.026,0.292,0.039,0.006,0.026,0.104,0.026,0.0,0.013,0.013,0.0,0.019,-0.0123,0.0015,-0.0031,-0.0031,0.0,0.0061,-0.0107,0.0,-0.0031,0.0077,0.0,0.0061,-0.0092,-0.0138,0.0092,-0.0123,-0.0031,0.0107,-0.0424,0.0058,-0.0064,-0.0167,0.0,0.0375,-0.037,0.0,0.0044,0.0341,0.0,0.0286,-0.0301,-0.0257,0.0353,-0.044,-0.0064,0.0406,-0.0148,0.0071,-0.063,0.0142,-0.1131,-1.0,1.0,-0.3417,-1.0,-1.0,1.0,-0.4963,-0.1169,-0.5191,1.0,-1.0,1.0,1.0,0.6712,1.0,-1.0,-1.0,1.0,0.0,0.0,0.0,0.0,0.0,0.0,0.0,0.0,0.0,-0.0,0.0,-0.0,0.0,0
0.24,run,1.77,2.38,-5.11,1.24,-1.24,0.0,-0.0,0.0,0.513,-2.55,18.98,77.52,-1.76,14.68,80.16,-1.49,15.91,79.72,2.37,14.94,80.42,0.0,16.17,79.19,-2.29,16.0,79.54,-7.94,25.69,74.69,-10.76,4.88,88.72,-4.15,13.48,80.34,10.94,5.32,88.99,4.59,10.87,83.6,-10.59,6.9,88.2,-0.0623,1.0,-0.1439,-1.0,-0.4258,1.0,0.469,-1.0,0.0141,1.0,-1.0,1.0,0.8836,-0.1985,1.0,-1.0,-1.0,1.0,0.006,0.111,0.006,0.006,0.0,0.071,0.039,0.013,0.058,0.019,0.0,0.123,0.019,0.0,0.006,0.013,0.0,0.039,-0.0261,0.0077,-0.0123,-0.0138,-0.0015,0.0199,-0.0215,0.0,0.0061,0.0184,-0.0031,0.0199,-0.0046,-0.0276,0.0046,-0.0261,-0.0123,0.0215,-0.0809,0.0268,-0.0386,-0.0515,-0.0057,0.0775,-0.0657,0.0,0.0372,0.0637,-0.0114,0.0712,-0.004,-0.0692,0.0077,-0.082,-0.0386,0.0683,-0.0349,0.0246,-0.093,0.0556,-0.1199,-1.0,1.0,0.8408,-1.0,-1.0,1.0,-1.0,1.0,0.6858,1.0,-1.0,1.0,1.0,-0.7477,1.0,-1.0,-1.0,1.0,0.0,0.0,0.0,0.0,0.0,0.0,0.0,0.0,0.0,-0.0,0.0,-0.0,0.0,0
0.28,run,1.4,2.39,-8.17,0.77,-3.68,0.0,-0.0,0.0,0.513,-3.78,19.78,76.2,-2.81,13.8,81.3,-2.37,15.03,80.24,3.43,14.06,81.47,1.32,15.12,79.63,-3.43,15.03,80.6,-6.44,27.19,76.19,-12.26,3.38,90.22,-5.65,11.98,78.84,12.44,3.82,90.49,6.09,12.37,85.1,-12.09,5.4,89.7,0.7872,1.0,1.0,-1.0,-1.0,0.9083,-1.0,0.421,-1.0,1.0,-1.0,1.0,1.0,0.7615,1.0,-1.0,-1.0,1.0,0.006,0.111,0.006,0.006,0.0,0.071,0.039,0.013,0.058,0.019,0.0,0.123,0.019,0.0,0.006,0.013,0.0,0.039,-0.0368,0.0138,-0.0291,-0.0261,-0.0123,0.0337,-0.0322,-0.0015,0.0153,0.0337,-0.0153,0.0337,-0.0015,-0.0383,0.0015,-0.0383,-0.0245,0.0322,-0.0971,0.0419,-0.0906,-0.0823,-0.0444,0.1063,-0.0865,-0.0058,0.0607,0.1024,-0.0542,0.1019,0.0087,-0.0889,-0.0062,-0.1037,-0.0733,0.0882,-0.0523,0.034,-0.0893,0.0217,-0.0217,-0.0623,1.0,-0.1439,-1.0,-0.4258,1.0,0.469,-1.0,0.0141,1.0,-1.0,1.0,0.8836,-0.1985,1.0,-1.0,-1.0,1.0,0.0,0.0,0.0,0.0,0.0,0.0,0.0,0.0,0.0,-0.0,0.0,-0.0,0.0,0
0.32,run,1.13,2.3,-7.51,-2.37,-1.68,0.0,-0.0,0.0,0.513,-4.83,20.48,75.67,-3.78,12.83,82.53,-3.08,13.97,80.42,4.48,12.92,82.79,1.85,13.97,80.07,-4.48,13.97,81.65,-4.94,28.69,74.69,-13.76,1.88,91.72,-4.15,13.48,80.34,13.94,2.32,91.99,7.59,13.87,86.6,-13.59,3.9,91.2,0.1275,1.0,-0.3127,-1.0,-1.0,1.0,-0.1117,1.0,0.9532,1.0,-1.0,1.0,1.0,1.0,0.8497,-1.0,-1.0,1.0,0.006,0.111,0.006,0.006,0.0,0.071,0.039,0.013,0.058,0.019,0.0,0.123,0.019,0.0,0.006,0.013,0.0,0.039,-0.0583,0.0276,-0.0522,-0.0445,-0.0276,0.0537,-0.0476,-0.0169,0.0245,0.0522,-0.0307,0.0522,0.0215,-0.0568,0.0092,-0.0583,-0.0414,0.0506,-0.14,0.0756,-0.1406,-0.1194,-0.0826,0.1413,-0.112,-0.0555,0.0734,0.1334,-0.0894,0.1331,0.0833,-0.124,0.0214,-0.1395,-0.1079,0.1235,-0.0842,0.0353,-0.1427,0.0134,-0.0642,0.7872,1.0,1.0,-1.0,-1.0,0.9083,-1.0,0.421,-1.0,1.0,-1.0,1.0,1.0,0.7615,1.0,-1.0,-1.0,1.0,0.0,0.0,0.0,0.0,0.0,0.0,0.0,0.0,0.0,-0.0,0.0,-0.0,0.0,0
0.36,run,0.87,2.13,-8.16,-2.9,-3.13,0.0,-0.0,0.0,0.513,-5.62,21.45,75.06,-5.1,11.51,84.11,-3.96,13.01,80.6,5.89,11.6,84.2,3.25,13.27,80.95,-5.98,12.66,83.06,-6.44,30.0,76.19,-15.26,0.38,93.22,-5.65,14.98,81.84,15.44,0.82,93.49,9.09,12.37,88.1,-15.09,2.4,92.7,-0.726,1.0,0.9637,-1.0,-0.8865,1.0,-0.2805,1.0,0.3322,1.0,-1.0,1.0,1.0,0.0987,0.3061,-1.0,-1.0,1.0,0.006,0.169,0.0,0.019,0.0,0.033,0.019,0.006,0.0,0.019,0.0,0.078,0.019,0.0,0.026,0.026,0.0,0.033,-0.0767,0.0399,-0.0614,-0.0614,-0.0445,0.0752,-0.0598,-0.0353,0.0276,0.0706,-0.0506,0.0752,0.0307,-0.0767,0.0169,-0.0767,-0.0598,0.069,-0.1763,0.1051,-0.1376,-0.1553,-0.1295,0.1902,-0.1306,-0.1171,0.0644,0.1717,-0.1474,0.191,0.0975,-0.1716,0.0476,-0.1759,-0.1538,0.1647,-0.1077,0.0275,-0.1311,-0.0414,-0.0293,0.1275,1.0,-0.3127,-1.0,-1.0,1.0,-0.1117,1.0,0.9532,1.0,-1.0,1.0,1.0,1.0,0.8497,-1.0,-1.0,1.0,0.0,0.0,0.0,0.0,0.0,0.0,0.0,0.0,0.0,-0.0,0.0,-0.0,0.0,0
0.4,run,0.52,1.96,-11.01,-3.34,1.04,0.0,-0.0,0.0,0.513,-6.15,22.76,74.88,-5.98,10.2,85.61,-4.57,12.3,80.51,7.12,10.11,85.69,4.57,12.39,82.0,-7.38,11.25,84.46,-7.94,28.5,77.69,-16.76,-1.12,94.72,-4.15,16.48,80.34,16.94,-0.68,94.99,10.59,13.87,89.6,-16.59,0.9,94.2,-1.0,-0.1042,0.4889,-1.0,0.3771,1.0,0.1198,1.0,-0.4583,1.0,-1.0,1.0,1.0,1.0,0.9767,-1.0,-1.0,1.0,0.006,0.169,0.0,0.019,0.0,0.033,0.019,0.006,0.0,0.019,0.0,0.078,0.019,0.0,0.026,0.026,0.0,0.033,-0.0905,0.0568,-0.0721,-0.0844,-0.0675,0.1028,-0.0752,-0.0522,0.0307,0.0951,-0.0736,0.0997,0.0552,-0.089,0.0322,-0.1028,-0.0828,0.0936,-0.1754,0.1372,-0.1368,-0.1955,-0.1774,0.2372,-0.1492,-0.1456,0.0567,0.2127,-0.1899,0.2262,0.1607,-0.1664,0.0911,-0.2214,-0.1944,0.2078,-0.1309,0.0127,-0.1424,-0.0507,-0.0547,-0.726,1.0,0.9637,-1.0,-0.8865,1.0,-0.2805,1.0,0.3322,1.0,-1.0,1.0,1.0,0.0987,0.3061,-1.0,-1.0,1.0,0.0,0.0,0.0,0.0,0.0,0.0,0.0,0.0,0.0,-0.0,0.0,-0.0,0.0,0
0.44,run,0.58,1.54,1.01,-10.03,1.05,0.0,-0.0,0.0,0.513,-6.42,23.99,74.79,-7.56,8.79,87.1,-4.92,11.87,80.51,8.61,8.79,87.19,5.89,12.04,83.32,-8.79,9.93,85.96,-9.44,27.0,76.19,-18.26,-2.62,93.22,-5.65,17.98,81.84,18.44,-2.18,96.49,12.09,12.37,88.96,-18.09,-0.6,95.7,-1.0,-0.5652,0.0781,-1.0,0.2488,-0.9711,-0.7723,1.0,1.0,1.0,-1.0,1.0,1.0,-0.5045,0.2819,-1.0,-1.0,1.0,0.006,0.169,0.0,0.019,0.0,0.033,0.019,0.006,0.0,0.019,0.0,0.078,0.019,0.0,0.026,0.026,0.0,0.033,-0.0997,0.0798,-0.0752,-0.0997,-0.0905,0.1289,-0.0859,-0.0644,0.0291,0.1166,-0.0997,0.1258,0.0782,-0.1043,0.0506,-0.1273,-0.1074,0.1181,-0.1573,0.1823,-0.1072,-0.1943,-0.2105,0.2638,-0.1447,-0.1479,0.0339,0.2294,-0.2307,0.2561,0.1988,-0.174,0.1328,-0.247,-0.2281,0.2375,-0.1614,-0.002,-0.1922,-0.0583,0.0182,-1.0,-0.1042,0.4889,-1.0,0.3771,1.0,0.1198,1.0,-0.4583,1.0,-1.0,1.0,1.0,1.0,0.9767,-1.0,-1.0,1.0,0.0,0.0,0.0,0.0,0.0,0.0,0.0,0.0,0.0,-0.0,0.0,-0.0,0.0,0
0.48,run,0.32,1.35,-6.27,-3.93,-0.14,0.0,-0.0,0.0,0.513,-7.21,24.87,75.06,-9.14,7.47,88.59,-5.01,11.51,80.51,9.76,7.38,88.77,7.38,12.04,84.73,-10.28,8.61,87.45,-10.94,25.5,77.69,-19.76,-1.12,94.72,-4.15,19.48,83.34,19.94,-3.68,97.99,13.59,13.87,87.46,-19.59,-2.1,97.2,-1.0,-1.0,0.6517,-1.0,0.474,1.0,0.0113,1.0,0.2229,1.0,-1.0,1.0,0.7565,1.0,-0.119,-1.0,-1.0,1.0,0.013,0.208,0.019,0.019,0.013,0.026,0.006,0.026,0.013,0.045,0.0,0.033,0.019,0.033,0.039,0.013,0.013,0.026,-0.1043,0.1012,-0.0767,-0.1273,-0.115,0.1549,-0.092,-0.0721,0.0291,0.1427,-0.1227,0.1519,0.1012,-0.1104,0.0736,-0.1519,-0.1304,0.1442,-0.1274,0.2082,-0.0808,-0.2396,-0.2394,0.2825,-0.1243,-0.1323,0.0237,0.2584,-0.2478,0.2771,0.2255,-0.1448,0.1793,-0.265,-0.246,0.2641,-0.1557,-0.0388,0.0176,-0.1751,0.0183,-1.0,-0.5652,0.0781,-1.0,0.2488,-0.9711,-0.7723,1.0,1.0,1.0,-1.0,1.0,1.0,-0.5045,0.2819,-1.0,-1.0,1.0,0.0,0.0,0.0,0.0,0.0,0.0,0.0,0.0,0.0,-0.0,0.0,-0.0,0.0,0
0.52,run,0.16,1.18,-3.75,-4.74,10.62,0.0,-0.0,0.0,0.513,-8.17,25.66,75.59,-10.55,6.24,90.0,-5.1,11.51,80.6,11.07,6.06,90.18,8.79,11.95,85.96,-11.69,7.47,88.95,-12.44,24.0,79.19,-21.26,0.38,93.22,-5.65,20.98,84.84,21.44,-5.18,99.49,15.09,12.37,85.96,-21.09,-3.6,98.7,-1.0,-1.0,0.3166,-1.0,0.7431,-0.6964,-1.0,1.0,0.7131,1.0,-1.0,1.0,1.0,-0.6966,-1.0,-1.0,-1.0,1.0,0.013,0.208,0.019,0.019,0.013,0.026,0.006,0.026,0.013,0.045,0.0,0.033,0.019,0.033,0.039,0.013,0.013,0.026,-0.1181,0.1166,-0.0721,-0.1549,-0.1381,0.181,-0.0936,-0.0782,0.0291,0.1626,-0.1473,0.1795,0.1273,-0.1104,0.0982,-0.1779,-0.1534,0.1703,-0.1409,0.2032,-0.0393,-0.2712,-0.2538,0.2955,-0.0928,-0.1156,0.0166,0.2556,-0.2655,0.2975,0.2556,-0.1014,0.2175,-0.2832,-0.2584,0.2826,-0.1783,-0.0553,-0.1095,-0.0685,-0.0025,-1.0,-1.0,0.6517,-1.0,0.474,1.0,0.0113,1.0,0.2229,1.0,-1.0,1.0,0.7565,1.0,-0.119,-1.0,-1.0,1.0,0.0,0.0,0.0,0.0,0.0,0.0,0.0,0.0,0.0,-0.0,0.0,-0.0,0.0,0
0.56,run,-0.14,1.11,-6.93,-3.32,9.09,0.0,-0.0,0.0,0.513,-9.23,26.02,76.2,-12.04,5.27,91.49,-5.1,11.51,81.3,12.39,4.66,91.58,10.2,11.95,86.84,-13.18,6.33,90.44,-13.94,22.5,77.69,-22.76,1.88,91.72,-7.15,19.48,83.34,22.94,-6.68,100.99,13.59,10.87,87.46,-22.59,-5.1,100.2,-1.0,-1.0,0.1,-1.0,1.0,-0.56,-0.4765,0.7752,-0.5071,1.0,-1.0,1.0,-0.5804,-0.1582,0.7138,-1.0,-1.0,1.0,0.013,0.208,0.019,0.019,0.013,0.026,0.006,0.026,0.013,0.045,0.0,0.033,0.019,0.033,0.039,0.013,0.013,0.026,-0.135,0.1304,-0.0629,-0.1795,-0.1595,0.2056,-0.0951,-0.0782,0.0307,0.1856,-0.1703,0.204,0.1519,-0.112,0.1197,-0.2025,-0.1733,0.1963,-0.1617,0.1939,0.0069,-0.2816,-0.258,0.2986,-0.0707,-0.0809,0.0174,0.265,-0.2718,0.3,0.2706,-0.0767,0.2325,-0.29,-0.2555,0.2953,-0.193,-0.07,-0.0654,-0.0828,0.1854,-1.0,-1.0,0.3166,-1.0,0.7431,-0.6964,-1.0,1.0,0.7131,1.0,-1.0,1.0,1.0,-0.6966,-1.0,-1.0,-1.0,1.0,0.0,0.0,0.0,0.0,0.0,0.0,0.0,0.0,0.0,-0.0,0.0,-0.0,0.0,0
0.6,run,-0.31,1.32,-3.79,4.36,5.0,0.0,-0.0,0.0,0.513,-10.55,26.19,76.99,-13.45,3.87,92.55,-5.01,11.95,82.09,13.71,3.25,93.08,11.6,11.95,87.45,-14.59,4.75,91.85,-15.44,21.0,79.19,-24.26,3.38,90.22,-8.65,20.98,84.84,24.44,-8.18,102.49,12.09,9.37,85.96,-24.09,-6.6,101.7,-1.0,-1.0,0.7366,-1.0,0.9375,-1.0,-1.0,1.0,1.0,1.0,-1.0,1.0,-0.7303,-1.0,0.1992,-1.0,-1.0,1.0,0.033,0.149,0.033,0.013,0.006,0.006,0.0,0.26,0.026,0.065,0.0,0.033,0.0,0.019,0.033,0.019,0.013,0.019,-0.1534,0.1365,-0.0522,-0.2056,-0.1764,0.2316,-0.0951,-0.0782,0.043,0.2086,-0.1948,0.2286,0.1764,-0.112,0.135,-0.2286,-0.1933,0.2224,-0.1823,0.1587,0.0451,-0.295,-0.2439,0.3069,-0.0495,-0.0567,0.0582,0.2718,-0.2824,0.3021,0.2815,-0.0537,0.2203,-0.3008,-0.2536,0.3046,-0.2186,-0.0766,-0.121,-0.058,0.1586,-1.0,-1.0,0.1,-1.0,1.0,-0.56,-0.4765,0.7752,-0.5071,1.0,-1.0,1.0,-0.5804,-0.1582,0.7138,-1.0,-1.0,1.0,0.0,0.0,0.0,0.0,0.0,0.0,0.0,0.0,0.0,-0.0,0.0,-0.0,0.0,0
0.64,run,-0.38,1.61,-0.91,6.09,-7.15,0.0,-0.0,0.0,0.513,-12.13,26.19,77.61,-15.21,2.55,93.6,-5.01,13.18,82.97,15.47,1.67,94.66,12.83,11.87,87.8,-16.44,2.9,93.6,-16.94,19.5,77.69,-25.76,4.88,88.72,-10.15,19.48,86.34,25.94,-9.68,103.99,10.59,7.87,87.46,-25.59,-8.1,100.2,-1.0,-1.0,-0.6353,-1.0,1.0,-1.0,-1.0,-1.0,1.0,1.0,-1.0,1.0,-1.0,-0.8817,1.0,-0.9614,-1.0,-0.7464,0.033,0.149,0.033,0.013,0.006,0.006,0.0,0.26,0.026,0.065,0.0,0.033,0.0,0.019,0.033,0.019,0.013,0.019,-0.1764,0.1396,-0.0383,-0.2301,-0.201,0.25,-0.0936,-0.0706,0.0568,0.2316,-0.2194,0.2546,0.201,-0.112,0.1457,-0.2531,-0.2209,0.247,-0.2139,0.1226,0.0834,-0.2986,-0.2628,0.2839,-0.0289,-0.0109,0.0925,0.2766,-0.2898,0.3093,0.2892,-0.0376,0.1945,-0.3027,-0.2812,0.3053,-0.2333,-0.0582,-0.0662,0.076,0.0873,-1.0,-1.0,0.7366,-1.0,0.9375,-1.0,-1.0,1.0,1.0,1.0,-1.0,1.0,-0.7303,-1.0,0.1992,-1.0,-1.0,1.0,0.0,0.0,0.0,0.0,0.0,0.0,0.0,0.0,0.0,-0.0,0.0,-0.0,0.0,0
0.68,run,-0.62,1.93,-4.72,8.37,-13.43,0.0,-0.0,0.0,0.513,-13.45,26.19,77.96,-16.61,1.76,94.04,-5.62,14.33,83.5,17.05,0.35,96.15,13.45,10.99,87.8,-17.84,1.49,95.01,-18.44,18.0,76.19,-27.26,3.38,87.22,-11.65,17.98,87.84,27.44,-11.18,105.49,9.09,6.37,88.96,-24.09,-9.6,98.7,-1.0,-1.0,-0.0342,-1.0,0.4363,-1.0,-1.0,-0.9352,1.0,1.0,-1.0,1.0,-1.0,-1.0,1.0,-0.2243,-1.0,-1.0,0.033,0.149,0.033,0.013,0.006,0.006,0.0,0.26,0.026,0.065,0.0,0.033,0.0,0.019,0.033,0.019,0.013,0.019,-0.204,0.1396,-0.0276,-0.2608,-0.224,0.2684,-0.0936,-0.0491,0.0721,0.2623,-0.247,0.2823,0.2224,-0.1135,0.1519,-0.2853,-0.2531,0.2777,-0.2367,0.0858,0.0922,-0.3056,-0.2564,0.2567,-0.0202,0.06,0.1131,0.2902,-0.2897,0.3034,0.27,-0.0311,0.1555,-0.3133,-0.2982,0.3103,-0.2394,-0.0324,-0.0158,0.1063,-0.1248,-1.0,-1.0,-0.6353,-1.0,1.0,-1.0,-1.0,-1.0,1.0,1.0,-1.0,1.0,-1.0,-0.8817,1.0,-0.9614,-1.0,-0.7464,0.0,0.0,0.0,0.0,0.0,0.0,0.0,0.0,0.0,-0.0,0.0,-0.0,0.0,0
0.72,run,-0.83,2.28,-3.9,9.2,-12.81,0.0,-0.0,0.0,0.513,-14.77,25.84,77.96,-18.02,1.32,94.04,-6.5,15.12,84.2,18.54,-0.88,97.65,13.71,10.02,87.89,-19.16,0.09,96.33,-19.94,16.5,74.69,-28.76,4.88,85.72,-13.15,16.48,89.34,28.94,-12.68,106.99,7.59,4.87,90.46,-22.59,-11.1,97.2,-1.0,-0.8672,-0.0386,-1.0,1.0,-1.0,-1.0,-1.0,1.0,1.0,-1.0,1.0,-1.0,-1.0,1.0,1.0,-1.0,-1.0,0.033,0.0,0.0,0.019,0.0,0.0,0.033,0.442,0.052,0.039,0.006,0.026,0.006,0.0,0.019,0.013,0.019,0.013,-0.227,0.1396,-0.0215,-0.2853,-0.2378,0.2761,-0.1043,-0.0291,0.0813,0.2899,-0.27,0.3083,0.2332,-0.1289,0.1519,-0.3099,-0.2777,0.3022,-0.2513,0.0601,0.0873,-0.3052,-0.2308,0.2082,-0.0541,0.1162,0.1134,0.3059,-0.2884,0.3094,0.229,-0.0789,0.1088,-0.3106,-0.3001,0.3085,-0.2603,-0.0053,-0.0825,0.1461,-0.2344,-1.0,-1.0,-0.0342,-1.0,0.4363,-1.0,-1.0,-0.9352,1.0,1.0,-1.0,1.0,-1.0,-1.0,1.0,-0.2243,-1.0,-1.0,0.0,0.0,0.0,0.0,0.0,0.0,0.0,0.0,0.0,-0.0,0.0,-0.0,0.0,0
0.76,run,-1.13,2.73,-6.43,12.56,-11.58,0.0,-0.0,0.0,0.513,-16.26,24.43,77.87,-19.42,1.23,93.69,-7.73,15.64,85.17,19.95,-2.29,99.14,13.62,8.61,88.15,-20.48,-1.32,97.38,-21.44,15.0,76.19,-30.26,6.38,84.22,-14.65,14.98,90.84,30.44,-14.18,108.49,6.09,3.37,91.96,-21.09,-12.6,95.7,-1.0,-0.3205,0.1929,-1.0,1.0,-1.0,-1.0,-1.0,1.0,1.0,-1.0,1.0,-1.0,-0.4442,1.0,1.0,-1.0,-1.0,0.033,0.0,0.0,0.019,0.0,0.0,0.033,0.442,0.052,0.039,0.006,0.026,0.006,0.0,0.019,0.013,0.019,0.013,-0.25,0.1335,-0.0215,-0.3099,-0.2454,0.2761,-0.1197,-0.0153,0.0936,0.316,-0.2915,0.3344,0.2378,-0.1457,0.1534,-0.3329,-0.3022,0.3252,-0.2621,0.0191,0.0611,-0.3056,-0.1903,0.1457,-0.0954,0.1331,0.1254,0.3118,-0.2824,0.3143,0.1775,-0.1184,0.0819,-0.3037,-0.302,0.3022,-0.2787,0.0253,-0.0681,0.1606,-0.2237,-1.0,-0.8672,-0.0386,-1.0,1.0,-1.0,-1.0,-1.0,1.0,1.0,-1.0,1.0,-1.0,-1.0,1.0,1.0,-1.0,-1.0,0.0,0.0,0.0,0.0,0.0,0.0,0.0,0.0,0.0,-0.0,0.0,-0.0,0.0,0
0.8,run,-1.4,3.19,-6.34,11.11,-17.76,0.0,-0.0,0.0,0.513,-17.67,23.38,77.26,-20.92,1.32,92.81,-9.05,15.91,86.31,21.45,-3.78,100.55,13.18,7.21,88.77,-21.45,-2.81,98.17,-22.94,16.5,74.69,-31.76,7.88,82.72,-16.15,13.48,92.34,31.94,-15.68,109.99,4.59,1.87,93.46,-19.59,-14.1,94.2,-1.0,0.8116,-0.0124,-1.0,1.0,-1.0,-1.0,-1.0,1.0,1.0,-1.0,1.0,-1.0,-1.0,1.0,1.0,-1.0,-1.0,0.033,0.0,0.0,0.019,0.0,0.0,0.033,0.442,0.052,0.039,0.006,0.026,0.006,0.0,0.019,0.013,0.019,0.013,-0.2761,0.1089,-0.023,-0.3344,-0.247,0.27,-0.1411,-0.0061,0.1104,0.3405,-0.316,0.3605,0.2362,-0.1703,0.158,-0.3559,-0.3267,0.3436,-0.2813,-0.0787,0.037,-0.306,-0.139,0.079,-0.1473,0.1277,0.1511,0.3104,-0.2897,0.3179,0.1185,-0.175,0.0746,-0.2989,-0.3035,0.2806,-0.3052,0.0647,-0.1122,0.2192,-0.2021,-1.0,-0.3205,0.1929,-1.0,1.0,-1.0,-1.0,-1.0,1.0,1.0,-1.0,1.0,-1.0,-0.4442,1.0,1.0,-1.0,-1.0,0.0,0.0,0.0,0.0,0.0,0.0,0.0,0.0,0.0,-0.0,0.0,-0.0,0.0,0
0.84,run,-1.51,3.7,-3.19,12.39,-21.52,0.0,-0.0,0.0,0.513,-19.16,21.97,76.38,-22.24,1.85,91.67,-10.37,15.91,87.71,22.85,-5.1,102.04,12.3,5.8,89.65,-22.24,-4.31,98.61,-24.44,18.0,76.19,-33.26,9.38,81.22,-17.65,11.98,93.84,33.44,-17.18,111.49,3.09,0.37,94.96,-18.09,-15.6,92.7,-1.0,1.0,0.3747,-1.0,0.8843,-1.0,-1.0,-1.0,1.0,1.0,-1.0,1.0,-1.0,-1.0,1.0,1.0,-1.0,-1.0,0.019,0.0,0.0,0.019,0.006,0.013,0.039,0.507,0.065,0.039,0.013,0.019,0.013,0.0,0.039,0.0,0.013,0.006,-0.3007,0.0905,-0.0337,-0.3605,-0.2454,0.2546,-0.1641,-0.0015,0.1304,0.3666,-0.3421,0.385,0.2286,-0.1948,0.1687,-0.3728,-0.3528,0.3574,-0.289,-0.1242,-0.0143,-0.312,-0.0915,-0.0022,-0.1894,0.1066,0.1805,0.3151,-0.3006,0.3146,0.0542,-0.2145,0.0925,-0.2725,-0.3103,0.2482,-0.3285,0.1047,-0.1106,0.1939,-0.31,-1.0,0.8116,-0.0124,-1.0,1.0,-1.0,-1.0,-1.0,1.0,1.0,-1.0,1.0,-1.0,-1.0,1.0,1.0,-1.0,-1.0,0.0,0.0,0.0,0.0,0.0,0.0,0.0,0.0,0.0,-0.0,0.0,-0.0,0.0,0
0.88,run,-1.89,4.1,-10.08,10.71,-22.36,0.0,-0.0,0.0,0.513,-20.65,20.65,75.5,-23.64,2.81,90.44,-11.78,15.91,89.03,24.17,-6.5,103.45,11.16,4.22,90.7,-22.68,-5.8,98.79,-25.94,19.5,77.69,-34.76,7.88,79.72,-19.15,10.48,95.34,34.94,-18.68,112.99,1.59,-1.13,96.46,-16.59,-17.1,91.2,-1.0,1.0,0.1542,-1.0,0.3815,-1.0,-1.0,-1.0,1.0,1.0,-1.0,1.0,-1.0,-0.7648,1.0,1.0,-1.0,-1.0,0.019,0.0,0.0,0.019,0.006,0.013,0.039,0.507,0.065,0.039,0.013,0.019,0.013,0.0,0.039,0.0,0.013,0.006,-0.3267,0.066,-0.0491,-0.3835,-0.2362,0.2347,-0.1871,-0.0015,0.1549,0.3912,-0.3651,0.4111,0.2132,-0.2194,0.1841,-0.3866,-0.3789,0.3651,-0.3001,-0.1789,-0.0676,-0.3047,-0.0296,-0.0763,-0.2189,0.0746,0.2184,0.3126,-0.2967,0.318,-0.0196,-0.2422,0.1223,-0.2425,-0.315,0.2025,-0.3381,0.1491,-0.0557,0.2163,-0.3757,-1.0,1.0,0.3747,-1.0,0.8843,-1.0,-1.0,-1.0,1.0,1.0,-1.0,1.0,-1.0,-1.0,1.0,1.0,-1.0,-1.0,0.0,0.0,0.0,0.0,0.0,0.0,0.0,0.0,0.0,-0.0,0.0,-0.0,0.0,0
0.92,run,-2.28,4.39,-8.06,5.6,-14.55,0.0,-0.0,0.0,0.513,-22.68,19.16,74.79,-25.66,4.04,88.51,-13.62,15.91,90.79,26.1,-8.44,105.47,9.49,2.37,92.46,-22.68,-7.73,98.61,-27.44,21.0,76.19,-35.0,6.38,78.22,-20.65,8.98,96.84,35.0,-20.18,114.49,0.09,-2.63,97.96,-15.09,-18.6,89.7,-1.0,1.0,0.0865,-1.0,0.0499,-1.0,-1.0,-1.0,1.0,1.0,-1.0,1.0,-1.0,-1.0,1.0,0.7573,-1.0,-1.0,0.019,0.0,0.0,0.019,0.006,0.013,0.039,0.507,0.065,0.039,0.013,0.019,0.013,0.0,0.039,0.0,0.013,0.006,-0.3528,0.043,-0.0644,-0.408,-0.2194,0.2132,-0.2117,-0.0015,0.1779,0.4142,-0.3896,0.4357,0.1933,-0.247,0.2025,-0.3942,-0.405,0.3682,-0.3079,-0.2116,-0.1049,-0.3054,0.0426,-0.134,-0.2453,0.0523,0.2392,0.3051,-0.2998,0.3147,-0.0885,-0.2732,0.1547,-0.1985,-0.3183,0.1533,-0.3716,0.1846,-0.1759,0.187,-0.3902,-1.0,1.0,0.1542,-1.0,0.3815,-1.0,-1.0,-1.0,1.0,1.0,-1.0,1.0,-1.0,-0.7648,1.0,1.0,-1.0,-1.0,0.0,0.0,0.0,0.0,0.0,0.0,0.0,0.0,0.0,-0.0,0.0,-0.0,0.0,0
0.96,run,-2.51,4.49,-10.65,3.55,-14.55,0.0,-0.0,0.0,0.513,-23.73,18.72,74.71,-26.63,5.01,87.45,-14.68,15.91,91.67,27.16,-9.49,106.44,8.7,1.32,93.34,-22.24,-8.61,98.09,-28.94,22.5,74.69,-35.0,4.88,76.72,-22.15,7.48,98.34,35.0,-21.68,115.99,-1.41,-4.13,99.46,-13.59,-20.1,88.2,-1.0,1.0,0.0694,-1.0,-0.4915,-1.0,-1.0,-1.0,1.0,1.0,-1.0,1.0,-1.0,-1.0,1.0,0.8375,-1.0,-1.0,0.013,0.0,0.0,0.013,0.006,0.013,0.026,0.019,0.084,0.045,0.006,0.019,0.039,0.019,0.13,0.006,0.019,0.013,-0.3881,0.0169,-0.0767,-0.4433,-0.1979,0.1795,-0.2439,-0.0015,0.2086,0.4479,-0.4234,0.4709,0.1641,-0.2792,0.2332,-0.3942,-0.4387,0.3651,-0.3135,-0.2205,-0.1075,-0.3117,0.0895,-0.1875,-0.2612,0.0366,0.2527,0.3073,-0.3036,0.3182,-0.1429,-0.2807,0.1935,-0.139,-0.3165,0.0988,-0.4052,0.2099,-0.1407,0.0977,-0.254,-1.0,1.0,0.0865,-1.0,0.0499,-1.0,-1.0,-1.0,1.0,1.0,-1.0,1.0,-1.0,-1.0,1.0,0.7573,-1.0,-1.0,0.0,0.0,0.0,0.0,0.0,0.0,0.0,0.0,0.0,-0.0,0.0,-0.0,0.0,0
1.0,run,-2.87,4.55,-7.76,2.59,-14.12,0.0,-0.0,0.0,0.513,-25.05,18.02,74.71,-28.04,6.06,86.04,-16.17,15.12,92.81,28.48,-10.9,107.84,7.47,-0.18,94.66,-21.27,-10.02,97.12,-30.44,24.0,76.19,-35.0,3.38,75.22,-23.65,5.98,99.84,35.0,-23.18,117.49,-2.91,-5.63,100.96,-12.09,-21.6,86.7,-1.0,1.0,0.2691,-1.0,-0.4655,-0.7328,-1.0,-1.0,1.0,1.0,-1.0,0.6838,-1.0,-1.0,1.0,1.0,-1.0,-1.0,0.013,0.0,0.0,0.013,0.006,0.013,0.026,0.019,0.084,0.045,0.006,0.019,0.039,0.019,0.13,0.006,0.019,0.013,-0.4065,0.0092,-0.0782,-0.4602,-0.181,0.1611,-0.2623,-0.0015,0.224,0.4663,-0.4418,0.4878,0.1503,-0.2976,0.2485,-0.3866,-0.4541,0.3559,-0.3173,-0.1952,-0.0834,-0.3079,0.1524,-0.2292,-0.2807,0.0256,0.2584,0.313,-0.3104,0.3125,-0.1734,-0.2943,0.217,-0.0565,-0.3031,0.0202,-0.4255,0.2188,-0.1858,0.0619,-0.2539,-1.0,1.0,0.0694,-1.0,-0.4915,-1.0,-1.0,-1.0,1.0,1.0,-1.0,1.0,-1.0,-1.0,1.0,0.8375,-1.0,-1.0,0.0,0.0,0.0,0.0,0.0,0.0,0.0,0.0,0.0,-0.0,0.0,-0.0,0.0,0
1.04,run,-2.94,4.42,0.12,-1.92,-13.71,0.0,-0.002,0.0,0.513,-26.37,17.67,74.71,-29.36,6.77,84.55,-17.67,13.62,94.13,29.71,-12.3,109.34,6.15,-1.67,96.06,-20.21,-11.25,95.98,-31.94,22.5,77.69,-33.5,4.88,73.72,-25.15,4.48,101.34,33.5,-21.68,118.99,-1.41,-7.13,99.46,-10.59,-20.1,85.2,-1.0,-1.0,1.0,0.0911,1.0,-1.0,-1.0,-1.0,1.0,-1.0,1.0,0.6527,0.2404,-1.0,-1.0,1.0,1.0,-1.0,0.013,0.0,0.0,0.013,0.006,0.013,0.026,0.019,0.084,0.045,0.006,0.019,0.039,0.019,0.13,0.006,0.019,0.013,-0.4295,-0.0031,-0.0782,-0.4847,-0.1626,0.1365,-0.2884,-0.0153,0.2439,0.4893,-0.4663,0.5123,0.1289,-0.3237,0.2715,-0.3697,-0.4786,0.339,-0.3077,-0.1823,-0.0584,-0.3069,0.1751,-0.2517,-0.2935,-0.0334,0.2551,0.3047,-0.3086,0.31,-0.2013,-0.303,0.2375,0.0232,-0.3035,-0.0486,-0.4572,0.2236,-0.1355,0.0452,-0.2464,-1.0,1.0,0.2691,-1.0,-0.4655,-0.7328,-1.0,-1.0,1.0,1.0,-1.0,0.6838,-1.0,-1.0,1.0,1.0,-1.0,-1.0,0.0,0.0,0.0,0.0,0.0,0.0,0.0,0.0,0.0,-0.0133,0.0,-0.0133,0.0,3
1.08,run,-2.9,4.36,1.83,-1.24,-21.05,0.0,-0.004,0.0,0.513,-27.86,17.58,74.71,-30.85,7.21,82.97,-19.07,12.13,95.71,31.03,-13.89,110.92,4.66,-3.16,97.29,-18.72,-12.74,94.75,-33.44,21.0,79.19,-32.0,6.38,72.22,-26.65,2.98,102.84,32.0,-20.18,117.49,0.09,-8.63,97.96,-12.09,-18.6,86.7,-1.0,-1.0,1.0,0.1649,1.0,-1.0,-1.0,-1.0,1.0,-1.0,0.2811,0.1843,1.0,-1.0,-1.0,-1.0,1.0,1.0,0.013,0.052,0.052,0.013,0.0,0.0,0.026,0.013,0.104,0.084,0.006,0.006,0.058,0.019,0.156,0.013,0.033,0.013,-0.4525,-0.0092,-0.0782,-0.5077,-0.1503,0.1104,-0.3145,-0.0414,0.2669,0.5108,-0.4909,0.5384,0.1058,-0.3497,0.2961,-0.3513,-0.5001,0.3191,-0.3021,-0.1507,-0.0409,-0.3015,0.1688,-0.2744,-0.3037,-0.1216,0.2652,0.2942,-0.3084,0.3152,-0.2276,-0.3103,0.2587,0.0856,-0.2933,-0.1091,-0.4632,0.2125,0.002,-0.0335,-0.2394,-1.0,-1.0,1.0,0.0911,1.0,-1.0,-1.0,-1.0,1.0,-1.0,1.0,0.6527,0.2404,-1.0,-1.0,1.0,1.0,-1.0,0.0,0.0,0.0,0.0,0.0,0.0,0.0,0.0,0.0,-0.0267,0.0,-0.0267,0.0,3
1.12,run,-2.64,4.14,5.05,-3.47,-22.44,0.0,-0.006,0.0,0.513,-29.62,17.58,75.32,-32.26,7.21,81.21,-20.83,10.46,97.56,32.26,-15.73,112.68,2.99,-4.92,98.53,-16.96,-14.41,92.81,-34.94,19.5,80.69,-30.5,7.88,70.72,-28.15,1.48,104.34,30.5,-18.68,115.99,1.59,-10.13,99.46,-10.59,-17.1,88.2,-1.0,-1.0,1.0,0.8892,1.0,-1.0,-1.0,-1.0,1.0,-1.0,0.6695,-0.557,1.0,-1.0,0.6246,1.0,1.0,1.0,0.013,0.052,0.052,0.013,0.0,0.0,0.026,0.013,0.104,0.084,0.006,0.006,0.058,0.019,0.156,0.013,0.033,0.013,-0.4786,-0.0107,-0.0782,-0.5338,-0.1427,0.0828,-0.339,-0.0675,0.2945,0.5338,-0.5185,0.566,0.0798,-0.3758,0.3175,-0.3252,-0.5262,0.2976,-0.3027,-0.1109,-0.0286,-0.3023,0.145,-0.2887,-0.2985,-0.1764,0.2823,0.2865,-0.3126,0.3173,-0.2506,-0.3085,0.2562,0.1512,-0.2966,-0.1516,-0.4599,0.2069,0.0319,-0.0216,-0.3674,-1.0,-1.0,1.0,0.1649,1.0,-1.0,-1.0,-1.0,1.0,-1.0,0.2811,0.1843,1.0,-1.0,-1.0,-1.0,1.0,1.0,0.0,0.0,0.0,0.0,0.0,0.0,0.0,0.0,0.0,-0.04,0.0,-0.04,0.0,3
1.16,run,-2.6,4.04,0.63,-2.61,-17.65,0.0,-0.008,0.0,0.513,-31.03,17.67,76.11,-33.13,7.21,79.89,-22.15,8.88,98.88,32.96,-17.14,114.08,1.85,-6.24,99.05,-15.47,-15.73,91.32,-35.0,18.0,82.19,-29.0,9.38,69.22,-29.65,-0.02,105.84,29.0,-17.18,114.49,3.09,-11.63,97.96,-9.09,-15.6,89.7,-1.0,-1.0,1.0,1.0,1.0,-1.0,-1.0,-1.0,1.0,-1.0,1.0,-0.2642,1.0,-1.0,-1.0,1.0,1.0,0.6716,0.013,0.052,0.052,0.013,0.0,0.0,0.026,0.013,0.104,0.084,0.006,0.006,0.058,0.019,0.156,0.013,0.033,0.013,-0.5093,-0.0107,-0.0675,-0.5584,-0.1427,0.0522,-0.3697,-0.0966,0.3267,0.5553,-0.5507,0.5967,0.0506,-0.4065,0.339,-0.2945,-0.5553,0.2638,-0.3051,-0.0776,0.0126,-0.2862,0.1015,-0.2953,-0.3021,-0.212,0.2955,0.2658,-0.3166,0.3153,-0.2639,-0.3092,0.2446,0.199,-0.2962,-0.2086,-0.4372,0.1878,0.0882,-0.0605,-0.3917,-1.0,-1.0,1.0,0.8892,1.0,-1.0,-1.0,-1.0,1.0,-1.0,0.6695,-0.557,1.0,-1.0,0.6246,1.0,1.0,1.0,0.0,0.0,0.0,0.0,0.0,0.0,0.0,0.0,0.0,-0.0533,0.0,-0.0533,0.0,3
1.2,run,-2.57,3.96,0.6,-2.73,-12.39,0.0,-0.01,0.0,0.513,-32.26,17.84,77.34,-33.57,6.68,78.4,-23.47,7.56,100.28,33.31,-18.28,115.22,1.05,-7.73,99.67,-14.06,-16.61,90.09,-35.0,16.5,83.69,-27.5,10.88,67.72,-31.15,-1.52,107.34,27.5,-15.68,112.99,4.59,-13.13,96.46,-7.59,-14.1,91.2,-1.0,-1.0,1.0,1.0,1.0,-1.0,-1.0,-1.0,1.0,-1.0,0.6576,-0.0315,1.0,-1.0,-1.0,1.0,1.0,1.0,0.013,0.247,0.091,0.0,0.0,0.006,0.039,0.019,0.091,0.033,0.0,0.0,0.013,0.019,0.045,0.013,0.019,0.0,-0.5338,-0.0092,-0.0537,-0.5737,-0.1427,0.0291,-0.3927,-0.1243,0.3497,0.5676,-0.5752,0.6213,0.0307,-0.4295,0.3482,-0.2684,-0.5783,0.2378,-0.3049,-0.0486,0.0602,-0.2574,0.0711,-0.2923,-0.2971,-0.2511,0.2924,0.2317,-0.3129,0.312,-0.2589,-0.302,0.2055,0.2363,-0.2929,-0.243,-0.4332,0.1788,0.0109,-0.0455,-0.3081,-1.0,-1.0,1.0,1.0,1.0,-1.0,-1.0,-1.0,1.0,-1.0,1.0,-0.2642,1.0,-1.0,-1.0,1.0,1.0,0.6716,0.0,0.0,0.0,0.0,0.0,0.0,0.0,0.0,0.0,-0.0667,0.0,-0.0667,0.0,3
1.24,run,-2.28,4.03,7.99,0.16,-5.47,0.0,-0.012,0.0,0.513,-33.22,17.84,78.57,-34.1,6.68,76.9,-24.87,6.06,101.69,33.4,-19.25,116.02,0.53,-8.96,99.76,-12.74,-17.4,89.21,-35.0,15.0,85.19,-26.0,12.38,66.22,-32.65,-3.02,108.84,26.0,-14.18,111.49,6.09,-14.63,94.96,-6.09,-12.6,92.7,-1.0,-1.0,1.0,1.0,1.0,-1.0,-1.0,-1.0,1.0,-1.0,0.5696,-0.2061,1.0,-1.0,-0.9718,1.0,1.0,1.0,0.013,0.247,0.091,0.0,0.0,0.006,0.039,0.019,0.091,0.033,0.0,0.0,0.013,0.019,0.045,0.013,0.019,0.0,-0.5553,-0.0061,-0.0322,-0.5814,-0.1519,0.0031,-0.4157,-0.1473,0.3743,0.5737,-0.5952,0.6412,0.0169,-0.4556,0.359,-0.2439,-0.5937,0.2163,-0.2939,-0.0225,0.1226,-0.2089,0.0152,-0.3023,-0.2942,-0.262,0.2967,0.1852,-0.2938,0.2931,-0.233,-0.3091,0.1841,0.2574,-0.2625,-0.2506,-0.4309,0.1722,0.0104,-0.0476,-0.2162,-1.0,-1.0,1.0,1.0,1.0,-1.0,-1.0,-1.0,1.0,-1.0,0.6576,-0.0315,1.0,-1.0,-1.0,1.0,1.0,1.0,0.0,0.0,0.0,0.0,0.0,0.0,0.0,0.0,0.0,-0.08,0.0,-0.08,0.0,3
1.28,run,-2.28,4.08,1.05,0.63,-3.45,0.0,-0.014,0.0,0.513,-33.93,17.84,79.8,-33.75,6.77,75.59,-26.19,4.66,103.1,33.22,-19.95,116.63,0.44,-10.46,99.76,-11.34,-17.84,88.51,-35.0,13.5,86.69,-24.5,13.88,64.72,-34.15,-4.52,110.34,24.5,-12.68,109.99,7.59,-16.13,93.46,-4.59,-11.1,94.2,-1.0,-1.0,1.0,1.0,1.0,-1.0,-1.0,-1.0,1.0,-1.0,0.5477,-0.0596,1.0,-1.0,-0.8828,1.0,1.0,1.0,0.013,0.247,0.091,0.0,0.0,0.006,0.039,0.019,0.091,0.033,0.0,0.0,0.013,0.019,0.045,0.013,0.019,0.0,-0.5722,-0.0061,-0.0107,-0.5906,-0.1519,-0.023,-0.4403,-0.1733,0.3988,0.5752,-0.6121,0.655,0.0077,-0.4771,0.3605,-0.2209,-0.6075,0.201,-0.269,-0.0158,0.1664,-0.1808,0.0107,-0.3095,-0.298,-0.2812,0.2997,0.1354,-0.269,0.257,-0.1976,-0.2969,0.1346,0.2665,-0.2355,-0.233,-0.4055,0.1782,0.1394,0.0027,-0.0955,-1.0,-1.0,1.0,1.0,1.0,-1.0,-1.0,-1.0,1.0,-1.0,0.5696,-0.2061,1.0,-1.0,-0.9718,1.0,1.0,1.0,0.0,0.0,0.0,0.0,0.0,0.0,0.0,0.0,0.0,-0.0933,0.0,-0.0933,0.0,3
1.32,run,-2.16,4.28,4.82,5.69,-4.31,0.0,-0.016,0.0,0.513,-34.37,17.84,81.21,-32.96,7.47,73.65,-27.69,3.25,104.68,32.52,-20.21,116.89,0.88,-11.69,98.79,-9.76,-17.93,88.24,-35.0,12.0,88.19,-23.0,15.38,63.22,-35.0,-6.02,111.84,23.0,-11.18,108.49,9.09,-17.63,91.96,-3.09,-9.6,95.7,-1.0,-1.0,1.0,1.0,1.0,-1.0,-1.0,-1.0,1.0,-1.0,0.3515,-0.2599,1.0,-1.0,-0.7162,1.0,1.0,1.0,0.019,0.033,0.123,0.019,0.019,0.0,0.058,0.013,0.071,0.019,0.006,0.013,0.0,0.0,0.0,0.013,0.0,0.0,-0.5844,-0.0061,0.0107,-0.5844,-0.1503,-0.046,-0.4633,-0.1979,0.4234,0.5722,-0.6243,0.6657,0.0061,-0.5031,0.3605,-0.1963,-0.6151,0.1887,-0.2343,-0.011,0.197,-0.1035,0.0132,-0.3029,-0.2949,-0.2889,0.3018,0.0833,-0.2343,0.2201,-0.1441,-0.3056,0.0942,0.2786,-0.1936,-0.2091,-0.4058,0.1824,0.0183,0.011,-0.0602,-1.0,-1.0,1.0,1.0,1.0,-1.0,-1.0,-1.0,1.0,-1.0,0.5477,-0.0596,1.0,-1.0,-0.8828,1.0,1.0,1.0,0.0,0.0,0.0,0.0,0.0,0.0,0.0,0.0,0.0,-0.1067,0.0,-0.1067,0.0,3
1.36,run,-2.24,4.38,0.08,4.42,-2.23,0.0,-0.018,0.0,0.513,-34.63,17.75,82.27,-31.99,8.26,72.6,-28.92,2.02,106.0,31.82,-20.21,116.63,1.32,-12.92,97.82,-8.44,-17.84,88.24,-35.0,10.5,89.69,-21.5,16.88,61.72,-35.0,-7.52,113.34,21.5,-9.68,106.99,10.59,-19.13,90.46,-1.59,-8.1,97.2,-1.0,-1.0,1.0,1.0,1.0,-1.0,-1.0,-1.0,1.0,-1.0,0.2827,-0.0532,1.0,-1.0,-0.5429,1.0,1.0,1.0,0.019,0.033,0.123,0.019,0.019,0.0,0.058,0.013,0.071,0.019,0.006,0.013,0.0,0.0,0.0,0.013,0.0,0.0,-0.5921,-0.0061,0.0353,-0.5706,-0.1381,-0.0798,-0.4893,-0.2224,0.451,0.5599,-0.6289,0.6703,0.0138,-0.5246,0.3436,-0.1687,-0.6167,0.1841,-0.1906,-0.0077,0.2229,-0.0246,0.0518,-0.329,-0.2968,-0.2873,0.307,0.0158,-0.1799,0.1701,-0.0743,-0.2884,0.0075,0.2907,-0.1409,-0.1623,-0.3948,0.2001,0.0841,0.0993,-0.0752,-1.0,-1.0,1.0,1.0,1.0,-1.0,-1.0,-1.0,1.0,-1.0,0.3515,-0.2599,1.0,-1.0,-0.7162,1.0,1.0,1.0,0.0,0.0,0.0,0.0,0.0,0.0,0.0,0.0,0.0,-0.12,0.0,-0.12,0.0,3
1.4,run,-2.36,4.55,-1.58,6.18,7.03,0.0,-0.02,0.0,0.513,-34.72,16.96,83.5,-30.76,9.4,71.19,-30.32,0.62,107.49,30.41,-20.21,115.93,2.46,-14.24,96.5,-7.03,-17.31,88.59,-35.0,9.0,91.19,-20.0,18.38,60.22,-35.0,-9.02,114.84,20.0,-11.18,105.49,12.09,-20.63,88.96,-0.09,-6.6,98.7,-1.0,-1.0,1.0,1.0,1.0,-1.0,-1.0,-1.0,1.0,-1.0,0.1762,-0.2249,1.0,-1.0,-0.1154,1.0,1.0,0.5682,0.019,0.033,0.123,0.019,0.019,0.0,0.058,0.013,0.071,0.019,0.006,0.013,0.0,0.0,0.0,0.013,0.0,0.0,-0.5967,-0.0077,0.0537,-0.5538,-0.1243,-0.0982,-0.5108,-0.2439,0.474,0.5476,-0.6289,0.6657,0.0215,-0.5461,0.3267,-0.1457,-0.6151,0.1841,-0.1523,-0.0117,0.2317,0.0521,0.093,-0.3059,-0.296,-0.2894,0.3095,-0.0394,-0.126,0.1001,-0.0205,-0.2901,-0.0641,0.2981,-0.0923,-0.1136,-0.4022,0.2087,0.0013,0.0771,-0.039,-1.0,-1.0,1.0,1.0,1.0,-1.0,-1.0,-1.0,1.0,-1.0,0.2827,-0.0532,1.0,-1.0,-0.5429,1.0,1.0,1.0,0.0,0.0,0.0,0.0,0.0,0.0,0.0,0.0,0.0,-0.1333,0.0,-0.1333,0.0,3
1.44,run,-2.28,4.61,3.02,3.24,4.95,0.0,-0.022,0.0,0.513,-34.72,15.47,84.81,-29.36,10.72,69.7,-31.46,-0.79,108.9,29.18,-19.95,115.05,3.69,-15.47,95.19,-5.62,-16.52,89.3,-35.0,7.5,92.69,-18.5,19.88,58.72,-35.0,-10.52,114.12,18.5,-9.68,103.99,13.59,-22.13,88.14,1.41,-5.1,97.2,-1.0,-1.0,1.0,1.0,1.0,-1.0,-1.0,-1.0,0.5778,-1.0,0.2809,-0.3614,1.0,-1.0,0.2722,1.0,1.0,-0.1668,0.013,0.0,0.156,0.019,0.039,0.0,0.052,0.013,0.071,0.058,0.104,0.033,0.019,0.006,0.0,0.019,0.033,0.033,-0.5983,-0.0215,0.0752,-0.5323,-0.1043,-0.1227,-0.5354,-0.2684,0.5001,0.5231,-0.6289,0.6535,0.0414,-0.5691,0.3037,-0.1212,-0.6059,0.1902,-0.1123,-0.0593,0.2417,0.116,0.1389,-0.3051,-0.2981,-0.2934,0.3132,-0.1185,-0.0882,0.0246,0.0595,-0.2883,-0.1301,0.2995,-0.0305,-0.0568,-0.4124,0.2236,-0.0276,0.1079,0.1228,-1.0,-1.0,1.0,1.0,1.0,-1.0,-1.0,-1.0,1.0,-1.0,0.1762,-0.2249,1.0,-1.0,-0.1154,1.0,1.0,0.5682,0.0,0.0,0.0,0.0,0.0,0.0,0.0,0.0,0.0,-0.1467,0.0,-0.1467,0.0,3
1.48,run,-2.04,4.69,5.44,3.8,-1.07,0.0,-0.024,0.0,0.513,-34.72,14.24,86.22,-27.95,11.95,68.2,-32.52,-2.2,110.21,27.95,-18.98,113.82,5.1,-16.52,93.78,-4.31,-15.47,90.26,-33.5,6.0,94.19,-17.0,21.38,57.22,-35.0,-12.02,112.62,17.0,-8.18,102.49,15.09,-23.63,89.64,2.91,-3.6,95.7,-0.7968,-1.0,1.0,0.2335,1.0,-1.0,-1.0,-1.0,-0.2985,-1.0,0.3888,-0.1029,0.8517,-1.0,0.3822,1.0,1.0,-1.0,0.013,0.0,0.156,0.019,0.039,0.0,0.052,0.013,0.071,0.058,0.104,0.033,0.019,0.006,0.0,0.019,0.033,0.033,-0.5983,-0.0476,0.0982,-0.5077,-0.0813,-0.1488,-0.5553,-0.293,0.5246,0.5016,-0.6243,0.6381,0.0629,-0.5906,0.2807,-0.0966,-0.5921,0.2025,-0.0786,-0.1401,0.2562,0.174,0.1842,-0.3121,-0.2841,-0.2982,0.312,-0.1641,-0.0443,-0.0407,0.1228,-0.283,-0.178,0.3025,0.0308,0.0066,-0.4059,0.2291,0.0528,0.0566,0.0864,-1.0,-1.0,1.0,1.0,1.0,-1.0,-1.0,-1.0,0.5778,-1.0,0.2809,-0.3614,1.0,-1.0,0.2722,1.0,1.0,-0.1668,0.0,0.0,0.0,0.0,0.0,0.0,0.0,0.0,0.0,-0.16,0.0,-0.16,0.0,3
1.52,run,-1.75,4.65,6.08,-0.07,3.67,0.0,-0.026,0.0,0.513,-34.8,12.92,87.71,-26.54,13.18,66.8,-33.22,-3.6,111.27,26.72,-17.84,112.41,6.42,-17.84,92.55,-2.99,-13.97,91.67,-32.0,4.5,95.69,-18.5,22.88,55.72,-35.0,-13.52,111.12,15.5,-9.68,103.99,13.59,-25.13,88.14,1.41,-2.1,94.2,0.2782,-1.0,1.0,-1.0,1.0,-1.0,-1.0,-1.0,-1.0,-1.0,-0.3627,0.6132,-0.5493,-1.0,-0.3301,-1.0,1.0,-1.0,0.013,0.0,0.156,0.019,0.039,0.0,0.052,0.013,0.071,0.058,0.104,0.033,0.019,0.006,0.0,0.019,0.033,0.033,-0.5983,-0.069,0.1227,-0.4832,-0.0598,-0.1749,-0.5737,-0.3175,0.5476,0.4801,-0.6075,0.6167,0.0874,-0.609,0.2562,-0.0736,-0.5737,0.2194,-0.055,-0.1785,0.2712,0.2137,0.2094,-0.3161,-0.2678,-0.3006,0.3046,-0.1953,0.0322,-0.1089,0.1779,-0.267,-0.2165,0.2979,0.0905,0.0678,-0.385,0.2361,0.095,0.0663,-0.0187,-0.7968,-1.0,1.0,0.2335,1.0,-1.0,-1.0,-1.0,-0.2985,-1.0,0.3888,-0.1029,0.8517,-1.0,0.3822,1.0,1.0,-1.0,0.0,0.0,0.0,0.0,0.0,0.0,0.0,0.0,0.0,-0.1733,0.0,-0.1733,0.0,3
1.56,run,-1.33,4.48,9.79,-2.07,4.98,0.0,-0.028,0.0,0.513,-34.54,11.69,89.21,-25.14,14.33,65.3,-33.66,-4.92,112.24,25.49,-16.52,110.92,7.91,-19.34,91.14,-1.67,-12.74,92.9,-30.5,3.0,97.19,-20.0,24.38,54.22,-35.0,-15.02,109.62,14.0,-11.18,102.49,12.09,-26.63,89.64,-0.09,-0.6,92.7,1.0,-1.0,1.0,-1.0,1.0,-1.0,-1.0,-1.0,-1.0,-1.0,-1.0,-0.1727,-1.0,-1.0,1.0,-1.0,1.0,-1.0,0.006,0.0,0.143,0.019,0.084,0.0,0.026,0.0,0.039,0.143,0.143,0.019,0.019,0.033,0.0,0.026,0.039,0.019,-0.5998,-0.092,0.1488,-0.4587,-0.0383,-0.1994,-0.586,-0.3421,0.566,0.4587,-0.5875,0.5921,0.1104,-0.632,0.2347,-0.0506,-0.5476,0.2439,-0.0443,-0.2114,0.2878,0.2418,0.2272,-0.3135,-0.2335,-0.3026,0.2823,-0.2174,0.0974,-0.1684,0.2109,-0.2733,-0.2322,0.2949,0.1613,0.1396,-0.3589,0.2323,0.1061,-0.0013,0.0641,0.2782,-1.0,1.0,-1.0,1.0,-1.0,-1.0,-1.0,-1.0,-1.0,-0.3627,0.6132,-0.5493,-1.0,-0.3301,-1.0,1.0,-1.0,0.0,0.0,0.0,0.0,0.0,0.0,0.0,0.0,0.0,-0.1867,0.0,-0.1867,0.0,3
1.6,run,-0.88,4.09,10.28,-8.71,5.35,0.0,-0.03,0.0,0.513,-33.75,10.2,90.79,-23.73,15.64,63.9,-33.93,-6.24,112.85,24.08,-15.21,109.51,9.32,-20.65,89.91,-0.53,-11.43,93.87,-29.0,1.5,98.69,-21.5,25.88,52.72,-35.0,-16.52,108.12,12.5,-12.68,100.99,10.59,-28.13,91.14,-1.59,0.9,91.2,1.0,-1.0,1.0,-1.0,1.0,-0.2604,-1.0,-1.0,-1.0,-1.0,-1.0,0.1364,-1.0,-0.7395,1.0,-1.0,1.0,-1.0,0.006,0.0,0.143,0.019,0.084,0.0,0.026,0.0,0.039,0.143,0.143,0.019,0.019,0.033,0.0,0.026,0.039,0.019,-0.5952,-0.1135,0.1749,-0.4341,-0.0184,-0.2255,-0.5937,-0.3651,0.5829,0.4372,-0.5645,0.566,0.1365,-0.6581,0.2102,-0.0276,-0.5262,0.2654,-0.0138,-0.2284,0.2992,0.2612,0.2338,-0.3172,-0.1922,-0.2981,0.2609,-0.2326,0.1544,-0.2156,0.2454,-0.2891,-0.2546,0.2927,0.1934,0.1782,-0.323,0.2177,0.1708,-0.0362,0.0869,1.0,-1.0,1.0,-1.0,1.0,-1.0,-1.0,-1.0,-1.0,-1.0,-1.0,-0.1727,-1.0,-1.0,1.0,-1.0,1.0,-1.0,0.0,0.0,0.0,0.0,0.0,0.0,0.0,0.0,0.0,-0.2,0.0,-0.2,0.0,3
1.64,run,-0.51,3.53,8.35,-13.77,8.64,0.0,-0.032,0.0,0.513,-32.7,8.88,92.37,-21.88,16.96,62.4,-33.93,-7.47,113.12,22.5,-14.06,107.93,10.37,-22.15,89.03,0.26,-10.2,94.66,-27.5,0.0,100.19,-23.0,27.38,51.22,-35.0,-18.02,106.62,11.0,-14.18,99.49,9.09,-29.63,92.64,-3.09,2.4,89.7,1.0,-1.0,1.0,-1.0,1.0,-1.0,-1.0,-1.0,-1.0,-1.0,-0.6907,0.3844,-1.0,-0.1711,1.0,-1.0,0.7808,-1.0,0.006,0.0,0.143,0.019,0.084,0.0,0.026,0.0,0.039,0.143,0.143,0.019,0.019,0.033,0.0,0.026,0.039,0.019,-0.5814,-0.1396,0.2025,-0.4096,0.0046,-0.25,-0.5983,-0.3881,0.5937,0.4126,-0.5415,0.5415,0.1611,-0.6811,0.1887,-0.0077,-0.5031,0.2823,0.0421,-0.2576,0.3129,0.2748,0.2499,-0.314,-0.1518,-0.2949,0.2229,-0.2548,0.1943,-0.2429,0.2638,-0.2886,-0.2587,0.2796,0.2216,0.188,-0.2832,0.1834,0.1795,-0.1519,0.0934,1.0,-1.0,1.0,-1.0,1.0,-0.2604,-1.0,-1.0,-1.0,-1.0,-1.0,0.1364,-1.0,-0.7395,1.0,-1.0,1.0,-1.0,0.0,0.0,0.0,0.0,0.0,0.0,0.0,0.0,0.0,-0.2133,0.0,-0.2133,0.0,3
1.68,run,-0.37,3.21,2.94,-9.55,3.98,0.0,-0.034,0.0,0.513,-31.29,7.56,93.96,-21.09,18.28,60.91,-34.1,-8.96,113.2,20.92,-13.36,106.52,11.25,-23.55,88.42,0.79,-8.88,95.1,-26.0,-1.5,101.69,-24.5,28.88,49.72,-35.0,-19.52,105.12,9.5,-15.68,98.57,7.59,-28.13,94.14,-4.59,0.9,88.2,1.0,-1.0,1.0,-1.0,1.0,-1.0,-1.0,-1.0,-1.0,-1.0,-0.2622,0.3949,-1.0,1.0,1.0,-1.0,-0.0652,-1.0,0.013,0.0,0.065,0.006,0.117,0.0,0.026,0.0,0.006,0.052,0.156,0.026,0.006,0.026,0.006,0.013,0.071,0.0,-0.563,-0.1626,0.2301,-0.3774,0.0276,-0.2761,-0.5983,-0.4096,0.5983,0.385,-0.5216,0.5139,0.1795,-0.7072,0.1733,0.0061,-0.4817,0.2961,0.0986,-0.2667,0.3227,0.3133,0.2613,-0.3177,-0.1063,-0.287,0.1733,-0.282,0.2109,-0.2737,0.2537,-0.2999,-0.2386,0.2475,0.2357,0.1834,-0.2508,0.135,0.1458,-0.2404,0.1507,1.0,-1.0,1.0,-1.0,1.0,-1.0,-1.0,-1.0,-1.0,-1.0,-0.6907,0.3844,-1.0,-0.1711,1.0,-1.0,0.7808,-1.0,0.0,0.0,0.0,0.0,0.0,0.0,0.0,0.0,0.0,-0.2267,0.0,-0.2267,0.0,3
1.72,run,-0.03,2.51,8.79,-20.04,4.73,0.0,-0.036,0.0,0.513,-29.97,6.33,95.62,-20.65,19.6,59.5,-34.1,-10.37,112.85,19.42,-12.92,105.12,11.69,-24.96,88.24,0.97,-7.56,95.19,-24.5,-3.0,103.19,-26.0,30.0,51.22,-35.0,-21.02,103.62,8.0,-17.18,100.07,6.09,-26.63,95.64,-6.09,2.4,86.7,1.0,-1.0,1.0,-1.0,1.0,-0.159,-1.0,-1.0,-1.0,-0.6961,-0.2978,0.5284,-1.0,1.0,1.0,-1.0,0.5416,-1.0,0.013,0.0,0.065,0.006,0.117,0.0,0.026,0.0,0.006,0.052,0.156,0.026,0.006,0.026,0.006,0.013,0.071,0.0,-0.5384,-0.1856,0.2577,-0.3636,0.0506,-0.3022,-0.6013,-0.4357,0.5998,0.3574,-0.5093,0.4893,0.1948,-0.7317,0.1626,0.0153,-0.4587,0.3037,0.161,-0.2729,0.3293,0.271,0.2691,-0.3201,-0.0859,-0.2986,0.127,-0.3009,0.1936,-0.2835,0.2351,-0.3019,-0.2073,0.2078,0.2512,0.1571,-0.2385,0.1066,0.0513,-0.1667,0.0695,1.0,-1.0,1.0,-1.0,1.0,-1.0,-1.0,-1.0,-1.0,-1.0,-0.2622,0.3949,-1.0,1.0,1.0,-1.0,-0.0652,-1.0,0.0,0.0,0.0,0.0,0.0,0.0,0.0,0.0,0.0,-0.24,0.0,-0.24,0.0,3
1.76,run,0.13,2.0,5.24,-14.06,5.22,0.0,-0.038,0.0,0.513,-28.65,5.1,97.12,-20.3,20.83,58.1,-34.1,-11.69,112.06,17.93,-12.74,103.8,11.95,-26.1,88.42,0.79,-6.15,95.01,-23.0,-4.5,104.69,-27.5,28.5,49.72,-35.0,-22.52,102.12,9.46,-15.68,101.57,4.59,-25.13,97.14,-7.59,0.9,85.2,1.0,-1.0,1.0,-1.0,-0.4787,-1.0,-1.0,-1.0,-1.0,0.2702,0.9762,0.8055,-1.0,1.0,1.0,-1.0,-0.5015,-1.0,0.013,0.0,0.065,0.006,0.117,0.0,0.026,0.0,0.006,0.052,0.156,0.026,0.006,0.026,0.006,0.013,0.071,0.0,-0.5154,-0.2071,0.2869,-0.3559,0.0736,-0.3267,-0.6013,-0.4602,0.5937,0.3313,-0.5016,0.4648,0.2025,-0.7563,0.1595,0.0184,-0.4357,0.3053,0.1989,-0.2716,0.3398,0.2185,0.2746,-0.3161,-0.0601,-0.3011,0.0659,-0.3084,0.1643,-0.2905,0.1933,-0.3033,-0.1566,0.1569,0.2621,0.1157,-0.2094,0.046,0.1535,-0.3498,0.0825,1.0,-1.0,1.0,-1.0,1.0,-0.159,-1.0,-1.0,-1.0,-0.6961,-0.2978,0.5284,-1.0,1.0,1.0,-1.0,0.5416,-1.0,0.0,0.0,0.0,0.0,0.0,0.0,0.0,0.0,0.0,-0.2533,0.0,-0.2533,0.0,3
1.8,run,0.78,0.83,4.55,-6.84,-15.1,0.0,-0.04,0.0,0.513,-23.2,-0.35,103.1,-22.24,25.84,52.56,-34.45,-17.05,107.31,12.57,-14.15,100.2,8.7,-27.69,92.72,-3.6,-2.11,90.53,-21.5,-6.0,106.19,-29.0,30.0,51.22,-35.0,-24.02,100.62,10.96,-14.18,103.07,3.09,-23.63,98.64,-9.09,-0.6,83.7,1.0,-1.0,1.0,-1.0,1.0,0.036,-1.0,-1.0,-1.0,1.0,1.0,1.0,-1.0,1.0,0.8488,-1.0,-1.0,-1.0,0.013,0.0,0.019,0.045,0.195,0.0,0.006,0.006,0.033,0.006,0.013,0.026,0.006,0.006,0.006,0.019,0.058,0.006,-0.4924,-0.2286,0.3129,-0.3497,0.0951,-0.3513,-0.6013,-0.4832,0.5798,0.3053,-0.4985,0.4418,0.2071,-0.7762,0.1626,0.0153,-0.4111,0.3022,0.2255,-0.2706,0.3356,0.1759,0.2728,-0.3133,-0.0421,-0.297,-0.0056,-0.3137,0.1265,-0.2896,0.1526,-0.2871,-0.0981,0.0984,0.2755,0.0695,-0.1954,0.0009,0.0914,-0.2455,0.091,1.0,-1.0,1.0,-1.0,-0.4787,-1.0,-1.0,-1.0,-1.0,0.2702,0.9762,0.8055,-1.0,1.0,1.0,-1.0,-0.5015,-1.0,0.0,0.0,0.0,0.0,0.0,0.0,0.0,0.0,0.0,-0.2667,0.0,-0.2667,0.0,3
1.84,run,0.87,-0.1,2.88,-13.86,-13.81,0.0,-0.042,0.0,0.513,-22.15,-2.72,104.68,-24.52,26.81,51.24,-34.63,-19.51,104.77,11.43,-14.77,100.37,6.33,-26.37,95.1,-5.89,-1.32,88.15,-20.0,-7.5,107.69,-30.5,28.5,49.72,-35.0,-22.52,99.12,12.46,-12.68,104.57,1.59,-22.13,97.14,-10.59,-2.1,82.2,1.0,-1.0,1.0,-1.0,-1.0,-0.6152,-1.0,0.0936,-1.0,1.0,1.0,0.8177,-1.0,0.4497,-0.6212,-1.0,0.1389,-1.0,0.013,0.0,0.019,0.045,0.195,0.0,0.006,0.006,0.033,0.006,0.013,0.026,0.006,0.006,0.006,0.019,0.058,0.006,-0.3973,-0.3237,0.4172,-0.3835,0.1825,-0.4479,-0.6075,-0.5768,0.497,0.2117,-0.5231,0.3789,0.1503,-0.8038,0.2378,-0.0614,-0.3405,0.224,0.2465,-0.2781,0.3322,0.0917,0.2724,-0.3094,-0.0352,-0.2951,-0.0811,-0.3068,0.0657,-0.2614,0.0539,-0.2267,0.0014,-0.0026,0.2586,-0.0243,-0.1385,-0.1013,0.0794,-0.1193,-0.2635,1.0,-1.0,1.0,-1.0,1.0,0.036,-1.0,-1.0,-1.0,1.0,1.0,1.0,-1.0,1.0,0.8488,-1.0,-1.0,-1.0,0.0,0.0,0.0,0.0,0.0,0.0,0.0,0.0,0.0,-0.28,0.0,-0.28,0.0,3
1.88,run,1.31,-0.01,14.4,2.39,-10.52,0.0,-0.044,0.0,0.513,-21.8,-4.04,105.38,-25.84,26.89,50.71,-34.72,-20.92,103.45,11.25,-14.85,101.07,5.01,-25.31,96.33,-7.21,-1.32,86.66,-18.5,-9.0,109.19,-32.0,27.0,51.22,-33.5,-21.02,97.62,13.96,-11.18,106.07,0.09,-23.63,95.64,-12.09,-3.6,80.7,1.0,-1.0,1.0,-1.0,-1.0,0.472,0.6796,1.0,-1.0,1.0,1.0,1.0,-1.0,-0.0752,-1.0,-1.0,-1.0,-1.0,0.026,0.0,0.019,0.052,0.156,0.006,0.0,0.006,0.026,0.0,0.033,0.033,0.013,0.006,0.006,0.019,0.013,0.0,-0.3789,-0.3651,0.4449,-0.4234,0.1994,-0.4709,-0.6105,-0.6197,0.4525,0.1917,-0.5338,0.382,0.1089,-0.7808,0.2792,-0.1012,-0.3267,0.1825,0.213,-0.2857,0.2932,-0.0235,0.2278,-0.2671,-0.0314,-0.301,-0.1546,-0.2586,0.0224,-0.1762,-0.0533,-0.1081,0.092,-0.0895,0.2114,-0.108,-0.1303,-0.1821,0.0502,-0.2419,-0.241,1.0,-1.0,1.0,-1.0,-1.0,-0.6152,-1.0,0.0936,-1.0,1.0,1.0,0.8177,-1.0,0.4497,-0.6212,-1.0,0.1389,-1.0,0.0,0.0,0.0,0.0,0.0,0.0,0.0,0.0,0.0,-0.2933,0.0,-0.2933,0.0,3
1.92,run,1.45,-0.17,6.22,-4.04,-7.01,0.0,-0.046,0.0,0.513,-21.36,-5.36,106.0,-27.25,26.89,50.36,-34.72,-21.88,102.13,11.51,-14.85,101.87,3.6,-24.17,97.38,-8.53,-1.32,85.34,-17.0,-10.5,110.69,-33.5,25.5,49.72,-32.0,-19.52,96.12,15.46,-9.68,107.57,-1.41,-22.13,94.14,-13.59,-2.1,79.2,1.0,-1.0,1.0,-1.0,-1.0,-0.3549,1.0,1.0,-1.0,0.7558,1.0,1.0,-1.0,1.0,-1.0,-1.0,0.9231,-1.0,0.026,0.0,0.019,0.052,0.156,0.006,0.0,0.006,0.026,0.0,0.033,0.033,0.013,0.006,0.006,0.019,0.013,0.0,-0.3728,-0.3881,0.4571,-0.4464,0.201,-0.4801,-0.6121,-0.6443,0.4295,0.1887,-0.5354,0.3942,0.0859,-0.7624,0.3007,-0.1243,-0.3267,0.1565,0.1716,-0.2845,0.2503,-0.1009,0.1651,-0.2208,-0.0276,-0.3008,-0.1927,-0.1923,0.01,-0.0783,-0.1218,-0.0081,0.1432,-0.1471,0.148,-0.1713,-0.0919,-0.1745,0.2513,0.0416,-0.1837,1.0,-1.0,1.0,-1.0,-1.0,0.472,0.6796,1.0,-1.0,1.0,1.0,1.0,-1.0,-0.0752,-1.0,-1.0,-1.0,-1.0,0.0,0.0,0.0,0.0,0.0,0.0,0.0,0.0,0.0,-0.3067,0.0,-0.3067,0.0,3
1.96,run,1.21,0.01,-5.17,2.62,-15.24,0.0,-0.048,0.0,0.513,-20.39,-6.77,106.88,-28.56,26.89,50.01,-34.72,-22.85,100.55,11.69,-14.94,102.83,2.2,-23.55,98.0,-9.93,-1.85,83.85,-15.5,-12.0,112.19,-35.0,24.0,51.22,-30.5,-18.02,94.62,13.96,-8.18,109.07,-2.91,-20.63,92.64,-15.09,-3.6,77.7,1.0,-1.0,1.0,-1.0,-1.0,0.5175,1.0,1.0,-1.0,-0.7261,1.0,1.0,-1.0,0.2222,-1.0,-1.0,-0.6842,-1.0,0.026,0.0,0.019,0.052,0.156,0.006,0.0,0.006,0.026,0.0,0.033,0.033,0.013,0.006,0.006,0.019,0.013,0.0,-0.3651,-0.4111,0.4679,-0.4709,0.201,-0.4863,-0.6121,-0.6611,0.4065,0.1933,-0.5354,0.408,0.0614,-0.7424,0.3191,-0.1473,-0.3267,0.1335,0.1493,-0.2866,0.216,-0.1639,0.1156,-0.1779,-0.0193,-0.2747,-0.2224,-0.1171,0.007,-0.0023,-0.1786,0.0701,0.1703,-0.1905,0.1036,-0.2074,-0.0801,-0.1881,0.1086,-0.0705,-0.1224,1.0,-1.0,1.0,-1.0,-1.0,-0.3549,1.0,1.0,-1.0,0.7558,1.0,1.0,-1.0,1.0,-1.0,-1.0,0.9231,-1.0,0.0,0.0,0.0,0.0,0.0,0.0,0.0,0.0,0.0,-0.32,0.0,-0.32,0.0,3
2.0,run,1.59,0.06,7.95,0.45,-17.94,0.0,-0.05,0.0,0.513,-19.25,-8.17,108.11,-30.15,26.81,49.92,-34.01,-23.29,99.23,12.74,-14.68,103.97,0.88,-22.59,98.26,-11.43,-2.46,82.44,-14.0,-13.5,113.69,-35.0,22.5,52.72,-29.0,-16.52,93.12,15.46,-9.68,110.57,-4.41,-22.13,91.14,-16.59,-5.1,76.2,1.0,-1.0,1.0,-1.0,-0.7151,1.0,1.0,1.0,-1.0,1.0,0.0647,1.0,-1.0,-0.1543,-1.0,-1.0,-0.2367,-1.0,0.026,0.0,0.039,0.033,0.006,0.039,0.013,0.006,0.019,0.019,0.325,0.123,0.013,0.019,0.006,0.013,0.0,0.013,-0.3482,-0.4357,0.4832,-0.4939,0.201,-0.4924,-0.6121,-0.678,0.3789,0.1963,-0.5369,0.4249,0.0368,-0.7317,0.3298,-0.1718,-0.3359,0.1074,0.1676,-0.2923,0.2085,-0.2007,0.0809,-0.1474,-0.0135,-0.2553,-0.2588,-0.0705,-0.0008,0.0614,-0.2167,0.0892,0.1593,-0.225,0.0381,-0.2426,-0.1012,-0.1728,-0.0902,0.0458,-0.266,1.0,-1.0,1.0,-1.0,-1.0,0.5175,1.0,1.0,-1.0,-0.7261,1.0,1.0,-1.0,0.2222,-1.0,-1.0,-0.6842,-1.0,0.0,0.0,0.0,0.0,0.0,0.0,0.0,0.0,0.0,-0.3333,0.0,-0.3333,0.0,3
2.04,run,2.36,0.37,17.63,7.32,-8.37,0.0,-0.05,0.0,0.513,-17.84,-9.58,109.34,-31.46,25.84,49.92,-32.87,-23.47,97.73,13.27,-14.24,105.12,-0.53,-21.8,98.26,-12.74,-3.25,81.12,-12.5,-15.0,115.19,-35.0,21.0,54.22,-27.5,-15.02,91.62,13.96,-8.18,112.07,-5.91,-20.63,89.64,-18.09,-3.6,77.7,1.0,-0.3753,1.0,-1.0,-1.0,0.5468,1.0,1.0,-1.0,0.1524,0.5023,1.0,-1.0,1.0,-1.0,-1.0,1.0,0.9469,0.026,0.0,0.039,0.033,0.006,0.039,0.013,0.006,0.019,0.019,0.325,0.123,0.013,0.019,0.006,0.013,0.0,0.013,-0.3283,-0.4602,0.5047,-0.5216,0.1994,-0.4939,-0.5998,-0.6857,0.3559,0.2148,-0.5323,0.4449,0.0138,-0.7148,0.3344,-0.1979,-0.3467,0.0828,0.1923,-0.297,0.2268,-0.2444,0.0509,-0.109,0.0367,-0.2076,-0.2678,0.0199,0.0167,0.118,-0.2383,0.126,0.1288,-0.2557,-0.0137,-0.2622,-0.0681,-0.1682,0.1388,0.0078,-0.313,1.0,-1.0,1.0,-1.0,-0.7151,1.0,1.0,1.0,-1.0,1.0,0.0647,1.0,-1.0,-0.1543,-1.0,-1.0,-0.2367,-1.0,0.0,0.0,0.0,0.0,0.0,0.0,0.0,0.0,0.0,-0.3333,0.0,-0.3333,0.0,3
2.08,run,3.09,0.88,17.39,12.46,-3.78,0.0,-0.05,0.0,0.513,-16.52,-11.16,110.57,-32.7,24.35,50.01,-31.64,-23.47,96.33,14.06,-13.62,106.44,-1.85,-21.27,97.73,-14.06,-4.13,79.72,-11.0,-13.5,113.69,-35.0,19.5,52.72,-26.0,-13.52,90.12,12.46,-9.68,113.57,-7.41,-19.13,88.14,-19.59,-2.1,79.2,1.0,1.0,-1.0,-1.0,-1.0,-0.2857,1.0,1.0,-1.0,-1.0,-0.276,1.0,-1.0,1.0,-1.0,-1.0,1.0,1.0,0.026,0.0,0.039,0.033,0.006,0.039,0.013,0.006,0.019,0.019,0.325,0.123,0.013,0.019,0.006,0.013,0.0,0.013,-0.3037,-0.4847,0.5262,-0.5446,0.1825,-0.4939,-0.5798,-0.6888,0.3298,0.224,-0.5246,0.4648,-0.0107,-0.701,0.3344,-0.2209,-0.3605,0.0598,0.227,-0.3003,0.2396,-0.2577,-0.0279,-0.0763,0.1008,-0.1569,-0.2856,0.0486,0.0406,0.1577,-0.2592,0.1401,0.0902,-0.2656,-0.0616,-0.2702,-0.0002,-0.141,0.3078,0.1277,-0.1461,1.0,-0.3753,1.0,-1.0,-1.0,0.5468,1.0,1.0,-1.0,0.1524,0.5023,1.0,-1.0,1.0,-1.0,-1.0,1.0,0.9469,0.0,0.0,0.0,0.0,0.0,0.0,0.0,0.0,0.0,-0.3333,0.0,-0.3333,0.0,3
2.12,run,3.38,1.44,7.56,14.98,0.54,0.0,-0.05,0.0,0.513,-15.21,-12.57,111.8,-33.57,22.94,50.71,-30.32,-22.76,94.75,14.68,-13.18,107.93,-3.34,-20.83,96.86,-15.64,-4.75,78.4,-9.5,-12.0,112.19,-35.0,18.0,54.22,-24.5,-12.02,88.62,10.96,-11.18,115.07,-8.91,-17.63,86.64,-21.09,-0.6,80.7,1.0,1.0,-1.0,-1.0,-1.0,0.2584,1.0,1.0,-1.0,-1.0,-1.0,1.0,-1.0,1.0,-1.0,-0.7668,1.0,1.0,0.033,0.0,0.039,0.019,0.013,0.254,0.026,0.026,0.006,0.026,0.468,0.214,0.019,0.033,0.006,0.026,0.0,0.0,-0.2807,-0.5123,0.5476,-0.566,0.1565,-0.4924,-0.5584,-0.6888,0.3053,0.2378,-0.5139,0.4878,-0.0337,-0.6918,0.3252,-0.2439,-0.3758,0.0353,0.2453,-0.3139,0.2484,-0.261,-0.1175,-0.0476,0.1512,-0.1098,-0.2921,0.0859,0.0687,0.1968,-0.2678,0.1327,0.0286,-0.2723,-0.1007,-0.2813,0.0629,-0.0967,0.3035,0.2175,-0.0659,1.0,1.0,-1.0,-1.0,-1.0,-0.2857,1.0,1.0,-1.0,-1.0,-0.276,1.0,-1.0,1.0,-1.0,-1.0,1.0,1.0,0.0,0.0,0.0,0.0,0.0,0.0,0.0,0.0,0.0,-0.3333,0.0,-0.3333,0.0,3
2.16,run,3.88,1.57,10.2,3.59,0.57,0.0,-0.05,0.0,0.513,-13.54,-14.06,113.12,-34.19,21.27,51.5,-28.56,-21.62,92.9,14.94,-12.48,109.6,-5.19,-19.51,95.36,-17.58,-5.01,77.26,-8.0,-10.5,110.69,-35.0,16.5,52.72,-23.0,-10.52,87.12,9.46,-12.68,116.57,-10.41,-16.13,85.14,-19.59,0.9,82.2,1.0,1.0,-1.0,-1.0,-1.0,-0.3623,1.0,1.0,-1.0,-1.0,-1.0,1.0,-1.0,1.0,-1.0,-0.3458,1.0,1.0,0.033,0.0,0.039,0.019,0.013,0.254,0.026,0.026,0.006,0.026,0.468,0.214,0.019,0.033,0.006,0.026,0.0,0.0,-0.2577,-0.5369,0.5691,-0.5814,0.1319,-0.4801,-0.5354,-0.6765,0.2777,0.2485,-0.5062,0.5139,-0.0598,-0.6842,0.3099,-0.2715,-0.3866,0.0123,0.2521,-0.3055,0.2489,-0.2363,-0.168,0.0095,0.1862,-0.034,-0.301,0.0976,0.0749,0.2289,-0.2786,0.1197,-0.0336,-0.2871,-0.108,-0.2773,0.0882,-0.0481,0.1319,0.2615,0.0094,1.0,1.0,-1.0,-1.0,-1.0,0.2584,1.0,1.0,-1.0,-1.0,-1.0,1.0,-1.0,1.0,-1.0,-0.7668,1.0,1.0,0.0,0.0,0.0,0.0,0.0,0.0,0.0,0.0,0.0,-0.3333,0.0,-0.3333,0.0,3
2.2,run,4.1,1.59,10.35,4.11,-2.3,0.0,-0.05,0.0,0.513,-12.74,-14.59,113.55,-34.28,20.48,52.29,-27.77,-20.92,91.58,14.77,-11.95,110.3,-6.06,-18.63,94.39,-18.28,-5.01,76.9,-6.5,-9.0,109.19,-35.0,15.0,51.22,-21.5,-9.02,85.62,7.96,-14.18,118.07,-11.91,-14.63,83.64,-18.09,-0.6,83.7,1.0,1.0,-0.7306,-1.0,-1.0,-0.5176,1.0,1.0,-1.0,-1.0,-0.7609,1.0,-1.0,1.0,-0.5658,0.9092,0.1104,1.0,0.033,0.0,0.039,0.019,0.013,0.254,0.026,0.026,0.006,0.026,0.468,0.214,0.019,0.033,0.006,0.026,0.0,0.0,-0.2286,-0.563,0.5921,-0.5921,0.1028,-0.4663,-0.5047,-0.6565,0.2454,0.2531,-0.4939,0.543,-0.092,-0.6611,0.2838,-0.3053,-0.3912,-0.0077,0.2537,-0.2829,0.2352,-0.1939,-0.1948,0.0432,0.2116,0.029,-0.296,0.0805,0.0849,0.2374,-0.2803,0.1447,-0.0926,-0.2904,-0.0878,-0.2469,0.1323,-0.0362,0.178,0.0627,0.0099,1.0,1.0,-1.0,-1.0,-1.0,-0.3623,1.0,1.0,-1.0,-1.0,-1.0,1.0,-1.0,1.0,-1.0,-0.3458,1.0,1.0,0.0,0.0,0.0,0.0,0.0,0.0,0.0,0.0,0.0,-0.3333,0.0,-0.3333,0.0,3
2.24,run,4.21,1.45,3.04,-2.81,-7.26,0.0,-0.05,0.0,0.539,-11.69,-14.85,114.08,-34.28,19.34,53.09,-26.72,-19.95,90.7,14.5,-11.25,111.27,-7.29,-17.58,93.34,-18.98,-4.75,76.82,-5.0,-7.5,110.69,-35.0,13.5,49.72,-20.0,-7.52,84.12,6.46,-15.68,119.57,-13.41,-13.13,82.14,-16.59,-2.1,85.2,1.0,1.0,0.9712,-1.0,-1.0,-1.0,1.0,1.0,-1.0,-1.0,-1.0,1.0,-1.0,1.0,-1.0,0.5723,0.2112,1.0,0.071,0.006,0.019,0.019,0.0,0.312,0.039,0.084,0.013,0.026,0.539,0.422,0.026,0.026,0.006,0.026,0.033,0.006,-0.2148,-0.5722,0.5998,-0.5937,0.089,-0.4525,-0.4909,-0.6443,0.2224,0.25,-0.4847,0.5553,-0.1074,-0.6458,0.2669,-0.3175,-0.3912,-0.0138,0.2447,-0.2428,0.2019,-0.1432,-0.2035,0.0974,0.2153,0.08,-0.3191,0.0414,0.1042,0.2259,-0.2708,0.1759,-0.1469,-0.2629,-0.0615,-0.2027,0.1516,-0.0343,0.1807,0.0718,-0.0401,1.0,1.0,-0.7306,-1.0,-1.0,-0.5176,1.0,1.0,-1.0,-1.0,-0.7609,1.0,-1.0,1.0,-0.5658,0.9092,0.1104,1.0,0.0,0.0,0.0,0.0,0.0,0.0,0.0,0.0,0.0,-0.3333,0.0,-0.3333,0.0,3
2.28,run,4.52,1.25,7.19,-4.12,-1.56,0.0,-0.05,0.0,0.539,-10.63,-15.03,114.08,-34.28,17.93,53.96,-25.66,-18.98,89.56,13.36,-10.72,112.24,-8.53,-16.52,92.11,-19.51,-3.96,76.73,-3.5,-6.0,109.19,-35.0,12.0,48.22,-18.5,-6.02,82.62,4.96,-17.18,121.07,-14.91,-11.63,80.64,-18.09,-3.6,86.7,0.8506,1.0,0.2718,-1.0,-1.0,-0.5728,1.0,1.0,-1.0,-1.0,-0.8946,1.0,-1.0,1.0,-1.0,-0.9807,-1.0,1.0,0.071,0.006,0.019,0.019,0.0,0.312,0.039,0.084,0.013,0.026,0.539,0.422,0.026,0.026,0.006,0.026,0.033,0.006,-0.1963,-0.5768,0.609,-0.5937,0.069,-0.4387,-0.4725,-0.6274,0.2071,0.2454,-0.4725,0.5722,-0.1289,-0.6274,0.2485,-0.3298,-0.3866,-0.0153,0.2399,-0.1871,0.1757,-0.1002,-0.2168,0.1197,0.2193,0.1189,-0.2806,0.0119,0.1187,0.221,-0.2697,0.1918,-0.1715,-0.2298,-0.0259,-0.1476,0.1605,-0.047,0.053,-0.0491,-0.1267,1.0,1.0,0.9712,-1.0,-1.0,-1.0,1.0,1.0,-1.0,-1.0,-1.0,1.0,-1.0,1.0,-1.0,0.5723,0.2112,1.0,0.0,0.0,0.0,0.0,0.0,0.0,0.0,0.0,0.0,-0.3333,0.0,-0.3333,0.0,3
2.32,run,4.88,1.14,7.07,-4.74,-1.75,0.0,-0.05,0.0,0.539,-9.58,-15.03,114.08,-34.28,16.96,54.93,-24.7,-18.11,88.42,12.48,-10.02,113.2,-9.67,-15.38,91.14,-19.69,-3.16,77.34,-2.0,-4.5,107.69,-35.0,10.5,46.72,-17.0,-4.52,81.12,3.46,-18.68,122.57,-16.41,-10.13,82.14,-16.59,-5.1,88.2,0.6752,1.0,-1.0,-1.0,-1.0,-0.5206,1.0,1.0,-1.0,-1.0,-0.7715,1.0,-1.0,1.0,1.0,1.0,-1.0,1.0,0.071,0.006,0.019,0.019,0.0,0.312,0.039,0.084,0.013,0.026,0.539,0.422,0.026,0.026,0.006,0.026,0.033,0.006,-0.1779,-0.5798,0.609,-0.5937,0.0445,-0.4234,-0.4541,-0.6105,0.1871,0.2255,-0.4633,0.589,-0.1503,-0.609,0.227,-0.339,-0.3728,-0.0169,0.2373,-0.1425,0.123,-0.0702,-0.2442,0.1415,0.2229,0.1468,-0.2715,-0.0668,0.1178,0.2183,-0.2697,0.2036,-0.2009,-0.1955,0.0339,-0.1091,0.1882,-0.0639,0.1255,-0.0719,-0.0273,0.8506,1.0,0.2718,-1.0,-1.0,-0.5728,1.0,1.0,-1.0,-1.0,-0.8946,1.0,-1.0,1.0,-1.0,-0.9807,-1.0,1.0,0.0,0.0,0.0,0.0,0.0,0.0,0.0,0.0,0.0,-0.3333,0.0,-0.3333,0.0,3
2.36,run,5.3,1.08,10.14,-2.9,1.55,0.0,-0.05,0.0,0.767,-8.35,-14.94,113.47,-34.19,15.56,55.72,-23.64,-17.14,87.19,11.34,-9.58,114.08,-10.9,-14.24,89.82,-19.34,-2.46,78.13,-3.5,-3.0,106.19,-35.0,9.0,45.22,-15.5,-3.02,79.62,1.96,-20.18,124.07,-17.91,-8.63,80.64,-15.09,-6.6,89.7,-0.1164,1.0,0.0131,-1.0,-1.0,-1.0,1.0,1.0,-1.0,-1.0,0.0589,1.0,-1.0,1.0,-1.0,1.0,-1.0,1.0,0.071,0.123,0.0,0.019,0.006,0.227,0.078,0.149,0.0,0.058,0.767,0.682,0.039,0.019,0.006,0.006,0.033,0.026,-0.1595,-0.5798,0.609,-0.5937,0.0276,-0.4065,-0.4372,-0.5952,0.1672,0.2102,-0.451,0.6059,-0.1703,-0.589,0.2102,-0.3421,-0.359,-0.0061,0.2353,-0.0998,0.0861,-0.0491,-0.2344,0.1625,0.2195,0.1604,-0.265,-0.1045,0.1286,0.2163,-0.2638,0.2175,-0.2041,-0.1484,0.0756,-0.036,0.2191,-0.0739,0.1234,-0.0828,-0.0306,0.6752,1.0,-1.0,-1.0,-1.0,-0.5206,1.0,1.0,-1.0,-1.0,-0.7715,1.0,-1.0,1.0,1.0,1.0,-1.0,1.0,0.0,0.0,0.0,0.0,0.0,0.0,0.0,0.0,0.0,-0.3333,0.0,-0.3333,0.0,3
2.4,run,5.7,0.97,10.24,-3.69,4.85,0.0,-0.05,0.0,0.767,-7.03,-14.24,112.59,-34.19,14.41,56.43,-22.59,-16.0,85.96,10.2,-9.4,115.58,-12.3,-12.92,88.59,-18.72,-1.93,79.1,-5.0,-1.5,104.69,-35.0,7.5,43.72,-14.0,-1.52,78.12,0.46,-21.68,125.57,-19.41,-7.13,79.14,-13.59,-8.1,91.2,-0.1946,1.0,-0.2695,-1.0,-1.0,-1.0,1.0,1.0,-1.0,-1.0,-1.0,1.0,-1.0,1.0,-1.0,1.0,-1.0,1.0,0.071,0.123,0.0,0.019,0.006,0.227,0.078,0.149,0.0,0.058,0.767,0.682,0.039,0.019,0.006,0.006,0.033,0.026,-0.1381,-0.5783,0.5983,-0.5921,0.0031,-0.3927,-0.4188,-0.5783,0.1457,0.1902,-0.4433,0.6213,-0.1917,-0.5691,0.1871,-0.3359,-0.3467,0.0077,0.2452,-0.0641,0.02,-0.0286,-0.256,0.1655,0.2226,0.1755,-0.266,-0.1478,0.1187,0.2088,-0.2651,0.227,-0.2291,-0.0809,0.0989,0.0265,0.2563,-0.079,0.1769,-0.0507,0.0271,-0.1164,1.0,0.0131,-1.0,-1.0,-1.0,1.0,1.0,-1.0,-1.0,0.0589,1.0,-1.0,1.0,-1.0,1.0,-1.0,1.0,0.0,0.0,0.0,0.0,0.0,0.0,0.0,0.0,0.0,-0.3333,0.0,-0.3333,0.0,3
2.44,run,5.92,1.08,6.24,1.34,2.98,0.0,-0.05,0.0,0.767,-5.98,-13.36,111.53,-34.28,13.36,57.13,-21.53,-15.03,84.81,9.32,-9.32,116.81,-13.62,-11.78,87.54,-17.67,-1.32,80.07,-6.5,0.0,103.19,-35.0,6.0,42.22,-12.5,-0.02,76.62,-1.04,-23.18,127.07,-20.91,-5.63,80.64,-12.09,-9.6,92.7,-1.0,1.0,-0.7831,-1.0,-1.0,-1.0,1.0,1.0,-1.0,-1.0,-0.8846,1.0,-1.0,1.0,0.8436,1.0,-1.0,1.0,0.071,0.123,0.0,0.019,0.006,0.227,0.078,0.149,0.0,0.058,0.767,0.682,0.039,0.019,0.006,0.006,0.033,0.026,-0.115,-0.566,0.5829,-0.5921,-0.0169,-0.3804,-0.4004,-0.5584,0.1243,0.1703,-0.4403,0.6473,-0.2163,-0.5461,0.1657,-0.3252,-0.3375,0.0245,0.258,0.0012,-0.0435,-0.02,-0.254,0.1619,0.2249,0.1977,-0.2668,-0.1783,0.0946,0.244,-0.2776,0.2452,-0.2409,-0.0163,0.1038,0.0819,0.2909,-0.0883,0.1787,-0.0644,0.0846,-0.1946,1.0,-0.2695,-1.0,-1.0,-1.0,1.0,1.0,-1.0,-1.0,-1.0,1.0,-1.0,1.0,-1.0,1.0,-1.0,1.0,0.0,0.0,0.0,0.0,0.0,0.0,0.0,0.0,0.0,-0.3333,0.0,-0.3333,0.0,3
2.48,run,6.23,1.49,7.95,9.08,-0.16,0.0,-0.05,0.0,0.767,-5.1,-12.3,110.3,-34.37,11.87,57.74,-20.21,-13.97,83.67,8.17,-8.88,118.3,-15.21,-10.46,86.31,-16.44,-0.88,81.21,-8.0,1.5,101.69,-35.0,4.5,40.72,-11.0,1.48,75.12,-2.54,-24.68,128.57,-22.41,-4.13,82.14,-10.59,-11.1,94.2,-1.0,0.6873,-1.0,-1.0,-1.0,-1.0,1.0,1.0,-1.0,-1.0,-1.0,1.0,-0.8109,1.0,0.4712,1.0,-1.0,1.0,0.026,0.182,0.0,0.013,0.0,0.117,0.058,0.254,0.0,0.104,0.507,0.643,0.013,0.013,0.006,0.0,0.045,0.045,-0.0966,-0.5507,0.5645,-0.5937,-0.0353,-0.3682,-0.382,-0.5415,0.1043,0.1549,-0.4387,0.6688,-0.2393,-0.5262,0.1473,-0.3068,-0.3267,0.0414,0.2496,0.0584,-0.0995,-0.0198,-0.2469,0.1593,0.2265,0.2017,-0.2615,-0.1823,0.072,0.2514,-0.2806,0.2464,-0.2377,0.0576,0.1129,0.1206,0.3104,-0.0789,0.1089,0.0234,0.052,-1.0,1.0,-0.7831,-1.0,-1.0,-1.0,1.0,1.0,-1.0,-1.0,-0.8846,1.0,-1.0,1.0,0.8436,1.0,-1.0,1.0,0.0,0.0,0.0,0.0,0.0,0.0,0.0,0.0,0.0,-0.3333,0.0,-0.3333,0.0,3
2.52,run,6.45,1.85,5.24,8.16,-5.04,0.0,-0.05,0.0,0.767,-4.39,-11.16,109.07,-34.54,10.55,58.18,-18.98,-12.48,82.35,6.94,-8.79,119.88,-16.61,-9.05,85.08,-15.21,-0.62,82.44,-9.5,3.0,100.19,-35.0,3.0,39.22,-9.5,2.98,73.62,-4.04,-26.18,130.07,-20.91,-2.63,83.64,-9.09,-12.6,95.7,-1.0,0.8786,-1.0,-1.0,-1.0,-1.0,1.0,1.0,-1.0,-1.0,-1.0,0.9698,0.1599,1.0,1.0,1.0,-1.0,1.0,0.026,0.182,0.0,0.013,0.0,0.117,0.058,0.254,0.0,0.104,0.507,0.643,0.013,0.013,0.006,0.0,0.045,0.045,-0.0813,-0.5323,0.543,-0.5952,-0.0614,-0.3574,-0.359,-0.5231,0.0844,0.135,-0.431,0.6949,-0.2669,-0.5031,0.1258,-0.2853,-0.3191,0.0614,0.2322,0.1098,-0.1502,-0.0196,-0.2705,0.1518,0.2448,0.2102,-0.2578,-0.2024,0.0791,0.2737,-0.2999,0.2587,-0.2469,0.1208,0.1078,0.1592,0.3371,-0.0432,0.1387,0.1585,-0.0028,-1.0,0.6873,-1.0,-1.0,-1.0,-1.0,1.0,1.0,-1.0,-1.0,-1.0,1.0,-0.8109,1.0,0.4712,1.0,-1.0,1.0,0.0,0.0,0.0,0.0,0.0,0.0,0.0,0.0,0.0,-0.3333,0.0,-0.3333,0.0,3
2.56,run,7.0,2.15,12.98,8.17,-10.78,0.0,-0.05,0.0,0.767,-3.78,-10.02,107.84,-35.07,9.4,58.62,-17.84,-11.34,81.3,5.8,-8.79,121.29,-17.84,-7.91,84.29,-14.15,-0.35,83.58,-11.0,1.5,98.69,-35.0,1.5,37.72,-11.0,4.48,75.12,-5.54,-27.68,128.57,-19.41,-1.13,85.14,-7.59,-14.1,97.2,-1.0,0.0481,-1.0,-1.0,-1.0,-1.0,-0.3982,1.0,0.4291,-1.0,-1.0,-0.686,1.0,1.0,1.0,1.0,-1.0,1.0,0.026,0.182,0.0,0.013,0.0,0.117,0.058,0.254,0.0,0.104,0.507,0.643,0.013,0.013,0.006,0.0,0.045,0.045,-0.069,-0.5123,0.5216,-0.5983,-0.0844,-0.3497,-0.3375,-0.497,0.0614,0.1135,-0.4295,0.7225,-0.2915,-0.4786,0.1043,-0.2638,-0.3145,0.0828,0.2086,0.1517,-0.1857,-0.0252,-0.2757,0.135,0.2519,0.245,-0.2668,-0.2222,0.0612,0.2952,-0.302,0.2732,-0.2534,0.1651,0.0927,0.192,0.3566,-0.0123,0.0915,0.1424,-0.0879,-1.0,0.8786,-1.0,-1.0,-1.0,-1.0,1.0,1.0,-1.0,-1.0,-1.0,0.9698,0.1599,1.0,1.0,1.0,-1.0,1.0,0.0,0.0,0.0,0.0,0.0,0.0,0.0,0.0,0.0,-0.3333,0.0,-0.3333,0.0,3
2.6,run,7.32,2.29,10.55,4.32,-2.91,0.0,-0.05,0.0,0.767,-3.25,-8.96,106.61,-34.89,8.09,58.71,-16.61,-10.37,79.98,4.48,-8.79,122.96,-18.98,-6.77,83.5,-12.92,-0.26,84.9,-12.5,0.0,97.19,-35.0,0.0,39.22,-12.5,5.98,76.62,-7.04,-29.18,127.07,-17.91,0.37,86.64,-6.09,-15.6,98.7,-1.0,-1.0,-1.0,-1.0,-1.0,-0.277,-1.0,1.0,1.0,-1.0,-1.0,-1.0,1.0,1.0,1.0,1.0,-1.0,1.0,0.006,0.208,0.0,0.0,0.0,0.0,0.052,0.319,0.0,0.065,0.208,0.279,0.006,0.019,0.006,0.006,0.019,0.052,-0.0583,-0.4924,0.5001,-0.6075,-0.1043,-0.3421,-0.3175,-0.4771,0.043,0.0936,-0.4295,0.747,-0.3129,-0.4587,0.0905,-0.2454,-0.3099,0.1028,0.1845,0.1777,-0.207,-0.0507,-0.2645,0.122,0.2478,0.243,-0.2528,-0.2271,0.0428,0.2946,-0.2884,0.2627,-0.2269,0.1816,0.0814,0.2059,0.4039,0.0142,0.2265,0.1426,-0.1882,-1.0,0.0481,-1.0,-1.0,-1.0,-1.0,-0.3982,1.0,0.4291,-1.0,-1.0,-0.686,1.0,1.0,1.0,1.0,-1.0,1.0,0.0,0.0,0.0,0.0,0.0,0.0,0.0,0.0,0.0,-0.3333,0.0,-0.3333,0.0,3
2.64,run,7.66,2.59,7.87,5.45,-8.52,0.0,-0.05,0.0,0.767,-3.08,-7.38,104.77,-34.89,6.42,58.54,-15.03,-8.53,78.22,2.64,-8.79,124.89,-20.04,-4.92,82.88,-10.99,-0.26,86.75,-14.0,-1.5,95.69,-35.0,-1.5,40.72,-14.0,7.48,78.12,-8.54,-30.68,125.57,-16.41,1.87,88.14,-4.59,-17.1,100.2,-1.0,-1.0,-1.0,-1.0,-1.0,-0.0496,-1.0,1.0,1.0,-1.0,-1.0,-1.0,1.0,1.0,0.6919,1.0,-1.0,1.0,0.006,0.208,0.0,0.0,0.0,0.0,0.052,0.319,0.0,0.065,0.208,0.279,0.006,0.019,0.006,0.006,0.019,0.052,-0.0491,-0.474,0.4786,-0.6044,-0.1273,-0.3405,-0.2961,-0.4602,0.0199,0.0706,-0.4295,0.7762,-0.3329,-0.4387,0.0767,-0.224,-0.3083,0.1258,0.1655,0.1972,-0.2298,-0.0233,-0.2761,0.0915,0.2584,0.2368,-0.2679,-0.2499,0.03,0.3215,-0.2807,0.2628,-0.2134,0.212,0.063,0.2351,0.4325,0.0261,0.1841,0.0753,-0.0507,-1.0,-1.0,-1.0,-1.0,-1.0,-0.277,-1.0,1.0,1.0,-1.0,-1.0,-1.0,1.0,1.0,1.0,1.0,-1.0,1.0,0.0,0.0,0.0,0.0,0.0,0.0,0.0,0.0,0.0,-0.3333,0.0,-0.3333,0.0,3
2.68,run,7.9,2.87,8.28,5.81,-8.95,0.0,-0.05,0.0,0.767,-3.43,-6.15,103.36,-34.89,5.19,57.57,-14.15,-7.29,77.17,1.05,-8.79,125.77,-20.57,-3.6,82.79,-9.67,-0.62,88.07,-15.5,-3.0,94.19,-35.0,-3.0,42.22,-15.5,8.98,79.62,-10.04,-32.18,124.07,-14.91,3.37,86.64,-3.09,-18.6,101.7,-1.0,-1.0,-1.0,-1.0,-1.0,0.834,-1.0,0.8334,1.0,-1.0,-1.0,-1.0,1.0,1.0,0.0807,1.0,-1.0,1.0,0.006,0.208,0.0,0.0,0.0,0.0,0.052,0.319,0.0,0.065,0.208,0.279,0.006,0.019,0.006,0.006,0.019,0.052,-0.046,-0.4464,0.4464,-0.6044,-0.1565,-0.3436,-0.2684,-0.428,-0.0107,0.0383,-0.4295,0.8099,-0.3513,-0.4065,0.066,-0.1902,-0.3083,0.158,0.1244,0.2146,-0.2502,-0.0163,-0.2741,0.0555,0.2575,0.2551,-0.2726,-0.2643,0.021,0.3186,-0.2476,0.2733,-0.1792,0.242,0.0441,0.2539,0.4621,0.0526,0.1374,0.0951,-0.1486,-1.0,-1.0,-1.0,-1.0,-1.0,-0.0496,-1.0,1.0,1.0,-1.0,-1.0,-1.0,1.0,1.0,0.6919,1.0,-1.0,1.0,0.0,0.0,0.0,0.0,0.0,0.0,0.0,0.0,0.0,-0.3333,0.0,-0.3333,0.0,3
2.72,run,8.26,3.05,10.96,3.58,-7.23,0.0,-0.05,0.0,0.767,-4.31,-5.1,101.87,-34.89,3.87,56.43,-13.45,-6.06,76.38,-0.44,-9.23,126.3,-20.65,-2.29,83.5,-8.61,-1.49,89.47,-17.0,-4.5,92.69,-35.0,-4.5,43.72,-17.0,7.48,81.12,-11.54,-33.68,122.57,-13.41,4.87,85.14,-1.59,-20.1,103.2,-1.0,-1.0,-1.0,-1.0,-1.0,1.0,-1.0,0.5266,1.0,-1.0,-1.0,-1.0,1.0,1.0,-0.4726,1.0,-1.0,1.0,0.026,0.208,0.0,0.0,0.0,0.0,0.039,0.331,0.0,0.033,0.0,0.338,0.0,0.052,0.013,0.006,0.0,0.052,-0.0522,-0.4249,0.4218,-0.6044,-0.1779,-0.3605,-0.2531,-0.4065,-0.0291,0.0107,-0.4295,0.8253,-0.3605,-0.3835,0.0644,-0.1672,-0.3145,0.181,0.0644,0.2297,-0.2659,-0.0114,-0.2713,-0.0236,0.237,0.258,-0.2589,-0.2872,0.0147,0.2798,-0.2074,0.2764,-0.1311,0.2545,0.0082,0.2629,0.4832,0.0768,0.1444,0.1015,-0.1562,-1.0,-1.0,-1.0,-1.0,-1.0,0.834,-1.0,0.8334,1.0,-1.0,-1.0,-1.0,1.0,1.0,0.0807,1.0,-1.0,1.0,0.0,0.0,0.0,0.0,0.0,0.0,0.0,0.0,0.0,-0.3333,0.0,-0.3333,0.0,3
2.76,run,8.32,3.12,4.9,1.18,2.99,0.0,-0.05,0.0,0.767,-5.54,-4.04,100.02,-34.89,2.29,54.76,-13.27,-4.57,75.94,-2.29,-10.81,126.74,-20.21,-0.79,84.29,-6.59,-3.08,91.41,-18.5,-6.0,91.19,-35.0,-6.0,45.22,-18.5,5.98,82.62,-13.04,-35.18,121.07,-11.91,6.37,83.64,-0.09,-21.6,104.7,-1.0,-1.0,-1.0,-1.0,-1.0,1.0,-1.0,0.1053,1.0,-1.0,-1.0,-1.0,1.0,1.0,-0.6486,1.0,-1.0,1.0,0.026,0.208,0.0,0.0,0.0,0.0,0.039,0.331,0.0,0.033,0.0,0.338,0.0,0.052,0.013,0.006,0.0,0.052,-0.0675,-0.4065,0.3958,-0.6044,-0.201,-0.3804,-0.2408,-0.385,-0.043,-0.0153,-0.4372,0.8345,-0.362,-0.3605,0.0767,-0.1488,-0.3298,0.2056,-0.0131,0.2305,-0.285,-0.008,-0.2771,-0.0921,0.2124,0.262,-0.2336,-0.2998,-0.0188,0.2307,-0.151,0.2807,-0.0453,0.2479,-0.0524,0.277,0.514,0.0925,0.1913,0.0626,-0.1263,-1.0,-1.0,-1.0,-1.0,-1.0,1.0,-1.0,0.5266,1.0,-1.0,-1.0,-1.0,1.0,1.0,-0.4726,1.0,-1.0,1.0,0.0,0.0,0.0,0.0,0.0,0.0,0.0,0.0,0.0,-0.3333,0.0,-0.3333,0.0,3
2.8,run,8.08,3.45,-3.55,8.84,-2.72,0.0,-0.05,0.0,0.767,-6.86,-3.52,98.61,-34.89,1.14,53.44,-13.27,-3.43,75.94,-3.69,-11.87,126.91,-19.34,0.35,84.73,-5.27,-4.39,92.9,-20.0,-7.5,89.69,-35.0,-7.5,46.72,-20.0,4.48,84.12,-14.54,-36.68,119.57,-10.41,4.87,82.14,1.41,-23.1,106.2,-1.0,-1.0,-1.0,-1.0,-1.0,1.0,-1.0,-0.8287,1.0,-1.0,-1.0,-1.0,1.0,0.0553,-0.7845,1.0,-1.0,1.0,0.026,0.208,0.0,0.0,0.0,0.0,0.039,0.331,0.0,0.033,0.0,0.338,0.0,0.052,0.013,0.006,0.0,0.052,-0.089,-0.3881,0.3636,-0.6044,-0.2286,-0.4096,-0.2378,-0.359,-0.0506,-0.0476,-0.4648,0.8422,-0.3543,-0.3344,0.0905,-0.1135,-0.3574,0.2393,-0.074,0.2169,-0.2967,-0.0056,-0.2774,-0.1524,0.1579,0.2621,-0.1867,-0.3071,-0.0965,0.1847,-0.0825,0.2752,0.01,0.2801,-0.12,0.2958,0.5192,0.0993,0.0855,0.0206,0.0521,-1.0,-1.0,-1.0,-1.0,-1.0,1.0,-1.0,0.1053,1.0,-1.0,-1.0,-1.0,1.0,1.0,-0.6486,1.0,-1.0,1.0,0.0,0.0,0.0,0.0,0.0,0.0,0.0,0.0,0.0,-0.3333,0.0,-0.3333,0.0,3
2.84,run,7.98,3.33,-1.3,-1.14,-14.26,0.0,-0.05,0.0,0.767,-8.26,-3.34,97.21,-34.89,0.26,52.12,-13.36,-2.29,75.94,-5.01,-13.27,126.83,-18.37,1.49,84.73,-3.78,-5.8,94.31,-21.5,-9.0,88.19,-35.0,-9.0,48.22,-21.5,2.98,85.62,-16.04,-38.18,118.07,-8.91,3.37,80.64,2.91,-24.6,107.7,-1.0,-1.0,-1.0,-1.0,-1.0,1.0,-1.0,-1.0,1.0,-1.0,-1.0,-1.0,1.0,-1.0,-0.1457,1.0,-1.0,1.0,0.058,0.156,0.0,0.0,0.019,0.013,0.006,0.702,0.058,0.058,0.0,0.0,0.006,0.104,0.006,0.019,0.0,0.045,-0.112,-0.3789,0.339,-0.6044,-0.2485,-0.4326,-0.2378,-0.339,-0.0506,-0.0721,-0.4832,0.8452,-0.339,-0.3145,0.0982,-0.0905,-0.3804,0.2654,-0.1374,0.1861,-0.299,-0.0039,-0.2683,-0.1923,0.1106,0.2577,-0.1307,-0.3063,-0.136,0.1407,-0.0007,0.2668,0.0355,0.2816,-0.1696,0.3041,0.4986,0.1276,-0.0619,0.1542,-0.0475,-1.0,-1.0,-1.0,-1.0,-1.0,1.0,-1.0,-0.8287,1.0,-1.0,-1.0,-1.0,1.0,0.0553,-0.7845,1.0,-1.0,1.0,0.0,0.0,0.0,0.0,0.0,0.0,0.0,0.0,0.0,-0.3333,0.0,-0.3333,0.0,3
2.88,run,8.08,3.99,2.99,13.07,-3.12,0.0,-0.05,0.0,0.767,-10.02,-3.25,95.54,-34.28,-1.76,50.45,-14.15,-1.05,76.55,-6.77,-14.85,125.6,-16.96,2.64,84.11,-2.29,-7.47,96.15,-23.0,-10.5,86.69,-35.0,-10.5,49.72,-23.0,1.48,87.12,-17.54,-39.68,116.57,-7.41,1.87,82.14,4.41,-26.1,109.2,-1.0,-1.0,-1.0,-1.0,-1.0,1.0,-1.0,-1.0,1.0,-1.0,-1.0,-1.0,1.0,-1.0,1.0,1.0,-1.0,1.0,0.058,0.156,0.0,0.0,0.019,0.013,0.006,0.702,0.058,0.058,0.0,0.0,0.006,0.104,0.006,0.019,0.0,0.045,-0.1365,-0.3758,0.3145,-0.6044,-0.2638,-0.4556,-0.2393,-0.3191,-0.0506,-0.0951,-0.5077,0.8437,-0.3221,-0.2945,0.0982,-0.0644,-0.405,0.2899,-0.1888,0.1419,-0.302,-0.0027,-0.2457,-0.2215,0.0716,0.2557,-0.0915,-0.3013,-0.1879,0.0927,0.0632,0.2621,0.0249,0.2956,-0.2114,0.3055,0.4897,0.1175,-0.0228,-0.0199,-0.2488,-1.0,-1.0,-1.0,-1.0,-1.0,1.0,-1.0,-1.0,1.0,-1.0,-1.0,-1.0,1.0,-1.0,-0.1457,1.0,-1.0,1.0,0.0,0.0,0.0,0.0,0.0,0.0,0.0,0.0,0.0,-0.3333,0.0,-0.3333,0.0,3
2.92,run,8.13,4.54,1.83,14.55,-3.97,0.0,-0.05,0.0,0.767,-11.43,-3.25,94.13,-34.89,-3.16,49.48,-15.21,-0.79,77.43,-8.17,-16.17,124.37,-15.38,3.16,83.41,-0.88,-8.88,97.56,-24.5,-12.0,85.19,-35.0,-12.0,51.22,-24.5,-0.02,88.62,-19.04,-41.18,115.07,-5.91,0.37,83.64,5.91,-27.6,110.7,-1.0,-1.0,-1.0,-1.0,-1.0,1.0,-1.0,-1.0,1.0,-1.0,-1.0,-1.0,1.0,-1.0,0.9612,1.0,-1.0,1.0,0.058,0.156,0.0,0.0,0.019,0.013,0.006,0.702,0.058,0.058,0.0,0.0,0.006,0.104,0.006,0.019,0.0,0.045,-0.1672,-0.3743,0.2853,-0.5937,-0.2991,-0.4847,-0.2531,-0.2976,-0.0399,-0.1258,-0.5354,0.8222,-0.2976,-0.2746,0.0874,-0.0383,-0.4341,0.3221,-0.2248,0.1039,-0.2994,0.0305,-0.2785,-0.243,0.0084,0.2438,-0.0316,-0.3035,-0.2149,0.0,0.1184,0.2437,-0.015,0.2857,-0.236,0.3111,0.4989,0.1752,0.0522,0.2282,-0.0544,-1.0,-1.0,-1.0,-1.0,-1.0,1.0,-1.0,-1.0,1.0,-1.0,-1.0,-1.0,1.0,-1.0,1.0,1.0,-1.0,1.0,0.0,0.0,0.0,0.0,0.0,0.0,0.0,0.0,0.0,-0.3333,0.0,-0.3333,0.0,3
2.96,run,8.13,4.83,1.34,8.0,-4.89,0.0,-0.05,0.0,1.085,-12.92,-3.52,92.64,-34.89,-4.57,48.78,-16.0,-0.79,78.57,-9.58,-17.4,122.96,-14.15,3.52,82.62,0.53,-10.28,98.96,-26.0,-13.5,83.69,-33.5,-13.5,52.72,-26.0,-1.52,90.12,-20.54,-42.68,113.57,-4.41,-1.13,85.14,7.41,-29.1,112.2,-1.0,-1.0,-1.0,-0.1264,-1.0,1.0,-1.0,-1.0,1.0,-1.0,-1.0,-1.0,1.0,-1.0,1.0,1.0,-1.0,1.0,0.033,0.0,0.0,0.0,0.026,0.006,0.026,1.085,0.163,0.045,0.0,0.0,0.026,0.052,0.006,0.045,0.006,0.039,-0.1917,-0.3743,0.2608,-0.6044,-0.3237,-0.5016,-0.2715,-0.293,-0.0245,-0.1503,-0.5584,0.8007,-0.27,-0.2654,0.0752,-0.0138,-0.4587,0.3467,-0.2489,0.0727,-0.3011,-0.0187,-0.2865,-0.233,-0.0627,0.1878,0.0351,-0.304,-0.2362,-0.08,0.1858,0.2049,-0.0563,0.2915,-0.2567,0.3093,0.5029,0.2229,0.032,0.254,-0.0694,-1.0,-1.0,-1.0,-1.0,-1.0,1.0,-1.0,-1.0,1.0,-1.0,-1.0,-1.0,1.0,-1.0,0.9612,1.0,-1.0,1.0,0.0,0.0,0.0,0.0,0.0,0.0,0.0,0.0,0.0,-0.3333,0.0,-0.3333,0.0,3
3.0,run,8.1,5.29,1.07,10.54,-9.18,0.0,-0.05,0.0,1.085,-14.33,-4.57,91.32,-34.63,-5.98,48.34,-17.58,-0.79,79.8,-10.99,-18.54,121.64,-12.83,3.52,82.35,1.76,-11.78,100.46,-24.5,-15.0,82.19,-32.0,-15.0,54.22,-27.5,-3.02,91.62,-22.04,-44.18,112.07,-2.91,-2.63,86.64,8.91,-30.6,113.7,-0.579,-1.0,-1.0,1.0,-1.0,1.0,-1.0,-1.0,1.0,-1.0,-1.0,-1.0,1.0,-1.0,1.0,1.0,-1.0,1.0,0.033,0.0,0.0,0.0,0.026,0.006,0.026,1.085,0.163,0.045,0.0,0.0,0.026,0.052,0.006,0.045,0.006,0.039,-0.2178,-0.3789,0.2347,-0.6044,-0.3482,-0.5139,-0.2853,-0.293,-0.0046,-0.1749,-0.5798,0.7762,-0.2485,-0.2592,0.0614,0.0107,-0.4832,0.3712,-0.2718,0.0337,-0.3083,-0.0131,-0.2924,-0.209,-0.0956,0.1315,0.0992,-0.3046,-0.2457,-0.1478,0.2104,0.1664,-0.091,0.2958,-0.2715,0.3083,0.5028,0.2479,0.0233,0.1396,-0.0854,-1.0,-1.0,-1.0,-0.1264,-1.0,1.0,-1.0,-1.0,1.0,-1.0,-1.0,-1.0,1.0,-1.0,1.0,1.0,-1.0,1.0,0.0,0.0,0.0,0.0,0.0,0.0,0.0,0.0,0.0,-0.3333,0.0,-0.3333,0.0,3
3.04,run,8.07,6.04,0.76,18.94,0.02,0.0,-0.05,0.0,1.085,-15.82,-5.8,89.82,-34.54,-7.38,48.34,-18.9,-0.79,81.04,-12.66,-19.86,120.59,-11.43,3.43,82.09,3.16,-13.18,101.78,-23.0,-16.5,80.69,-30.5,-16.5,55.72,-29.0,-4.52,93.12,-23.54,-45.68,110.57,-1.41,-4.13,88.14,10.41,-32.1,115.2,0.0239,-0.469,-0.4139,1.0,-1.0,1.0,-1.0,-1.0,1.0,-1.0,-1.0,-1.0,1.0,-1.0,1.0,1.0,-1.0,1.0,0.033,0.0,0.0,0.0,0.026,0.006,0.026,1.085,0.163,0.045,0.0,0.0,0.026,0.052,0.006,0.045,0.006,0.039,-0.2424,-0.3973,0.2117,-0.5998,-0.3728,-0.5216,-0.3129,-0.293,0.0169,-0.1994,-0.5998,0.7532,-0.2255,-0.2592,0.0568,0.0322,-0.5093,0.3973,-0.2822,-0.0454,-0.302,0.0081,-0.2966,-0.1751,-0.1703,0.092,0.1499,-0.3052,-0.2467,-0.1897,0.2335,0.1165,-0.081,0.2876,-0.2878,0.3135,0.5,0.2882,0.0187,0.1839,-0.1602,-0.579,-1.0,-1.0,1.0,-1.0,1.0,-1.0,-1.0,1.0,-1.0,-1.0,-1.0,1.0,-1.0,1.0,1.0,-1.0,1.0,0.0,0.0,0.0,0.0,0.0,0.0,0.0,0.0,0.0,-0.3333,0.0,-0.3333,0.0,3
3.08,run,7.71,6.68,-9.66,16.66,18.38,0.0,-0.05,0.0,1.085,-17.23,-7.21,88.51,-33.84,-8.79,48.87,-20.21,-0.79,82.44,-14.15,-20.74,118.92,-10.02,2.37,82.44,4.39,-14.77,103.18,-21.5,-15.0,79.19,-29.0,-18.0,57.22,-30.5,-6.02,94.62,-25.04,-47.18,109.07,0.09,-5.63,89.64,11.91,-33.6,116.7,0.1608,0.8969,-0.1341,1.0,-1.0,1.0,-1.0,-1.0,1.0,-1.0,-1.0,-1.0,1.0,-1.0,1.0,1.0,-1.0,1.0,0.045,0.0,0.0,0.019,0.033,0.013,0.045,0.552,0.156,0.019,0.026,0.013,0.013,0.013,0.026,0.084,0.0,0.058,-0.2684,-0.4188,0.1856,-0.5983,-0.3973,-0.5216,-0.3359,-0.293,0.0383,-0.2286,-0.6228,0.7348,-0.201,-0.2608,0.0522,0.0568,-0.5338,0.4203,-0.2952,-0.1122,-0.3091,0.0114,-0.2996,-0.1225,-0.2055,0.0644,0.1854,-0.3228,-0.2589,-0.2018,0.2554,0.0758,-0.0739,0.2933,-0.2934,0.3057,0.4976,0.3535,0.0132,0.3305,0.0003,0.0239,-0.469,-0.4139,1.0,-1.0,1.0,-1.0,-1.0,1.0,-1.0,-1.0,-1.0,1.0,-1.0,1.0,1.0,-1.0,1.0,0.0,0.0,0.0,0.0,0.0,0.0,0.0,0.0,0.0,-0.3333,0.0,-0.3333,0.0,3
3.12,run,7.35,7.64,-10.72,22.65,15.79,0.0,-0.05,0.0,1.085,-18.54,-8.53,87.19,-32.7,-10.2,49.75,-21.36,-0.88,83.94,-15.64,-22.24,117.6,-8.44,1.41,83.06,5.71,-16.35,104.5,-20.0,-13.5,77.69,-27.5,-19.5,58.72,-32.0,-7.52,96.12,-26.54,-48.68,107.57,1.59,-7.13,91.14,13.41,-35.1,118.2,0.6287,1.0,-0.3785,1.0,-1.0,1.0,-1.0,-1.0,1.0,-1.0,-1.0,-1.0,1.0,-1.0,1.0,1.0,-1.0,1.0,0.045,0.0,0.0,0.019,0.033,0.013,0.045,0.552,0.156,0.019,0.026,0.013,0.013,0.013,0.026,0.084,0.0,0.058,-0.293,-0.4433,0.1626,-0.586,-0.4218,-0.5123,-0.359,-0.293,0.0629,-0.2546,-0.6381,0.7056,-0.1764,-0.2792,0.0583,0.0782,-0.5614,0.4449,-0.2989,-0.1707,-0.3028,0.0541,-0.3019,-0.0512,-0.2302,0.0451,0.2219,-0.3239,-0.2388,-0.2507,0.271,-0.0161,-0.0287,0.2859,-0.3091,0.3062,0.4664,0.4097,-0.1685,0.2908,0.3209,0.1608,0.8969,-0.1341,1.0,-1.0,1.0,-1.0,-1.0,1.0,-1.0,-1.0,-1.0,1.0,-1.0,1.0,1.0,-1.0,1.0,0.0,0.0,0.0,0.0,0.0,0.0,0.0,0.0,0.0,-0.3333,0.0,-0.3333,0.0,3
3.16,run,7.49,8.31,1.75,13.61,6.15,0.0,-0.05,0.0,1.085,-19.86,-10.2,85.43,-31.64,-11.95,51.06,-22.68,-0.97,85.52,-17.31,-24.08,115.84,-6.86,-0.26,84.2,7.47,-18.11,106.08,-18.5,-12.0,79.19,-26.0,-21.0,60.22,-33.5,-9.02,97.62,-28.04,-50.18,106.07,3.09,-8.63,92.64,14.91,-36.6,119.7,0.5304,1.0,0.3919,1.0,-1.0,1.0,-1.0,-1.0,1.0,-1.0,-1.0,-1.0,1.0,-1.0,1.0,1.0,-1.0,1.0,0.045,0.0,0.0,0.019,0.033,0.013,0.045,0.552,0.156,0.019,0.026,0.013,0.013,0.013,0.026,0.084,0.0,0.058,-0.316,-0.4663,0.1396,-0.566,-0.4464,-0.497,-0.3789,-0.2945,0.089,-0.2807,-0.6642,0.6826,-0.1488,-0.2961,0.069,0.1012,-0.589,0.4679,-0.2955,-0.2058,-0.2983,0.1126,-0.3034,0.0217,-0.236,0.0258,0.2532,-0.3246,-0.265,-0.2618,0.2932,-0.0746,0.0202,0.2865,-0.3199,0.3006,0.4344,0.4932,-0.1872,0.3954,0.2756,0.6287,1.0,-0.3785,1.0,-1.0,1.0,-1.0,-1.0,1.0,-1.0,-1.0,-1.0,1.0,-1.0,1.0,1.0,-1.0,1.0,0.0,0.0,0.0,0.0,0.0,0.0,0.0,0.0,0.0,-0.3333,0.0,-0.3333,0.0,3
3.2,run,7.36,8.67,-3.73,8.78,9.18,0.0,-0.05,0.0,1.085,-20.48,-11.25,84.29,-29.62,-13.1,52.21,-23.64,-1.67,86.57,-18.46,-25.14,114.7,-5.71,-1.49,85.25,8.53,-19.25,107.14,-17.0,-10.5,77.69,-24.5,-22.5,61.72,-35.0,-10.52,99.12,-29.54,-48.68,104.57,4.59,-10.13,94.14,16.41,-38.1,121.2,0.1594,1.0,-0.2082,1.0,-1.0,1.0,-1.0,-1.0,1.0,-1.0,-0.2995,-1.0,1.0,-1.0,1.0,1.0,-1.0,1.0,0.019,0.0,0.0,0.0,0.026,0.013,0.104,0.091,0.201,0.019,0.019,0.013,0.026,0.0,0.045,0.143,0.0,0.078,-0.339,-0.4955,0.1089,-0.5476,-0.4771,-0.474,-0.4019,-0.2961,0.1166,-0.3099,-0.6964,0.6519,-0.1212,-0.3252,0.089,0.1319,-0.6197,0.4955,-0.2798,-0.2364,-0.306,0.1372,-0.3096,0.0881,-0.2381,0.0132,0.2647,-0.3195,-0.2876,-0.2805,0.2928,-0.1445,0.0773,0.2977,-0.3212,0.2979,0.4466,0.5517,0.0305,0.2376,0.1073,0.5304,1.0,0.3919,1.0,-1.0,1.0,-1.0,-1.0,1.0,-1.0,-1.0,-1.0,1.0,-1.0,1.0,1.0,-1.0,1.0,0.0,0.0,0.0,0.0,0.0,0.0,0.0,0.0,0.0,-0.3333,0.0,-0.3333,0.0,3
3.24,run,6.92,8.51,-9.3,-6.44,7.37,0.0,-0.05,0.0,1.085,-21.09,-12.04,82.88,-28.56,-14.41,53.7,-24.79,-3.16,87.89,-19.95,-26.54,113.29,-4.39,-2.81,86.75,9.84,-20.65,108.54,-15.5,-9.0,76.19,-23.0,-24.0,63.22,-35.0,-12.02,100.62,-31.04,-47.18,103.07,6.09,-11.63,95.64,17.91,-39.6,122.7,0.2551,1.0,0.0608,1.0,-1.0,1.0,-1.0,-1.0,1.0,-1.0,-0.3179,-1.0,1.0,-1.0,1.0,1.0,-0.9926,1.0,0.019,0.0,0.0,0.0,0.026,0.013,0.104,0.091,0.201,0.019,0.019,0.013,0.026,0.0,0.045,0.143,0.0,0.078,-0.3497,-0.5139,0.089,-0.5123,-0.497,-0.4541,-0.4188,-0.3083,0.135,-0.3298,-0.7148,0.632,-0.1012,-0.3467,0.1074,0.1503,-0.6397,0.5139,-0.2454,-0.2505,-0.3063,0.2589,-0.3088,0.1537,-0.2446,-0.0474,0.2703,-0.3157,-0.2863,-0.2884,0.297,-0.2003,0.1391,0.2934,-0.3169,0.2935,0.4358,0.5832,-0.0651,0.1532,0.1602,0.1594,1.0,-0.2082,1.0,-1.0,1.0,-1.0,-1.0,1.0,-1.0,-0.2995,-1.0,1.0,-1.0,1.0,1.0,-1.0,1.0,0.0,0.0,0.0,0.0,0.0,0.0,0.0,0.0,0.0,-0.3333,0.0,-0.3333,0.0,3
3.28,run,6.33,8.11,-12.41,-10.14,2.96,0.0,-0.05,0.0,1.085,-21.27,-12.74,81.56,-27.86,-15.82,55.02,-26.1,-4.48,89.03,-21.27,-28.04,111.88,-3.08,-4.22,88.24,11.43,-21.97,109.86,-14.0,-10.5,74.69,-21.5,-25.5,64.72,-35.0,-13.52,102.12,-32.54,-45.68,101.57,7.59,-13.13,97.14,19.41,-41.1,124.2,-0.1099,0.2584,-0.2976,1.0,-1.0,1.0,-1.0,-1.0,1.0,-1.0,0.5964,-1.0,1.0,-1.0,1.0,1.0,-1.0,1.0,0.019,0.0,0.0,0.0,0.026,0.013,0.104,0.091,0.201,0.019,0.019,0.013,0.026,0.0,0.045,0.143,0.0,0.078,-0.3605,-0.5277,0.0644,-0.4939,-0.52,-0.428,-0.4387,-0.3344,0.158,-0.3559,-0.7394,0.6075,-0.0782,-0.3697,0.1335,0.1733,-0.6642,0.5384,-0.212,-0.2271,-0.3063,0.2502,-0.3024,0.2053,-0.2459,-0.1309,0.2754,-0.3187,-0.2924,-0.2938,0.2941,-0.2264,0.1951,0.2916,-0.3138,0.2974,0.397,0.5696,-0.1623,-0.1124,0.1286,0.2551,1.0,0.0608,1.0,-1.0,1.0,-1.0,-1.0,1.0,-1.0,-0.3179,-1.0,1.0,-1.0,1.0,1.0,-0.9926,1.0,0.0,0.0,0.0,0.0,0.0,0.0,0.0,0.0,0.0,-0.3333,0.0,-0.3333,0.0,3
3.32,run,5.79,7.72,-13.75,-11.88,2.61,0.0,-0.05,0.0,1.085,-21.09,-13.1,80.16,-25.49,-17.31,56.43,-27.25,-5.62,90.35,-22.68,-29.44,110.48,-1.67,-5.71,89.47,13.01,-23.47,111.36,-15.5,-12.0,76.19,-20.0,-27.0,66.22,-35.0,-15.02,103.62,-34.04,-44.18,100.07,9.09,-14.63,98.64,20.91,-39.6,125.7,-0.6457,-0.4591,0.1541,1.0,-0.2332,1.0,-1.0,-1.0,1.0,-1.0,1.0,-1.0,1.0,-1.0,1.0,1.0,-0.2576,1.0,0.013,0.0,0.006,0.0,0.033,0.006,0.208,0.065,0.279,0.019,0.019,0.013,0.039,0.0,0.104,0.058,0.0,0.078,-0.3636,-0.54,0.0414,-0.4817,-0.5446,-0.405,-0.4617,-0.3574,0.1779,-0.3789,-0.7655,0.5829,-0.0552,-0.3942,0.1595,0.201,-0.6872,0.5614,-0.1599,-0.2048,-0.3005,0.221,-0.3034,0.2298,-0.2582,-0.1777,0.2674,-0.3092,-0.3022,-0.2975,0.2919,-0.2503,0.2341,0.3074,-0.3057,0.2943,0.3458,0.5341,-0.2166,-0.177,0.0517,-0.1099,0.2584,-0.2976,1.0,-1.0,1.0,-1.0,-1.0,1.0,-1.0,0.5964,-1.0,1.0,-1.0,1.0,1.0,-1.0,1.0,0.0,0.0,0.0,0.0,0.0,0.0,0.0,0.0,0.0,-0.3333,0.0,-0.3333,0.0,3
3.36,run,5.43,7.14,-8.21,-11.26,-3.3,0.0,-0.05,0.0,1.085,-20.13,-13.18,78.66,-24.61,-19.07,58.27,-28.74,-7.56,92.02,-24.52,-31.2,108.63,-0.09,-7.47,91.14,14.85,-25.22,113.2,-17.0,-13.5,77.04,-18.5,-25.5,67.72,-35.0,-16.52,105.12,-35.0,-42.68,98.57,10.59,-16.13,100.14,22.41,-38.1,127.2,-0.9955,-1.0,0.1416,1.0,1.0,1.0,-1.0,-1.0,1.0,-1.0,1.0,-1.0,1.0,-1.0,1.0,1.0,1.0,1.0,0.013,0.0,0.006,0.0,0.033,0.006,0.208,0.065,0.279,0.019,0.019,0.013,0.039,0.0,0.104,0.058,0.0,0.078,-0.3605,-0.5461,0.0169,-0.4403,-0.5706,-0.3804,-0.4817,-0.3774,0.201,-0.4034,-0.79,0.5584,-0.0307,-0.4203,0.181,0.2286,-0.7133,0.5875,-0.1004,-0.1664,-0.3024,0.31,-0.3102,0.2528,-0.2555,-0.1991,0.2734,-0.3084,-0.3035,-0.3002,0.2964,-0.273,0.2444,0.3187,-0.3117,0.3037,0.2987,0.5003,-0.2399,-0.2074,0.0456,-0.6457,-0.4591,0.1541,1.0,-0.2332,1.0,-1.0,-1.0,1.0,-1.0,1.0,-1.0,1.0,-1.0,1.0,1.0,-0.2576,1.0,0.0,0.0,0.0,0.0,0.0,0.0,0.0,0.0,0.0,-0.3333,0.0,-0.3333,0.0,3
3.4,run,4.81,6.36,-11.43,-14.59,2.46,0.0,-0.05,0.0,1.085,-18.81,-12.83,77.43,-22.41,-21.01,60.12,-30.32,-9.32,93.78,-26.37,-33.05,106.88,1.58,-9.23,92.99,16.88,-26.89,115.05,-18.5,-15.0,78.54,-17.0,-24.0,69.22,-35.0,-18.02,106.62,-35.0,-41.18,97.07,12.09,-17.63,101.64,23.91,-36.6,125.7,-0.9581,-1.0,0.6048,1.0,1.0,1.0,-1.0,-1.0,1.0,-1.0,1.0,-1.0,1.0,-1.0,1.0,1.0,1.0,0.666,0.006,0.0,0.0,0.006,0.026,0.006,0.26,0.071,0.292,0.013,0.019,0.013,0.052,0.0,0.045,0.039,0.0,0.058,-0.3436,-0.5476,-0.0092,-0.4249,-0.6013,-0.3482,-0.5077,-0.4111,0.2301,-0.4357,-0.8207,0.5262,-0.0031,-0.451,0.2102,0.2608,-0.744,0.6197,-0.0199,-0.1211,-0.2896,0.2628,-0.3088,0.2732,-0.2567,-0.2402,0.2785,-0.3121,-0.3041,-0.3064,0.2899,-0.2827,0.2581,0.3193,-0.3099,0.3088,0.2669,0.4498,-0.1432,-0.1966,-0.0576,-0.9955,-1.0,0.1416,1.0,1.0,1.0,-1.0,-1.0,1.0,-1.0,1.0,-1.0,1.0,-1.0,1.0,1.0,1.0,1.0,0.0,0.0,0.0,0.0,0.0,0.0,0.0,0.0,0.0,-0.3333,0.0,-0.3333,0.0,3
3.44,run,4.51,5.87,-7.92,-16.0,3.16,0.0,-0.05,0.0,1.085,-18.02,-12.39,76.82,-21.36,-21.97,61.26,-31.29,-10.55,95.01,-27.51,-34.28,105.64,2.9,-10.55,94.31,18.19,-28.04,116.28,-20.0,-16.5,80.04,-15.5,-22.5,70.72,-35.0,-19.52,108.12,-35.0,-39.68,95.57,13.59,-19.13,103.14,25.41,-35.1,127.2,-1.0,-1.0,0.4606,1.0,1.0,1.0,-1.0,-1.0,1.0,-1.0,1.0,-1.0,1.0,-1.0,1.0,1.0,1.0,0.7703,0.006,0.0,0.0,0.006,0.026,0.006,0.26,0.071,0.292,0.013,0.019,0.013,0.052,0.0,0.045,0.039,0.0,0.058,-0.3206,-0.5415,-0.0307,-0.3866,-0.6351,-0.316,-0.5354,-0.4418,0.2608,-0.4679,-0.8529,0.4955,0.0261,-0.4817,0.2424,0.2961,-0.7731,0.6519,0.0526,-0.067,-0.2648,0.2948,-0.3137,0.2844,-0.2595,-0.2568,0.2836,-0.3116,-0.306,-0.3032,0.2872,-0.2866,0.2738,0.3255,-0.3012,0.3093,0.2129,0.3821,-0.1996,-0.2547,0.0429,-0.9581,-1.0,0.6048,1.0,1.0,1.0,-1.0,-1.0,1.0,-1.0,1.0,-1.0,1.0,-1.0,1.0,1.0,1.0,0.666,0.0,0.0,0.0,0.0,0.0,0.0,0.0,0.0,0.0,-0.3333,0.0,-0.3333,0.0,3
3.48,run,3.86,5.28,-14.32,-16.13,3.13,0.0,-0.05,0.0,1.085,-17.4,-12.3,76.38,-19.86,-23.12,62.75,-32.34,-11.95,96.5,-28.92,-35.68,104.24,4.22,-12.04,95.62,19.69,-29.36,117.86,-21.5,-18.0,81.54,-14.0,-21.0,72.22,-35.0,-21.02,109.62,-35.0,-38.18,94.07,15.09,-20.63,104.64,26.91,-33.6,128.7,-1.0,-1.0,0.2517,1.0,1.0,1.0,-1.0,-1.0,1.0,-1.0,1.0,-1.0,1.0,-1.0,1.0,1.0,1.0,0.8264,0.006,0.0,0.0,0.006,0.026,0.006,0.26,0.071,0.292,0.013,0.019,0.013,0.052,0.0,0.045,0.039,0.0,0.058,-0.3068,-0.5338,-0.0414,-0.3682,-0.6519,-0.2961,-0.5522,-0.4633,0.2823,-0.4878,-0.8744,0.474,0.0491,-0.5047,0.2654,0.3191,-0.7931,0.6734,0.099,-0.0124,-0.2337,0.2893,-0.2956,0.2889,-0.2577,-0.2765,0.2952,-0.3079,-0.3109,-0.3089,0.3046,-0.3042,0.2953,0.3315,-0.3006,0.3132,0.1873,0.339,-0.1383,-0.2793,0.0552,-1.0,-1.0,0.4606,1.0,1.0,1.0,-1.0,-1.0,1.0,-1.0,1.0,-1.0,1.0,-1.0,1.0,1.0,1.0,0.7703,0.0,0.0,0.0,0.0,0.0,0.0,0.0,0.0,0.0,-0.3333,0.0,-0.3333,0.0,3
3.52,run,2.99,4.79,-20.67,-10.63,2.41,0.0,-0.05,0.0,1.085,-16.88,-13.01,76.38,-18.37,-23.82,64.16,-33.05,-13.27,98.0,-30.32,-36.91,102.83,5.71,-13.62,97.03,21.18,-30.67,119.36,-23.0,-19.5,83.04,-12.5,-19.5,73.72,-35.0,-22.52,111.12,-35.0,-36.68,92.57,16.59,-22.13,106.14,28.41,-32.1,130.2,-1.0,-1.0,0.7232,1.0,1.0,1.0,-1.0,-1.0,1.0,-1.0,1.0,-1.0,1.0,-1.0,1.0,1.0,1.0,0.8636,0.019,0.013,0.013,0.019,0.019,0.013,0.071,0.045,0.273,0.033,0.013,0.013,0.071,0.013,0.104,0.033,0.0,0.039,-0.2961,-0.5323,-0.0491,-0.3421,-0.6719,-0.27,-0.5706,-0.4878,0.3083,-0.5123,-0.8989,0.4495,0.0721,-0.5308,0.2884,0.3451,-0.8161,0.701,0.1091,-0.003,-0.192,0.2991,-0.2808,0.2988,-0.2486,-0.2845,0.3033,-0.3065,-0.3086,-0.3072,0.2985,-0.3096,0.2919,0.3286,-0.2957,0.3216,0.1298,0.2871,-0.2499,-0.2814,0.0547,-1.0,-1.0,0.2517,1.0,1.0,1.0,-1.0,-1.0,1.0,-1.0,1.0,-1.0,1.0,-1.0,1.0,1.0,1.0,0.8264,0.0,0.0,0.0,0.0,0.0,0.0,0.0,0.0,0.0,-0.3333,0.0,-0.3333,0.0,3
3.56,run,2.41,4.24,-13.35,-10.07,8.72,0.0,-0.05,0.0,1.085,-17.14,-13.89,76.73,-16.96,-24.35,65.65,-33.4,-14.41,99.49,-31.73,-37.97,101.43,7.21,-14.94,98.26,22.59,-31.82,120.76,-24.5,-21.0,84.54,-11.0,-18.0,75.22,-35.0,-24.02,112.62,-35.0,-35.18,91.07,18.09,-23.63,107.64,29.91,-30.6,128.7,-1.0,-1.0,1.0,1.0,1.0,1.0,-1.0,-1.0,1.0,-1.0,1.0,-1.0,1.0,-1.0,1.0,1.0,1.0,0.4387,0.019,0.013,0.013,0.019,0.019,0.013,0.071,0.045,0.273,0.033,0.013,0.013,0.071,0.013,0.104,0.033,0.0,0.039,-0.2869,-0.5446,-0.0491,-0.316,-0.6842,-0.2454,-0.5829,-0.5108,0.3344,-0.5369,-0.9204,0.4249,0.0982,-0.5584,0.3129,0.3712,-0.8391,0.7271,0.1107,-0.0478,-0.1344,0.3066,-0.2423,0.3007,-0.2197,-0.2849,0.3095,-0.306,-0.2961,-0.3065,0.3062,-0.3196,0.2959,0.3273,-0.2928,0.3223,0.054,0.2449,-0.3608,-0.1855,0.042,-1.0,-1.0,0.7232,1.0,1.0,1.0,-1.0,-1.0,1.0,-1.0,1.0,-1.0,1.0,-1.0,1.0,1.0,1.0,0.8636,0.0,0.0,0.0,0.0,0.0,0.0,0.0,0.0,0.0,-0.3333,0.0,-0.3333,0.0,3
3.6,run,1.54,3.91,-21.14,-7.12,17.13,0.0,-0.05,0.0,1.085,-17.93,-15.12,77.61,-15.47,-24.52,67.06,-33.49,-15.82,101.07,-33.05,-38.67,99.84,8.96,-16.61,99.58,24.26,-32.78,122.34,-26.0,-22.5,86.04,-9.5,-16.5,76.72,-35.0,-25.52,114.12,-35.0,-33.68,89.57,19.59,-25.13,109.14,31.41,-29.1,127.2,-1.0,-1.0,0.9758,1.0,1.0,1.0,-1.0,-0.9812,1.0,-1.0,1.0,-1.0,1.0,-1.0,1.0,1.0,1.0,0.0176,0.019,0.013,0.013,0.019,0.019,0.013,0.071,0.045,0.273,0.033,0.013,0.013,0.071,0.013,0.104,0.033,0.0,0.039,-0.2915,-0.5599,-0.043,-0.2915,-0.6934,-0.2194,-0.589,-0.5308,0.3605,-0.5614,-0.9388,0.4004,0.1243,-0.5814,0.3344,0.3958,-0.859,0.7517,0.0602,-0.0909,-0.0711,0.3065,-0.204,0.3081,-0.1768,-0.2741,0.3142,-0.3061,-0.2761,-0.3064,0.3119,-0.3099,0.2875,0.3209,-0.2796,0.3175,0.0037,0.1964,-0.233,-0.1758,0.1522,-1.0,-1.0,1.0,1.0,1.0,1.0,-1.0,-1.0,1.0,-1.0,1.0,-1.0,1.0,-1.0,1.0,1.0,1.0,0.4387,0.0,0.0,0.0,0.0,0.0,0.0,0.0,0.0,0.0,-0.3333,0.0,-0.3333,0.0,3
3.64,run,1.45,3.78,-1.63,0.37,15.54,0.0,-0.05,0.0,1.085,-18.72,-16.35,78.57,-14.24,-24.52,68.55,-33.57,-17.05,102.48,-33.84,-39.02,98.61,10.2,-17.75,100.9,25.58,-33.4,123.57,-27.5,-24.0,87.54,-8.0,-15.0,78.22,-35.0,-27.02,115.62,-35.0,-32.18,88.07,21.09,-26.63,110.64,32.91,-27.6,125.7,-0.9502,-1.0,1.0,1.0,1.0,1.0,-1.0,-0.5776,1.0,-1.0,1.0,-1.0,1.0,-1.0,1.0,1.0,1.0,-0.7003,0.013,0.019,0.013,0.019,0.013,0.006,0.058,0.019,0.175,0.013,0.0,0.013,0.039,0.026,0.234,0.019,0.0,0.033,-0.3053,-0.5814,-0.0276,-0.2654,-0.6964,-0.1948,-0.5906,-0.5553,0.3881,-0.5844,-0.9511,0.3728,0.1549,-0.6105,0.3574,0.4249,-0.8759,0.7793,-0.0065,-0.1394,0.0043,0.3065,-0.1537,0.3022,-0.1292,-0.2784,0.3174,-0.2954,-0.2366,-0.3119,0.3265,-0.3197,0.2824,0.3275,-0.2552,0.3196,-0.0718,0.1676,-0.369,-0.1242,0.299,-1.0,-1.0,0.9758,1.0,1.0,1.0,-1.0,-0.9812,1.0,-1.0,1.0,-1.0,1.0,-1.0,1.0,1.0,1.0,0.0176,0.0,0.0,0.0,0.0,0.0,0.0,0.0,0.0,0.0,-0.3333,0.0,-0.3333,0.0,3
3.68,run,1.54,3.91,2.98,0.99,7.11,0.0,-0.05,0.0,1.085,-19.95,-17.75,79.89,-12.83,-23.99,69.87,-33.57,-18.46,103.97,-34.45,-39.11,97.21,11.6,-19.16,102.39,26.89,-33.57,124.72,-26.0,-25.5,89.04,-6.5,-13.5,79.72,-35.0,-28.52,117.12,-35.0,-30.68,86.57,22.59,-28.13,112.14,34.41,-26.1,124.2,-0.0692,-1.0,1.0,1.0,1.0,0.2094,-1.0,-0.9089,1.0,-1.0,1.0,-1.0,0.7289,-1.0,1.0,1.0,1.0,-1.0,0.013,0.019,0.013,0.019,0.013,0.006,0.058,0.019,0.175,0.013,0.0,0.013,0.039,0.026,0.234,0.019,0.0,0.033,-0.3191,-0.6029,-0.0107,-0.2439,-0.6964,-0.1687,-0.5921,-0.5768,0.4126,-0.5983,-0.9572,0.3513,0.1764,-0.6305,0.3804,0.4479,-0.8866,0.8007,-0.0598,-0.1834,0.0705,0.3004,-0.1076,0.3158,-0.0965,-0.2807,0.3203,-0.262,-0.1901,-0.3042,0.3144,-0.3035,0.2897,0.3212,-0.2216,0.3096,-0.0801,0.1561,-0.0284,0.0065,0.2712,-0.9502,-1.0,1.0,1.0,1.0,1.0,-1.0,-0.5776,1.0,-1.0,1.0,-1.0,1.0,-1.0,1.0,1.0,1.0,-0.7003,0.0,0.0,0.0,0.0,0.0,0.0,0.0,0.0,0.0,-0.3333,0.0,-0.3333,0.0,3
3.72,run,1.5,3.85,-0.32,-0.82,1.12,0.0,-0.05,0.0,1.085,-21.18,-19.25,81.3,-11.43,-22.94,71.28,-33.93,-19.78,105.56,-34.8,-39.11,95.8,13.01,-20.65,103.97,28.3,-33.57,125.6,-24.5,-27.0,90.54,-5.0,-12.0,78.22,-35.0,-30.02,118.62,-35.0,-29.18,85.07,21.09,-29.63,113.64,35.0,-24.6,122.7,0.5973,-1.0,1.0,1.0,1.0,-0.3867,-1.0,-1.0,1.0,-1.0,1.0,-1.0,-1.0,-1.0,1.0,1.0,1.0,-1.0,0.013,0.019,0.013,0.019,0.013,0.006,0.058,0.019,0.175,0.013,0.0,0.013,0.039,0.026,0.234,0.019,0.0,0.033,-0.3405,-0.6274,0.0123,-0.2194,-0.6872,-0.1457,-0.5921,-0.6013,0.4387,-0.609,-0.9587,0.3267,0.201,-0.655,0.4065,0.4709,-0.8897,0.8207,-0.123,-0.2212,0.1363,0.3031,-0.0405,0.308,-0.0676,-0.2893,0.3228,-0.224,-0.1389,-0.3057,0.3129,-0.3052,0.3013,0.3118,-0.1667,0.2921,-0.0721,0.1678,0.052,0.0173,0.1241,-0.0692,-1.0,1.0,1.0,1.0,0.2094,-1.0,-0.9089,1.0,-1.0,1.0,-1.0,0.7289,-1.0,1.0,1.0,1.0,-1.0,0.0,0.0,0.0,0.0,0.0,0.0,0.0,0.0,0.0,-0.3333,0.0,-0.3333,0.0,3
3.76,run,1.52,3.8,0.31,-0.15,6.01,0.0,-0.05,0.0,1.085,-22.59,-20.57,82.97,-10.02,-21.71,72.69,-34.01,-21.18,107.05,-34.8,-38.41,94.39,14.41,-21.88,105.47,29.62,-33.31,126.21,-23.0,-28.5,92.04,-3.5,-10.5,79.72,-35.0,-31.52,120.12,-33.5,-27.68,83.57,19.59,-31.13,115.14,35.0,-23.1,121.2,1.0,-1.0,1.0,1.0,1.0,0.217,-1.0,-1.0,1.0,0.1909,1.0,-0.4907,-1.0,-1.0,1.0,1.0,1.0,-1.0,0.0,0.019,0.006,0.013,0.006,0.019,0.026,0.0,0.149,0.0,0.013,0.013,0.033,0.0,0.123,0.039,0.045,0.026,-0.362,-0.6535,0.0368,-0.1948,-0.6688,-0.1212,-0.5983,-0.6243,0.4663,-0.6151,-0.9587,0.3022,0.2255,-0.6811,0.4341,0.4955,-0.8897,0.836,-0.1663,-0.2521,0.187,0.3037,0.0403,0.3072,-0.0702,-0.2884,0.329,-0.1797,-0.0972,-0.3056,0.3106,-0.311,0.314,0.3099,-0.1167,0.2617,-0.0755,0.163,-0.0056,-0.0143,0.0195,0.5973,-1.0,1.0,1.0,1.0,-0.3867,-1.0,-1.0,1.0,-1.0,1.0,-1.0,-1.0,-1.0,1.0,1.0,1.0,-1.0,0.0,0.0,0.0,0.0,0.0,0.0,0.0,0.0,0.0,-0.3333,0.0,-0.3333,0.0,3
3.8,run,1.45,3.85,-0.88,0.46,10.42,0.0,-0.05,0.0,1.085,-23.64,-21.97,84.02,-8.53,-20.3,74.18,-34.01,-22.59,108.54,-34.8,-37.27,92.9,15.91,-23.12,106.96,30.94,-32.61,126.47,-21.5,-30.0,93.54,-2.0,-9.0,78.22,-35.0,-33.02,121.62,-32.0,-26.18,82.07,18.09,-32.63,116.64,35.0,-21.6,119.7,1.0,-1.0,1.0,1.0,1.0,-0.9913,-1.0,-1.0,0.9189,1.0,1.0,-0.0282,-1.0,-1.0,1.0,1.0,1.0,-1.0,0.0,0.019,0.006,0.013,0.006,0.019,0.026,0.0,0.149,0.0,0.013,0.013,0.033,0.0,0.123,0.039,0.045,0.026,-0.3866,-0.6765,0.066,-0.1703,-0.6473,-0.0966,-0.5998,-0.6489,0.4924,-0.6151,-0.9465,0.2777,0.25,-0.7026,0.4602,0.5185,-0.8851,0.8468,-0.2086,-0.2629,0.2404,0.3048,0.1089,0.3072,-0.0549,-0.294,0.3282,-0.1258,-0.022,-0.3061,0.3096,-0.2983,0.3177,0.3033,-0.0644,0.2235,-0.0741,0.1587,0.0055,-0.0026,0.1049,1.0,-1.0,1.0,1.0,1.0,0.217,-1.0,-1.0,1.0,0.1909,1.0,-0.4907,-1.0,-1.0,1.0,1.0,1.0,-1.0,0.0,0.0,0.0,0.0,0.0,0.0,0.0,0.0,0.0,-0.3333,0.0,-0.3333,0.0,3
3.84,run,1.36,3.85,-1.34,-0.03,10.78,0.0,-0.05,0.0,1.085,-24.35,-23.47,85.78,-7.21,-18.9,75.5,-34.1,-23.91,110.04,-34.54,-35.95,91.49,17.23,-24.61,108.46,32.34,-31.64,126.47,-20.0,-31.5,95.04,-0.5,-7.5,76.72,-35.0,-34.52,120.12,-30.5,-24.68,83.57,16.59,-34.13,118.14,35.0,-20.1,118.2,1.0,-1.0,1.0,1.0,1.0,-1.0,-1.0,-1.0,-1.0,0.7043,1.0,0.3651,-1.0,-1.0,0.6382,1.0,1.0,-1.0,0.0,0.019,0.006,0.013,0.006,0.019,0.026,0.0,0.149,0.0,0.013,0.013,0.033,0.0,0.123,0.039,0.045,0.026,-0.405,-0.701,0.0844,-0.1442,-0.6228,-0.0706,-0.5998,-0.6734,0.5185,-0.6151,-0.9265,0.2516,0.2761,-0.724,0.4863,0.5415,-0.8728,0.8514,-0.2149,-0.2759,0.2372,0.311,0.1681,0.3127,-0.0384,-0.2977,0.3274,-0.088,0.0593,-0.3119,0.3144,-0.2892,0.32,0.2985,0.0009,0.1737,-0.0797,0.1628,-0.0154,0.0081,0.1819,1.0,-1.0,1.0,1.0,1.0,-0.9913,-1.0,-1.0,0.9189,1.0,1.0,-0.0282,-1.0,-1.0,1.0,1.0,1.0,-1.0,0.0,0.0,0.0,0.0,0.0,0.0,0.0,0.0,0.0,-0.3333,0.0,-0.3333,0.0,3
3.88,run,1.35,3.84,-0.03,0.23,4.8,0.0,-0.05,0.0,1.085,-24.7,-24.79,87.1,-5.8,-17.4,76.64,-34.1,-25.31,111.62,-33.22,-34.54,90.09,18.11,-25.93,109.95,33.4,-30.59,126.12,-18.5,-33.0,96.54,-2.0,-6.0,75.22,-35.0,-36.02,118.62,-29.0,-23.18,85.07,15.09,-35.63,116.64,35.0,-18.6,116.7,1.0,-1.0,1.0,-0.2475,1.0,-1.0,-1.0,-1.0,-1.0,-0.1941,1.0,1.0,-1.0,-1.0,-1.0,1.0,1.0,-1.0,0.0,0.019,0.006,0.026,0.013,0.0,0.019,0.0,0.091,0.006,0.006,0.013,0.019,0.0,0.078,0.019,0.149,0.0,-0.4172,-0.7271,0.115,-0.1212,-0.5983,-0.0476,-0.6013,-0.6964,0.5446,-0.6105,-0.9035,0.227,0.2991,-0.7501,0.5123,0.566,-0.856,0.8514,-0.1964,-0.2909,0.2811,0.304,0.2097,0.3052,-0.0327,-0.2947,0.327,-0.0444,0.1278,-0.3104,0.3063,-0.3003,0.3218,0.301,0.0639,0.1216,-0.0876,0.1623,-0.0234,-0.0005,0.1882,1.0,-1.0,1.0,1.0,1.0,-1.0,-1.0,-1.0,-1.0,0.7043,1.0,0.3651,-1.0,-1.0,0.6382,1.0,1.0,-1.0,0.0,0.0,0.0,0.0,0.0,0.0,0.0,0.0,0.0,-0.3333,0.0,-0.3333,0.0,3
3.92,run,1.37,3.62,0.41,-6.01,4.28,0.0,-0.05,0.0,1.085,-24.52,-26.19,88.42,-4.39,-16.08,77.43,-34.28,-26.54,113.12,-32.26,-33.22,88.68,18.81,-27.33,111.53,34.01,-29.44,125.33,-17.0,-34.5,98.04,-3.5,-4.5,73.72,-33.5,-37.52,117.12,-27.5,-21.68,86.57,13.59,-37.13,115.14,35.0,-17.1,115.2,1.0,-1.0,1.0,-1.0,1.0,-1.0,0.3366,-1.0,-1.0,-0.4867,1.0,1.0,-1.0,-1.0,-1.0,1.0,0.4466,-1.0,0.0,0.019,0.006,0.026,0.013,0.0,0.019,0.0,0.091,0.006,0.006,0.013,0.019,0.0,0.078,0.019,0.149,0.0,-0.4234,-0.7501,0.1381,-0.0966,-0.5722,-0.0276,-0.6013,-0.721,0.5722,-0.5875,-0.879,0.2025,0.3145,-0.7731,0.5384,0.5844,-0.8376,0.8452,-0.1605,-0.29,0.2831,0.3049,0.2447,0.2884,-0.0229,-0.2984,0.3325,0.0553,0.1815,-0.3093,0.272,-0.2965,0.3231,0.2797,0.1138,0.0621,-0.0886,0.1615,-0.0005,0.0039,0.0838,1.0,-1.0,1.0,-0.2475,1.0,-1.0,-1.0,-1.0,-1.0,-0.1941,1.0,1.0,-1.0,-1.0,-1.0,1.0,1.0,-1.0,0.0,0.0,0.0,0.0,0.0,0.0,0.0,0.0,0.0,-0.3333,0.0,-0.3333,0.0,3
3.96,run,1.31,3.05,-1.79,-13.58,4.21,0.0,-0.05,0.0,1.085,-24.43,-27.6,89.82,-3.34,-15.12,77.87,-34.37,-27.95,114.43,-30.85,-31.82,87.36,19.25,-28.74,112.94,34.45,-28.12,124.28,-15.5,-36.0,99.54,-5.0,-3.0,72.22,-32.0,-39.02,115.62,-26.0,-20.18,88.07,12.09,-38.63,113.64,35.0,-18.6,113.7,1.0,-1.0,1.0,-1.0,1.0,-1.0,1.0,-1.0,-1.0,-0.3654,1.0,1.0,-1.0,-1.0,-1.0,1.0,-0.2022,-1.0,0.0,0.019,0.006,0.026,0.013,0.0,0.019,0.0,0.091,0.006,0.006,0.013,0.019,0.0,0.078,0.019,0.149,0.0,-0.4203,-0.7747,0.1611,-0.0721,-0.5492,-0.0138,-0.6044,-0.7424,0.5983,-0.5706,-0.856,0.1779,0.3267,-0.7977,0.566,0.5952,-0.8176,0.8314,-0.1009,-0.295,0.2845,0.3055,0.2576,0.2537,-0.0275,-0.2894,0.3305,0.102,0.2134,-0.3086,0.2364,-0.2996,0.3297,0.2361,0.1544,-0.0083,-0.0866,0.1429,0.0072,-0.1049,0.0747,1.0,-1.0,1.0,-1.0,1.0,-1.0,0.3366,-1.0,-1.0,-0.4867,1.0,1.0,-1.0,-1.0,-1.0,1.0,0.4466,-1.0,0.0,0.0,0.0,0.0,0.0,0.0,0.0,0.0,0.0,-0.3333,0.0,-0.3333,0.0,3
4.0,run,1.14,2.3,-4.65,-18.32,3.14,0.0,-0.05,0.0,1.085,-23.38,-29.09,91.23,-2.46,-13.62,77.87,-34.28,-29.36,115.49,-29.44,-30.32,86.4,19.16,-30.06,114.17,34.63,-26.72,122.96,-14.0,-37.5,101.04,-6.5,-1.5,70.72,-30.5,-40.52,114.12,-24.5,-18.68,89.57,10.59,-40.13,112.14,35.0,-20.1,112.2,1.0,-1.0,1.0,-1.0,1.0,-1.0,1.0,-1.0,-1.0,-0.4128,1.0,1.0,-1.0,-1.0,-1.0,1.0,-0.9315,-1.0,0.0,0.033,0.013,0.006,0.013,0.0,0.013,0.0,0.078,0.013,0.006,0.0,0.0,0.0,0.026,0.013,0.156,0.006,-0.4188,-0.7992,0.1856,-0.0537,-0.5323,-0.0061,-0.6059,-0.767,0.6213,-0.5461,-0.8314,0.1549,0.3344,-0.8222,0.5906,0.6029,-0.7946,0.813,-0.0649,-0.2986,0.2912,0.2829,0.2436,0.2063,-0.025,-0.2946,0.3177,0.1634,0.2414,-0.3023,0.1943,-0.3018,0.3229,0.194,0.1944,-0.0749,-0.0918,0.0929,-0.0313,-0.2371,0.0735,1.0,-1.0,1.0,-1.0,1.0,-1.0,1.0,-1.0,-1.0,-0.3654,1.0,1.0,-1.0,-1.0,-1.0,1.0,-0.2022,-1.0,0.0,0.0,0.0,0.0,0.0,0.0,0.0,0.0,0.0,-0.3333,0.0,-0.3333,0.0,3
4.04,run,0.97,1.73,-3.24,-13.84,1.52,0.0,-0.05,0.0,1.085,-22.24,-30.5,92.64,-2.02,-12.13,77.61,-33.84,-30.59,116.28,-28.04,-28.92,85.61,18.9,-31.29,115.05,34.63,-25.22,121.64,-12.5,-39.0,102.54,-8.0,0.0,69.22,-29.0,-42.02,112.62,-23.0,-17.18,91.07,9.09,-41.63,110.64,35.0,-21.6,110.7,1.0,-1.0,1.0,-1.0,1.0,-1.0,1.0,-1.0,-1.0,-0.2025,1.0,1.0,-1.0,-1.0,-1.0,1.0,-1.0,-1.0,0.0,0.033,0.013,0.006,0.013,0.0,0.013,0.0,0.078,0.013,0.006,0.0,0.0,0.0,0.026,0.013,0.156,0.006,-0.4004,-0.8253,0.2102,-0.0383,-0.5062,-0.0061,-0.6044,-0.7915,0.6397,-0.5216,-0.8053,0.1381,0.3329,-0.8452,0.6121,0.6059,-0.7701,0.79,0.0241,-0.3074,0.2965,0.2559,0.2689,0.1444,-0.0117,-0.2989,0.2918,0.207,0.2674,-0.2753,0.1302,-0.2981,0.3071,0.1474,0.2287,-0.1392,-0.1071,0.027,-0.0811,-0.3198,0.0548,1.0,-1.0,1.0,-1.0,1.0,-1.0,1.0,-1.0,-1.0,-0.4128,1.0,1.0,-1.0,-1.0,-1.0,1.0,-0.9315,-1.0,0.0,0.0,0.0,0.0,0.0,0.0,0.0,0.0,0.0,-0.3333,0.0,-0.3333,0.0,3
4.08,run,0.82,1.2,-2.77,-11.84,2.22,0.0,-0.05,0.0,1.085,-20.92,-32.08,94.22,-1.85,-10.72,76.73,-33.4,-32.17,116.89,-26.54,-27.6,85.08,17.75,-32.61,115.84,34.63,-23.82,120.15,-11.0,-40.5,104.04,-9.5,1.5,67.72,-27.5,-43.52,111.12,-21.5,-15.68,92.57,7.59,-43.13,109.14,35.0,-23.1,109.2,1.0,-1.0,1.0,-1.0,1.0,-1.0,1.0,-0.7648,-1.0,-0.4666,1.0,1.0,-1.0,-1.0,-1.0,1.0,-1.0,-1.0,0.0,0.033,0.013,0.006,0.013,0.0,0.013,0.0,0.078,0.013,0.006,0.0,0.0,0.0,0.026,0.013,0.156,0.006,-0.3804,-0.8498,0.2347,-0.0307,-0.4801,-0.0107,-0.5967,-0.813,0.6535,-0.497,-0.7808,0.1243,0.3283,-0.8667,0.6274,0.6059,-0.744,0.767,0.0916,-0.3073,0.2996,0.2079,0.2861,0.0838,0.0206,-0.2898,0.2561,0.237,0.2792,-0.2445,0.0739,-0.2892,0.2725,0.1032,0.2579,-0.1838,-0.1218,-0.022,-0.0566,-0.2416,0.0266,1.0,-1.0,1.0,-1.0,1.0,-1.0,1.0,-1.0,-1.0,-0.2025,1.0,1.0,-1.0,-1.0,-1.0,1.0,-1.0,-1.0,0.0,0.0,0.0,0.0,0.0,0.0,0.0,0.0,0.0,-0.3333,0.0,-0.3333,0.0,3
4.12,run,0.76,0.79,-2.54,-10.51,2.99,0.0,-0.05,0.0,1.085,-19.69,-33.31,95.54,-1.67,-9.58,75.85,-32.08,-33.31,116.98,-25.31,-26.63,85.08,16.88,-33.84,115.84,34.63,-23.03,119.0,-9.5,-42.0,105.54,-11.0,3.0,66.22,-26.0,-42.02,109.62,-23.0,-14.18,94.07,6.09,-44.63,107.64,33.5,-24.6,107.7,1.0,-1.0,1.0,-1.0,1.0,-1.0,1.0,-0.2782,-1.0,-0.9978,1.0,1.0,-1.0,-1.0,-1.0,0.7178,-1.0,-1.0,0.006,0.019,0.013,0.026,0.045,0.006,0.013,0.006,0.019,0.013,0.013,0.013,0.019,0.006,0.0,0.0,0.104,0.006,-0.3574,-0.8774,0.2623,-0.0276,-0.4556,-0.0261,-0.589,-0.8406,0.6642,-0.4709,-0.7578,0.115,0.3083,-0.8897,0.6412,0.6059,-0.7194,0.7409,0.1409,-0.3072,0.3018,0.1558,0.2821,0.0075,0.04,-0.295,0.2151,0.2529,0.2723,-0.2019,-0.0148,-0.2792,0.2368,0.0722,0.2624,-0.2157,-0.1348,-0.0688,-0.0484,-0.2066,0.0387,1.0,-1.0,1.0,-1.0,1.0,-1.0,1.0,-0.7648,-1.0,-0.4666,1.0,1.0,-1.0,-1.0,-1.0,1.0,-1.0,-1.0,0.0,0.0,0.0,0.0,0.0,0.0,0.0,0.0,0.0,-0.3333,0.0,-0.3333,0.0,3
4.16,run,0.65,0.47,-1.75,-8.4,3.3,0.0,-0.05,0.0,1.085,-18.02,-34.72,96.94,-1.76,-8.17,74.53,-30.67,-34.63,116.98,-23.99,-24.87,85.61,15.47,-35.24,115.66,34.63,-22.32,117.6,-8.0,-43.5,107.04,-12.5,4.5,64.72,-24.5,-40.52,108.12,-24.5,-12.68,95.57,4.59,-46.13,106.14,32.0,-26.1,106.2,1.0,-1.0,1.0,-1.0,1.0,-1.0,1.0,0.0893,-1.0,-1.0,1.0,1.0,-1.0,-1.0,-1.0,-0.4647,-1.0,-1.0,0.006,0.019,0.013,0.026,0.045,0.006,0.013,0.006,0.019,0.013,0.013,0.013,0.019,0.006,0.0,0.0,0.104,0.006,-0.3359,-0.8989,0.2853,-0.0245,-0.4357,-0.0414,-0.566,-0.8606,0.6657,-0.4495,-0.7409,0.115,0.293,-0.9112,0.6412,0.6059,-0.7056,0.721,0.1912,-0.3076,0.3105,0.1223,0.2835,-0.0609,0.1272,-0.2924,0.1572,0.2696,0.2633,-0.1413,-0.0765,-0.288,0.1658,0.0506,0.2432,-0.2369,-0.1404,-0.1043,-0.0444,-0.1834,0.0521,1.0,-1.0,1.0,-1.0,1.0,-1.0,1.0,-0.2782,-1.0,-0.9978,1.0,1.0,-1.0,-1.0,-1.0,0.7178,-1.0,-1.0,0.0,0.0,0.0,0.0,0.0,0.0,0.0,0.0,0.0,-0.3333,0.0,-0.3333,0.0,3
4.2,run,0.68,0.57,0.89,3.55,-1.84,0.0,-0.05,0.0,1.085,-16.88,-36.21,98.35,-2.99,-6.86,73.04,-29.27,-36.04,116.89,-23.03,-23.55,86.31,13.97,-36.47,114.96,34.28,-21.8,116.19,-6.5,-45.0,108.54,-14.0,6.0,63.22,-23.0,-39.02,106.62,-23.0,-11.18,97.07,3.09,-44.63,104.64,30.5,-27.6,104.7,1.0,-0.9201,1.0,-1.0,1.0,-1.0,1.0,-0.1313,-1.0,-0.3979,0.3754,1.0,-1.0,0.0055,-1.0,-1.0,-1.0,-1.0,0.006,0.019,0.013,0.026,0.045,0.006,0.013,0.006,0.019,0.013,0.013,0.013,0.019,0.006,0.0,0.0,0.104,0.006,-0.3068,-0.9235,0.3099,-0.0261,-0.4111,-0.0644,-0.5415,-0.8836,0.6657,-0.4264,-0.7102,0.1243,0.2684,-0.9357,0.6381,0.6059,-0.6934,0.6964,0.2415,-0.306,0.308,0.0799,0.2891,-0.1276,0.1797,-0.2897,0.11,0.2737,0.2976,-0.0649,-0.1442,-0.2923,0.1047,0.0354,0.2156,-0.2565,-0.1496,-0.1322,-0.0305,-0.1466,0.0576,1.0,-1.0,1.0,-1.0,1.0,-1.0,1.0,0.0893,-1.0,-1.0,1.0,1.0,-1.0,-1.0,-1.0,-0.4647,-1.0,-1.0,0.0,0.0,0.0,0.0,0.0,0.0,0.0,0.0,0.0,-0.3333,0.0,-0.3333,0.0,3
4.24,run,0.61,1.03,-2.21,11.86,-3.37,0.0,-0.05,0.0,1.085,-15.21,-37.53,99.76,-4.13,-5.45,71.63,-27.95,-37.27,116.1,-22.32,-22.15,87.28,12.66,-37.88,113.82,33.66,-21.8,114.79,-5.0,-46.5,110.04,-15.5,7.5,61.72,-21.5,-37.52,105.12,-24.5,-12.68,98.57,1.59,-43.13,103.14,29.0,-26.1,103.2,1.0,-0.7733,1.0,-1.0,0.8345,-1.0,1.0,-0.0943,-1.0,-1.0,-0.8339,1.0,-1.0,0.7303,-1.0,-1.0,0.6382,-1.0,0.006,0.026,0.013,0.039,0.052,0.006,0.033,0.006,0.006,0.013,0.039,0.026,0.013,0.026,0.013,0.006,0.013,0.013,-0.2869,-0.9495,0.3344,-0.0476,-0.3881,-0.0905,-0.517,-0.9081,0.6642,-0.4096,-0.6872,0.1365,0.2424,-0.9572,0.6259,0.5998,-0.6842,0.6719,0.2438,-0.3119,0.3076,-0.0245,0.2886,-0.1871,0.2178,-0.2948,0.0713,0.2548,0.2946,0.0006,-0.1987,-0.2851,0.0273,0.0018,0.1854,-0.2715,-0.147,-0.1237,0.0155,0.062,-0.0321,1.0,-0.9201,1.0,-1.0,1.0,-1.0,1.0,-0.1313,-1.0,-0.3979,0.3754,1.0,-1.0,0.0055,-1.0,-1.0,-1.0,-1.0,0.0,0.0,0.0,0.0,0.0,0.0,0.0,0.0,0.0,-0.3333,0.0,-0.3333,0.0,3
4.28,run,0.7,1.75,2.99,17.11,-6.5,0.0,-0.05,0.0,1.085,-13.97,-38.85,101.16,-5.54,-4.13,70.14,-26.46,-38.23,115.14,-21.88,-20.92,88.42,11.16,-39.2,112.59,32.43,-21.8,113.29,-3.5,-48.0,111.54,-17.0,6.0,60.22,-20.0,-36.02,103.62,-26.0,-14.18,100.07,0.09,-41.63,101.64,27.5,-24.6,101.7,1.0,-0.7487,1.0,-1.0,-0.4028,-1.0,1.0,0.3303,-1.0,-1.0,-1.0,1.0,-1.0,1.0,-1.0,-1.0,0.5068,-1.0,0.006,0.026,0.013,0.039,0.052,0.006,0.033,0.006,0.006,0.013,0.039,0.026,0.013,0.026,0.013,0.006,0.013,0.013,-0.2577,-0.9725,0.359,-0.0675,-0.3636,-0.115,-0.4939,-0.9296,0.6504,-0.3973,-0.6627,0.1534,0.2194,-0.9817,0.6059,0.589,-0.6842,0.6473,0.28,-0.3047,0.3074,-0.092,0.2941,-0.2231,0.2388,-0.2869,-0.0019,0.2244,0.2983,0.0637,-0.2254,-0.2917,-0.0557,-0.0391,0.1298,-0.2822,-0.1533,-0.0832,-0.0385,0.207,-0.0588,1.0,-0.7733,1.0,-1.0,0.8345,-1.0,1.0,-0.0943,-1.0,-1.0,-0.8339,1.0,-1.0,0.7303,-1.0,-1.0,0.6382,-1.0,0.0,0.0,0.0,0.0,0.0,0.0,0.0,0.0,0.0,-0.3333,0.0,-0.3333,0.0,3
4.32,run,0.73,2.49,0.41,18.47,-9.91,0.0,-0.05,0.0,1.085,-12.48,-40.25,102.57,-6.94,-2.81,68.73,-24.96,-39.02,114.35,-21.8,-19.69,89.82,9.76,-40.43,111.09,31.11,-22.5,111.8,-2.0,-46.5,113.04,-18.5,4.5,58.72,-18.5,-34.52,102.12,-27.5,-15.68,101.57,-1.41,-40.13,100.14,26.0,-23.1,100.2,1.0,-0.2053,1.0,-1.0,-1.0,-1.0,1.0,0.9488,-1.0,-1.0,-1.0,1.0,-1.0,1.0,-1.0,-1.0,1.0,-1.0,0.006,0.026,0.013,0.039,0.052,0.006,0.033,0.006,0.006,0.013,0.039,0.026,0.013,0.026,0.013,0.006,0.013,0.013,-0.2362,-0.9956,0.3835,-0.092,-0.3405,-0.1411,-0.4679,-0.9465,0.6335,-0.3896,-0.6412,0.1733,0.1933,-1.0048,0.5844,0.5676,-0.6842,0.6213,0.2762,-0.2992,0.3068,-0.156,0.2918,-0.2535,0.2645,-0.2638,-0.0643,0.1857,0.289,0.119,-0.2551,-0.29,-0.1192,-0.1075,0.0908,-0.2949,-0.1459,-0.0206,0.0521,0.2986,-0.1135,1.0,-0.7487,1.0,-1.0,-0.4028,-1.0,1.0,0.3303,-1.0,-1.0,-1.0,1.0,-1.0,1.0,-1.0,-1.0,0.5068,-1.0,0.0,0.0,0.0,0.0,0.0,0.0,0.0,0.0,0.0,-0.3333,0.0,-0.3333,0.0,3
4.36,run,0.71,3.35,-0.5,20.53,-8.84,0.0,-0.05,0.0,1.085,-10.99,-41.57,104.06,-8.35,-1.49,67.15,-23.47,-39.38,112.68,-21.88,-18.46,91.14,8.35,-41.4,109.69,29.71,-23.38,110.48,-0.5,-45.0,114.54,-20.0,3.0,57.22,-17.0,-33.02,100.62,-29.0,-17.18,103.07,-2.91,-38.63,98.64,24.5,-21.6,98.7,1.0,1.0,1.0,-1.0,-1.0,-1.0,1.0,1.0,-1.0,-1.0,-1.0,1.0,-1.0,1.0,-1.0,-1.0,1.0,-1.0,0.013,0.033,0.013,0.033,0.058,0.0,0.019,0.0,0.019,0.019,0.045,0.065,0.013,0.052,0.019,0.013,0.0,0.006,-0.2102,-1.0201,0.408,-0.1166,-0.3175,-0.1657,-0.4418,-0.9603,0.6197,-0.3881,-0.6197,0.1979,0.1687,-1.0262,0.5584,0.5446,-0.6964,0.5952,0.2918,-0.3021,0.3075,-0.2019,0.2912,-0.2701,0.2836,-0.2368,-0.0972,0.1358,0.2834,0.176,-0.2713,-0.2842,-0.1819,-0.1622,0.0172,-0.3049,-0.1432,0.0442,0.0072,0.3224,-0.1729,1.0,-0.2053,1.0,-1.0,-1.0,-1.0,1.0,0.9488,-1.0,-1.0,-1.0,1.0,-1.0,1.0,-1.0,-1.0,1.0,-1.0,0.0,0.0,0.0,0.0,0.0,0.0,0.0,0.0,0.0,-0.3333,0.0,-0.3333,0.0,3
4.4,run,0.79,3.46,1.2,5.49,-12.64,0.0,-0.05,0.0,1.085,-9.67,-42.89,105.47,-9.76,-0.26,65.83,-22.06,-39.38,111.36,-23.03,-17.58,92.37,7.03,-41.92,108.28,28.3,-24.08,108.98,1.0,-43.5,116.04,-21.5,1.5,55.72,-15.5,-31.52,99.12,-30.5,-18.68,104.57,-4.41,-37.13,97.14,23.0,-20.1,97.2,1.0,1.0,1.0,-1.0,-1.0,-0.9282,1.0,1.0,-1.0,-1.0,-1.0,1.0,-1.0,1.0,-1.0,-1.0,1.0,-1.0,0.013,0.033,0.013,0.033,0.058,0.0,0.019,0.0,0.019,0.019,0.045,0.065,0.013,0.052,0.019,0.013,0.0,0.006,-0.1841,-1.0431,0.4341,-0.1411,-0.2945,-0.1933,-0.4157,-0.9664,0.5906,-0.3896,-0.5983,0.2209,0.1442,-1.0431,0.5338,0.52,-0.7118,0.5722,0.2991,-0.2952,0.3101,-0.2306,0.2875,-0.2895,0.2934,-0.1881,-0.174,0.0895,0.2765,0.2069,-0.2792,-0.2603,-0.2166,-0.2028,-0.0437,-0.2971,-0.1447,0.1188,-0.0088,0.3583,-0.1544,1.0,1.0,1.0,-1.0,-1.0,-1.0,1.0,1.0,-1.0,-1.0,-1.0,1.0,-1.0,1.0,-1.0,-1.0,1.0,-1.0,0.0,0.0,0.0,0.0,0.0,0.0,0.0,0.0,0.0,-0.3333,0.0,-0.3333,0.0,3
4.44,run,1.13,3.35,9.18,-2.58,-15.88,0.0,-0.05,0.0,1.085,-8.26,-43.95,106.88,-11.16,0.88,64.42,-20.65,-38.94,109.95,-23.91,-16.96,93.69,5.62,-42.36,106.88,26.89,-24.17,107.58,2.5,-42.0,117.54,-23.0,0.0,54.22,-14.0,-30.02,97.62,-32.0,-20.18,106.07,-5.91,-35.63,95.64,21.5,-18.6,95.7,1.0,1.0,1.0,-1.0,-1.0,-0.4213,1.0,1.0,-1.0,-1.0,-1.0,1.0,-1.0,1.0,-1.0,-1.0,1.0,-1.0,0.013,0.033,0.013,0.033,0.058,0.0,0.019,0.0,0.019,0.019,0.045,0.065,0.013,0.052,0.019,0.013,0.0,0.006,-0.1611,-1.0661,0.4587,-0.1657,-0.273,-0.2163,-0.3912,-0.9664,0.5676,-0.4096,-0.5829,0.2424,0.1212,-1.0523,0.5093,0.4955,-0.724,0.5461,0.2984,-0.2956,0.312,-0.2563,0.2843,-0.2916,0.3003,-0.1317,-0.2108,-0.0145,0.2529,0.2279,-0.2844,-0.2178,-0.2465,-0.2369,-0.0781,-0.3088,-0.1373,0.1282,0.0209,0.0957,-0.2206,1.0,1.0,1.0,-1.0,-1.0,-0.9282,1.0,1.0,-1.0,-1.0,-1.0,1.0,-1.0,1.0,-1.0,-1.0,1.0,-1.0,0.0,0.0,0.0,0.0,0.0,0.0,0.0,0.0,0.0,-0.3333,0.0,-0.3333,0.0,3
4.48,run,1.06,3.24,-0.29,-3.99,-18.18,0.0,-0.05,0.0,1.085,-6.94,-44.82,108.28,-12.57,1.67,62.93,-19.25,-38.06,108.46,-25.05,-16.61,95.01,4.22,-42.54,105.38,25.4,-24.26,106.26,4.0,-40.5,119.04,-24.5,-1.5,52.72,-12.5,-28.52,96.12,-33.5,-21.68,107.57,-7.41,-34.13,94.14,20.0,-17.1,94.2,1.0,1.0,1.0,-1.0,-1.0,-0.1841,1.0,1.0,-1.0,-1.0,-1.0,1.0,-1.0,1.0,-1.0,-1.0,1.0,-1.0,0.006,0.019,0.013,0.033,0.039,0.0,0.013,0.006,0.019,0.033,0.052,0.117,0.006,0.0,0.019,0.019,0.013,0.006,-0.1365,-1.0845,0.4832,-0.1902,-0.2531,-0.2408,-0.3666,-0.9587,0.543,-0.4249,-0.5722,0.2654,0.0966,-1.06,0.4847,0.4709,-0.7256,0.5216,0.3012,-0.2762,0.3107,-0.2718,0.2741,-0.2965,0.3026,-0.0633,-0.2399,-0.0679,0.2174,0.2461,-0.2915,-0.1813,-0.265,-0.2582,-0.0604,-0.3086,-0.1077,0.1188,0.1602,-0.045,-0.2771,1.0,1.0,1.0,-1.0,-1.0,-0.4213,1.0,1.0,-1.0,-1.0,-1.0,1.0,-1.0,1.0,-1.0,-1.0,1.0,-1.0,0.0,0.0,0.0,0.0,0.0,0.0,0.0,0.0,0.0,-0.3333,0.0,-0.3333,0.0,3
4.52,run,1.14,3.12,2.22,-0.36,-21.92,0.0,-0.05,0.0,1.085,-5.45,-45.44,109.69,-14.06,2.29,61.52,-17.75,-37.0,107.05,-26.46,-16.52,96.33,2.72,-42.28,103.97,23.99,-24.26,104.77,5.5,-39.0,120.54,-26.0,-3.0,54.22,-11.0,-27.02,94.62,-35.0,-23.18,109.07,-8.91,-32.63,92.64,18.5,-15.6,92.7,1.0,1.0,1.0,-1.0,-0.7632,0.3973,1.0,1.0,-1.0,-1.0,-1.0,1.0,-1.0,1.0,-1.0,-1.0,1.0,-1.0,0.006,0.019,0.013,0.033,0.039,0.0,0.013,0.006,0.019,0.033,0.052,0.117,0.006,0.0,0.019,0.019,0.013,0.006,-0.1135,-1.0999,0.5077,-0.2148,-0.2393,-0.2669,-0.3421,-0.9434,0.517,-0.4449,-0.566,0.2884,0.0721,-1.063,0.4587,0.4449,-0.7271,0.4985,0.2969,-0.2507,0.3093,-0.2821,0.2435,-0.3051,0.3036,0.0131,-0.2655,-0.1221,0.1751,0.2583,-0.2958,-0.1384,-0.283,-0.2782,-0.048,-0.302,-0.1144,0.1091,-0.0051,-0.0696,-0.3173,1.0,1.0,1.0,-1.0,-1.0,-0.1841,1.0,1.0,-1.0,-1.0,-1.0,1.0,-1.0,1.0,-1.0,-1.0,1.0,-1.0,0.0,0.0,0.0,0.0,0.0,0.0,0.0,0.0,0.0,-0.3333,0.0,-0.3333,0.0,3
4.56,run,1.41,3.04,10.22,-3.67,-17.9,0.0,-0.05,0.0,1.085,-4.13,-45.7,111.09,-15.56,2.46,60.12,-16.26,-35.6,105.64,-27.77,-16.52,97.65,1.32,-41.57,102.57,22.59,-23.73,103.36,7.0,-37.5,122.04,-27.5,-4.5,55.72,-9.5,-25.52,93.12,-35.0,-24.68,110.57,-10.41,-31.13,91.14,17.0,-14.1,91.2,1.0,1.0,1.0,-1.0,-1.0,0.3308,1.0,1.0,-1.0,-1.0,-1.0,1.0,-1.0,1.0,-1.0,-1.0,1.0,-1.0,0.006,0.019,0.013,0.033,0.039,0.0,0.013,0.006,0.019,0.033,0.052,0.117,0.006,0.0,0.019,0.019,0.013,0.006,-0.0874,-1.1106,0.5323,-0.2408,-0.2286,-0.2915,-0.316,-0.925,0.4924,-0.4694,-0.5645,0.3114,0.046,-1.0584,0.4341,0.4203,-0.7271,0.4725,0.3048,-0.2154,0.3078,-0.2944,0.2104,-0.3048,0.3095,0.0776,-0.2771,-0.1767,0.1283,0.2664,-0.304,-0.0798,-0.2894,-0.286,-0.0336,-0.3084,-0.1074,0.0988,0.0388,-0.0063,-0.3826,1.0,1.0,1.0,-1.0,-0.7632,0.3973,1.0,1.0,-1.0,-1.0,-1.0,1.0,-1.0,1.0,-1.0,-1.0,1.0,-1.0,0.0,0.0,0.0,0.0,0.0,0.0,0.0,0.0,0.0,-0.3333,0.0,-0.3333,0.0,3
4.6,run,1.61,2.97,2.18,-0.13,-14.19,0.0,-0.05,0.0,1.085,-1.93,-45.62,113.29,-17.75,2.46,58.01,-14.15,-33.4,103.45,-29.97,-17.31,99.67,-0.88,-40.08,100.37,20.39,-22.24,101.16,8.5,-36.0,123.54,-29.0,-6.0,57.22,-8.0,-24.02,91.62,-35.0,-26.18,112.07,-11.91,-29.63,89.64,15.5,-12.6,89.7,1.0,1.0,1.0,-1.0,-1.0,0.609,1.0,1.0,-1.0,-1.0,-1.0,1.0,-1.0,1.0,-1.0,-1.0,0.9839,-1.0,0.019,0.013,0.013,0.026,0.0,0.006,0.013,0.0,0.026,0.045,0.0,0.13,0.013,0.0,0.006,0.006,0.039,0.006,-0.0644,-1.1152,0.5568,-0.2669,-0.2255,-0.316,-0.2899,-0.9004,0.4679,-0.4924,-0.5645,0.3344,0.0215,-1.0462,0.4096,0.3958,-0.7179,0.4479,0.2996,-0.1681,0.3075,-0.3038,0.1588,-0.3054,0.3144,0.1463,-0.286,-0.21,0.0898,0.2727,-0.3048,-0.0098,-0.2946,-0.2922,0.011,-0.3079,-0.0838,0.092,0.1784,-0.064,-0.3124,1.0,1.0,1.0,-1.0,-1.0,0.3308,1.0,1.0,-1.0,-1.0,-1.0,1.0,-1.0,1.0,-1.0,-1.0,1.0,-1.0,0.0,0.0,0.0,0.0,0.0,0.0,0.0,0.0,0.0,-0.3333,0.0,-0.3333,0.0,3
4.64,run,1.68,2.96,0.83,-0.45,-12.99,0.0,-0.05,0.0,1.085,-0.53,-44.91,114.7,-19.07,2.11,56.95,-13.01,-32.26,102.22,-31.2,-18.19,101.07,-2.11,-38.67,99.23,19.34,-21.18,100.11,10.0,-34.5,125.04,-30.5,-7.5,58.72,-6.5,-22.52,90.12,-35.0,-27.68,113.57,-13.41,-28.13,88.14,14.0,-14.1,88.2,1.0,1.0,1.0,-1.0,0.1198,1.0,1.0,0.706,-1.0,-1.0,-0.9791,1.0,-1.0,1.0,-1.0,-1.0,-0.5115,-1.0,0.019,0.013,0.013,0.026,0.0,0.006,0.013,0.0,0.026,0.045,0.0,0.13,0.013,0.0,0.006,0.006,0.039,0.006,-0.0261,-1.1137,0.5952,-0.3053,-0.2255,-0.3528,-0.2531,-0.8621,0.4295,-0.5308,-0.5783,0.3697,-0.0169,-1.0201,0.3712,0.3574,-0.6918,0.4096,0.3023,-0.1139,0.3077,-0.3052,0.1111,-0.3026,0.3089,0.1949,-0.2927,-0.2395,0.0296,0.276,-0.3059,0.056,-0.2987,-0.2971,0.0706,-0.308,-0.0657,0.0858,0.038,-0.0023,-0.2476,1.0,1.0,1.0,-1.0,-1.0,0.609,1.0,1.0,-1.0,-1.0,-1.0,1.0,-1.0,1.0,-1.0,-1.0,0.9839,-1.0,0.0,0.0,0.0,0.0,0.0,0.0,0.0,0.0,0.0,-0.3333,0.0,-0.3333,0.0,3
4.68,run,1.74,2.99,0.27,0.0,-9.61,0.0,-0.05,0.0,1.085,0.7,-44.03,115.93,-20.3,1.49,56.34,-11.95,-31.29,101.16,-32.34,-19.16,102.3,-3.43,-37.71,98.09,18.28,-20.21,98.96,11.5,-33.0,126.54,-32.0,-9.0,60.22,-5.0,-21.02,88.62,-33.5,-29.18,115.07,-14.91,-26.63,86.64,12.5,-15.6,86.7,1.0,1.0,1.0,-1.0,-0.0043,1.0,1.0,0.394,-1.0,-0.4903,-0.6952,1.0,-1.0,1.0,-1.0,-1.0,-0.1295,-1.0,0.019,0.013,0.013,0.026,0.0,0.006,0.013,0.0,0.026,0.045,0.0,0.13,0.013,0.0,0.006,0.006,0.039,0.006,-0.0015,-1.1014,0.6197,-0.3283,-0.2316,-0.3712,-0.2332,-0.8422,0.408,-0.5522,-0.5937,0.3942,-0.0383,-0.9956,0.3513,0.339,-0.6734,0.3912,0.3077,-0.0317,0.3115,-0.3038,0.0538,-0.2839,0.2943,0.2146,-0.289,-0.2518,-0.0394,0.2893,-0.2982,0.1353,-0.2872,-0.28,0.1215,-0.2877,-0.06,0.0849,0.0145,-0.0079,-0.2267,1.0,1.0,1.0,-1.0,0.1198,1.0,1.0,0.706,-1.0,-1.0,-0.9791,1.0,-1.0,1.0,-1.0,-1.0,-0.5115,-1.0,0.0,0.0,0.0,0.0,0.0,0.0,0.0,0.0,0.0,-0.3333,0.0,-0.3333,0.0,3
4.72,run,1.74,2.98,0.99,1.54,-1.17,0.0,-0.05,0.0,1.085,2.02,-42.8,117.25,-21.71,0.7,55.9,-10.81,-30.23,99.93,-33.22,-20.3,103.71,-4.75,-36.56,97.03,17.14,-19.25,97.82,13.0,-31.5,128.04,-33.5,-7.5,61.72,-3.5,-19.52,87.12,-32.0,-30.68,116.57,-16.41,-25.13,85.14,11.0,-17.1,85.2,1.0,1.0,1.0,-1.0,0.7656,1.0,1.0,0.4015,-1.0,-0.2359,-0.2469,1.0,-1.0,1.0,-1.0,-1.0,-1.0,-0.9397,0.006,0.006,0.006,0.026,0.006,0.0,0.013,0.013,0.019,0.045,0.0,0.123,0.013,0.006,0.006,0.019,0.065,0.013,0.0199,-1.0861,0.6412,-0.3497,-0.2424,-0.382,-0.2148,-0.8253,0.3896,-0.5722,-0.6105,0.4157,-0.0614,-0.9787,0.3313,0.3206,-0.6565,0.3712,0.3056,0.0422,0.3082,-0.3028,-0.0075,-0.2438,0.2833,0.221,-0.2796,-0.26,-0.0984,0.2927,-0.3054,0.1656,-0.2848,-0.2733,0.1559,-0.2851,-0.0552,0.0872,0.0047,0.0001,-0.1677,1.0,1.0,1.0,-1.0,-0.0043,1.0,1.0,0.394,-1.0,-0.4903,-0.6952,1.0,-1.0,1.0,-1.0,-1.0,-0.1295,-1.0,0.0,0.0,0.0,0.0,0.0,0.0,0.0,0.0,0.0,-0.3333,0.0,-0.3333,0.0,3
4.76,run,1.77,3.06,0.66,0.57,2.19,0.0,-0.05,0.0,1.085,3.52,-41.66,118.65,-23.2,-0.18,55.81,-9.67,-29.09,98.79,-33.93,-21.71,105.21,-6.15,-35.42,95.8,16.08,-18.19,96.68,14.5,-30.0,129.54,-35.0,-6.81,63.22,-2.0,-18.02,85.62,-30.5,-32.18,118.07,-17.91,-23.63,83.64,9.5,-18.6,86.03,1.0,1.0,1.0,-1.0,0.3306,1.0,1.0,0.494,-1.0,-0.3277,-0.2216,1.0,-1.0,1.0,-1.0,-1.0,-0.3058,0.2474,0.006,0.006,0.006,0.026,0.006,0.0,0.013,0.013,0.019,0.045,0.0,0.123,0.013,0.006,0.006,0.019,0.065,0.013,0.043,-1.0646,0.6642,-0.3743,-0.2562,-0.3896,-0.1948,-0.8069,0.3682,-0.5875,-0.6305,0.4403,-0.0844,-0.9587,0.3129,0.3007,-0.6397,0.3513,0.3002,0.1101,0.3021,-0.304,-0.057,-0.1994,0.2731,0.2238,-0.2763,-0.2395,-0.1437,0.297,-0.3001,0.1907,-0.2684,-0.2661,0.1724,-0.2744,-0.055,0.0864,0.0173,0.0269,-0.0203,1.0,1.0,1.0,-1.0,0.7656,1.0,1.0,0.4015,-1.0,-0.2359,-0.2469,1.0,-1.0,1.0,-1.0,-1.0,-1.0,-0.9397,0.0,0.0,0.0,0.0,0.0,0.0,0.0,0.0,0.0,-0.3333,0.0,-0.3333,0.0,3
4.8,run,1.7,3.16,0.08,1.5,0.83,0.0,-0.05,0.0,1.085,4.48,-40.69,119.44,-24.35,-0.62,55.99,-8.61,-28.12,97.65,-34.37,-22.76,106.26,-7.21,-34.37,94.75,15.12,-17.23,95.62,16.0,-28.5,128.04,-35.0,-5.31,64.72,-0.5,-16.52,84.12,-29.0,-30.68,119.57,-19.41,-22.13,82.14,8.0,-20.1,87.53,1.0,1.0,0.3237,-1.0,1.0,0.1253,1.0,0.5517,-1.0,0.3146,0.8243,1.0,-1.0,1.0,-0.7178,-1.0,-1.0,1.0,0.006,0.006,0.006,0.026,0.006,0.0,0.013,0.013,0.019,0.045,0.0,0.123,0.013,0.006,0.006,0.019,0.065,0.013,0.069,-1.0446,0.6888,-0.4004,-0.2715,-0.3912,-0.1749,-0.7869,0.3482,-0.5998,-0.655,0.4663,-0.1089,-0.9388,0.2915,0.2823,-0.6213,0.3313,0.3044,0.1491,0.3001,-0.307,-0.0953,-0.1452,0.2632,0.2287,-0.2654,-0.212,-0.1893,0.3021,-0.2987,0.2055,-0.2655,-0.2528,0.1872,-0.2641,-0.0523,0.0936,0.0115,0.0099,0.0383,1.0,1.0,1.0,-1.0,0.3306,1.0,1.0,0.494,-1.0,-0.3277,-0.2216,1.0,-1.0,1.0,-1.0,-1.0,-0.3058,0.2474,0.0,0.0,0.0,0.0,0.0,0.0,0.0,0.0,0.0,-0.3333,0.0,-0.3333,0.0,3
4.84,run,1.65,3.23,0.15,1.26,1.18,0.0,-0.05,0.0,1.085,5.62,-40.08,120.59,-25.49,-1.67,56.78,-7.56,-27.07,96.5,-34.45,-23.73,107.4,-8.17,-33.22,93.6,14.06,-16.26,94.39,17.5,-27.0,126.54,-35.0,-3.81,63.22,1.0,-15.02,82.62,-27.5,-29.18,121.07,-20.91,-20.63,80.64,6.5,-21.6,89.03,1.0,1.0,-1.0,-1.0,0.6868,-1.0,1.0,1.0,-1.0,-0.4827,1.0,1.0,-1.0,1.0,-1.0,-0.459,-1.0,1.0,0.013,0.026,0.013,0.019,0.013,0.019,0.019,0.019,0.013,0.0,0.0,0.123,0.013,0.0,0.006,0.039,0.071,0.0,0.0859,-1.0278,0.7026,-0.4203,-0.2792,-0.3881,-0.1565,-0.7701,0.3283,-0.6075,-0.6734,0.4847,-0.1273,-0.9204,0.273,0.2654,-0.6044,0.3129,0.2783,0.1697,0.2635,-0.2921,-0.0964,-0.0897,0.2555,0.2253,-0.2629,-0.1781,-0.2037,0.2827,-0.2803,0.2151,-0.257,-0.2422,0.1963,-0.2561,-0.0582,0.1024,0.0015,0.0262,0.0146,1.0,1.0,0.3237,-1.0,1.0,0.1253,1.0,0.5517,-1.0,0.3146,0.8243,1.0,-1.0,1.0,-0.7178,-1.0,-1.0,1.0,0.0,0.0,0.0,0.0,0.0,0.0,0.0,0.0,0.0,-0.3333,0.0,-0.3333,0.0,3
4.88,run,1.58,3.3,-1.13,0.78,0.07,0.0,-0.05,0.0,1.085,7.29,-38.41,122.26,-27.07,-2.81,58.1,-6.15,-25.58,95.01,-34.19,-25.22,108.98,-9.84,-31.64,92.11,12.57,-15.03,92.81,19.0,-25.5,125.04,-35.0,-2.31,61.72,2.5,-13.52,81.12,-27.63,-27.68,122.57,-22.41,-19.13,79.14,8.0,-23.1,90.53,1.0,1.0,-0.2898,-1.0,0.6295,-1.0,1.0,1.0,-1.0,-0.7895,1.0,1.0,-1.0,1.0,-1.0,0.8804,-1.0,1.0,0.013,0.026,0.013,0.019,0.013,0.019,0.019,0.019,0.013,0.0,0.0,0.123,0.013,0.0,0.006,0.039,0.071,0.0,0.1058,-1.017,0.7225,-0.4403,-0.2976,-0.3743,-0.1381,-0.7517,0.3083,-0.609,-0.6903,0.5047,-0.1442,-0.9004,0.2531,0.247,-0.5875,0.2915,0.2702,0.1593,0.2598,-0.2798,-0.1371,-0.0106,0.2484,0.2273,-0.2594,-0.1304,-0.2064,0.2732,-0.26,0.2259,-0.2553,-0.2391,0.2012,-0.2604,-0.0625,0.1084,0.0027,0.0219,0.0206,1.0,1.0,-1.0,-1.0,0.6868,-1.0,1.0,1.0,-1.0,-0.4827,1.0,1.0,-1.0,1.0,-1.0,-0.459,-1.0,1.0,0.0,0.0,0.0,0.0,0.0,0.0,0.0,0.0,0.0,-0.3333,0.0,-0.3333,0.0,3
4.92,run,1.6,3.29,-0.09,0.62,1.22,0.0,-0.05,0.0,1.085,7.73,-37.35,123.05,-27.95,-3.34,59.06,-5.19,-24.7,94.04,-33.49,-25.93,109.86,-10.55,-30.76,91.14,11.6,-14.15,91.85,20.5,-24.0,123.54,-35.0,-0.81,60.22,4.0,-12.02,79.62,-29.13,-26.18,124.07,-23.91,-17.63,77.64,9.5,-24.6,92.03,1.0,1.0,0.5385,-1.0,1.0,-1.0,1.0,1.0,-1.0,-1.0,1.0,1.0,-1.0,1.0,-1.0,0.3027,-1.0,1.0,0.013,0.026,0.013,0.019,0.013,0.019,0.019,0.019,0.013,0.0,0.0,0.123,0.013,0.0,0.006,0.039,0.071,0.0,0.135,-0.9879,0.7517,-0.4679,-0.3175,-0.3513,-0.1135,-0.7256,0.2823,-0.6044,-0.7164,0.5323,-0.1733,-0.8728,0.227,0.2209,-0.566,0.2638,0.2708,0.1932,0.2635,-0.2732,-0.1518,0.057,0.2426,0.2321,-0.2546,-0.0784,-0.2175,0.2686,-0.2636,0.2355,-0.2517,-0.2404,0.201,-0.2596,-0.0684,0.1143,-0.0197,0.0135,0.0012,1.0,1.0,-0.2898,-1.0,0.6295,-1.0,1.0,1.0,-1.0,-0.7895,1.0,1.0,-1.0,1.0,-1.0,0.8804,-1.0,1.0,0.0,0.0,0.0,0.0,0.0,0.0,0.0,0.0,0.0,-0.3333,0.0,-0.3333,0.0,3
4.96,run,1.57,3.19,-0.84,-1.0,1.1,0.0,-0.05,0.0,1.085,8.7,-36.3,123.66,-28.74,-3.6,60.03,-4.13,-23.64,92.9,-32.26,-26.54,110.65,-11.34,-29.62,90.0,10.55,-13.27,90.79,22.0,-22.5,122.04,-35.0,0.69,58.72,5.5,-10.52,78.12,-30.63,-24.68,125.57,-25.41,-16.13,76.14,8.0,-26.1,93.53,1.0,1.0,-0.5321,-1.0,1.0,-1.0,1.0,1.0,-1.0,-1.0,1.0,1.0,-1.0,1.0,-1.0,0.0233,-1.0,1.0,0.0,0.026,0.006,0.013,0.0,0.013,0.039,0.033,0.019,0.019,0.0,0.091,0.013,0.006,0.0,0.033,0.084,0.0,0.1427,-0.9695,0.7655,-0.4832,-0.3267,-0.3344,-0.0966,-0.7102,0.2654,-0.5921,-0.7286,0.5476,-0.1856,-0.8575,0.2102,0.204,-0.5507,0.247,0.2211,0.211,0.2413,-0.2544,-0.1442,0.1094,0.2393,0.2257,-0.2478,-0.0043,-0.2028,0.2512,-0.2351,0.228,-0.2457,-0.2378,0.2039,-0.2513,-0.0674,0.1139,-0.0016,0.0109,0.0214,1.0,1.0,0.5385,-1.0,1.0,-1.0,1.0,1.0,-1.0,-1.0,1.0,1.0,-1.0,1.0,-1.0,0.3027,-1.0,1.0,0.0,0.0,0.0,0.0,0.0,0.0,0.0,0.0,0.0,-0.3333,0.0,-0.3333,0.0,3
5.0,run,1.48,3.19,-1.37,0.39,-3.43,0.0,-0.05,0.0,1.085,9.67,-35.24,124.1,-29.62,-3.78,60.82,-2.9,-22.5,91.67,-31.38,-26.72,111.62,-12.3,-28.48,88.77,9.84,-12.48,89.91,23.5,-21.0,120.54,-35.0,-0.81,57.22,7.0,-9.02,76.62,-32.13,-23.18,127.07,-26.91,-14.63,74.64,9.5,-27.6,95.03,0.9414,1.0,-0.8531,-1.0,0.0717,-1.0,1.0,1.0,-1.0,-1.0,1.0,1.0,-1.0,1.0,-0.5709,1.0,-1.0,1.0,0.0,0.026,0.006,0.013,0.0,0.013,0.039,0.033,0.019,0.019,0.0,0.091,0.013,0.006,0.0,0.033,0.084,0.0,0.1595,-0.9511,0.7762,-0.497,-0.3313,-0.3175,-0.0782,-0.6918,0.2454,-0.5706,-0.7394,0.5614,-0.1994,-0.8376,0.1902,0.1856,-0.5354,0.2286,0.2187,0.2175,0.2096,-0.2304,-0.1184,0.1405,0.2373,0.2277,-0.249,0.0783,-0.1826,0.2282,-0.2169,0.2352,-0.2476,-0.2362,0.2008,-0.2456,-0.0694,0.1051,-0.0146,-0.0174,0.0192,1.0,1.0,-0.5321,-1.0,1.0,-1.0,1.0,1.0,-1.0,-1.0,1.0,1.0,-1.0,1.0,-1.0,0.0233,-1.0,1.0,0.0,0.0,0.0,0.0,0.0,0.0,0.0,0.0,0.0,-0.3333,0.0,-0.3333,0.0,3
5.04,run,1.5,3.16,-0.7,-0.32,-4.33,0.0,-0.048,0.0,1.085,10.28,-34.28,124.1,-30.32,-3.52,61.88,-1.85,-21.45,90.7,-30.41,-26.72,112.24,-13.1,-27.51,87.8,8.79,-11.51,88.86,25.0,-19.5,119.04,-35.0,-2.31,55.72,8.5,-7.52,75.12,-33.63,-21.68,128.57,-28.41,-13.13,73.14,11.0,-29.1,96.53,0.7783,1.0,-0.004,-1.0,0.2304,-1.0,1.0,1.0,-1.0,-1.0,1.0,1.0,-1.0,1.0,-0.8745,1.0,-1.0,1.0,0.0,0.026,0.006,0.013,0.0,0.013,0.039,0.033,0.019,0.019,0.0,0.091,0.013,0.006,0.0,0.033,0.084,0.0,0.1764,-0.9327,0.7839,-0.5123,-0.3344,-0.3037,-0.0568,-0.6719,0.224,-0.5553,-0.7424,0.5783,-0.2163,-0.8176,0.1687,0.1733,-0.5216,0.2132,0.2157,0.2205,0.1752,-0.2182,-0.0942,0.1496,0.2458,0.2334,-0.2539,0.1117,-0.1392,0.2223,-0.2144,0.2386,-0.2529,-0.2109,0.1918,-0.2288,-0.0777,0.105,-0.024,0.0069,-0.0599,0.9414,1.0,-0.8531,-1.0,0.0717,-1.0,1.0,1.0,-1.0,-1.0,1.0,1.0,-1.0,1.0,-0.5709,1.0,-1.0,1.0,0.0,0.0,0.0,0.0,0.0,0.0,0.0,0.0,0.0,-0.32,0.0,-0.32,0.0,3
5.08,run,1.36,2.83,-1.9,-8.84,-3.14,0.0,-0.046,0.0,1.085,11.34,-33.22,123.93,-31.11,-2.72,62.4,-0.62,-20.13,89.3,-29.79,-26.72,113.2,-13.97,-26.02,86.22,8.0,-10.81,88.07,25.95,-18.0,117.54,-35.0,-2.5,54.22,10.0,-6.02,73.62,-35.0,-20.18,130.07,-29.91,-11.63,71.64,12.5,-30.6,98.03,0.7414,1.0,-0.2497,-1.0,0.4091,-1.0,1.0,1.0,-1.0,-1.0,1.0,1.0,-1.0,1.0,-0.7402,1.0,-1.0,1.0,0.013,0.065,0.006,0.033,0.019,0.013,0.045,0.065,0.006,0.033,0.065,0.117,0.019,0.019,0.013,0.033,0.084,0.006,0.1871,-0.9158,0.7839,-0.5246,-0.3298,-0.2853,-0.0383,-0.6535,0.2071,-0.5384,-0.7424,0.589,-0.2301,-0.8007,0.1519,0.1549,-0.5047,0.1948,0.1913,0.2177,0.1226,-0.1988,-0.0487,0.1739,0.2412,0.2325,-0.2412,0.1416,-0.0975,0.1959,-0.2019,0.2304,-0.2405,-0.2168,0.1976,-0.2293,-0.0757,0.1025,-0.0122,-0.0055,-0.0755,0.7783,1.0,-0.004,-1.0,0.2304,-1.0,1.0,1.0,-1.0,-1.0,1.0,1.0,-1.0,1.0,-0.8745,1.0,-1.0,1.0,0.0,0.0,0.0,0.0,0.0,0.0,0.0,0.0,0.0,-0.3067,0.0,-0.3067,0.0,3
