t_s,phase,roll_deg,pitch_deg,gyro_x_dps,gyro_y_dps,gyro_z_dps,height_ref_mm,vx_ref_mps,vy_ref_mps,max_cur_a,q0_deg,q1_deg,q2_deg,q3_deg,q4_deg,q5_deg,q6_deg,q7_deg,q8_deg,q9_deg,q10_deg,q11_deg,q12_deg,q13_deg,q14_deg,q15_deg,q16_deg,q17_deg,cmd0_deg,cmd1_deg,cmd2_deg,cmd3_deg,cmd4_deg,cmd5_deg,cmd6_deg,cmd7_deg,cmd8_deg,cmd9_deg,cmd10_deg,cmd11_deg,cmd12_deg,cmd13_deg,cmd14_deg,cmd15_deg,cmd16_deg,cmd17_deg,act0,act1,act2,act3,act4,act5,act6,act7,act8,act9,act10,act11,act12,act13,act14,act15,act16,act17,cur0_a,cur1_a,cur2_a,cur3_a,cur4_a,cur5_a,cur6_a,cur7_a,cur8_a,cur9_a,cur10_a,cur11_a,cur12_a,cur13_a,cur14_a,cur15_a,cur16_a,cur17_a,obs0,obs1,obs2,obs3,obs4,obs5,obs6,obs7,obs8,obs9,obs10,obs11,obs12,obs13,obs14,obs15,obs16,obs17,obs18,obs19,obs20,obs21,obs22,obs23,obs24,obs25,obs26,obs27,obs28,obs29,obs30,obs31,obs32,obs33,obs34,obs35,obs36,obs37,obs38,obs39,obs40,obs41,obs42,obs43,obs44,obs45,obs46,obs47,obs48,obs49,obs50,obs51,obs52,obs53,obs54,obs55,obs56,obs57,obs58,obs59,obs60,obs61,obs62,obs63,obs64,obs65,obs66,obs67,obs68,obs69,obs70,obs71,rot60_k
0.0,run,1.11,3.22,-0.09,0.21,1.03,0.0,0.0,0.0,0.013,0.09,18.81,79.45,-0.09,16.7,78.66,-0.35,18.98,79.45,0.0,16.88,78.93,-0.09,18.46,78.93,0.0,17.31,78.49,-1.41,17.4,77.95,-1.59,15.29,80.16,1.15,17.75,80.95,1.5,15.64,80.43,1.41,17.13,77.6,-1.5,16.08,79.99,-1.0,-1.0,-0.3612,-1.0,-1.0,1.0,1.0,-1.0,1.0,1.0,-1.0,1.0,0.258,-1.0,-0.1959,-1.0,-1.0,1.0,0.013,0.006,0.006,0.013,0.0,0.013,0.006,0.0,0.006,0.006,0.0,0.006,0.013,0.0,0.006,0.013,0.0,0.006,0.0,-0.0015,0.0,0.0,-0.0015,0.0,0.0,-0.0046,0.0,0.0,-0.0031,0.0,0.0,-0.0031,-0.0015,0.0,-0.0046,0.0,0.0,-0.0037,0.0,0.0,-0.0037,0.0,0.0,-0.0096,0.0,0.0,-0.0075,0.0,0.0,-0.0069,-0.0032,0.0,-0.0112,0.0,0.0,0.0,-0.0052,-0.0042,-0.0083,0.0,0.0,0.0,0.0,0.0,0.0,0.0,0.0,0.0,0.0,0.0,0.0,0.0,0.0,0.0,0.0,0.0,0.0,0.0,0.0,0.0,0.0,0.0,0.0,0.0,0.0,0.0,0.0,0.0,0.0,0.0,0
0.04,run,1.03,3.22,-0.96,-0.08,0.14,0.0,0.0,0.0,0.013,-0.09,18.54,79.37,-0.26,16.52,78.75,-0.26,18.63,79.45,0.18,16.7,79.1,0.0,18.19,78.93,-0.35,17.05,78.57,-2.91,18.9,79.45,-3.09,13.79,81.66,-0.35,16.25,79.45,3.0,14.14,81.93,-0.09,15.63,79.1,-3.0,14.58,81.49,-1.0,1.0,1.0,-1.0,-1.0,1.0,-1.0,-1.0,-1.0,1.0,-1.0,1.0,-1.0,0.0456,1.0,-1.0,-1.0,1.0,0.013,0.006,0.006,0.013,0.0,0.013,0.006,0.0,0.006,0.006,0.0,0.006,0.013,0.0,0.006,0.013,0.0,0.006,0.0,-0.0015,0.0,0.0,-0.0015,0.0,0.0,-0.0046,0.0,0.0,-0.0046,0.0,0.0,-0.0031,-0.0031,0.0,-0.0046,0.0,0.0,-0.0026,0.0,0.0,-0.0026,0.0,0.0,-0.0067,0.0,0.0,-0.0077,0.0,0.0,-0.0048,-0.0047,0.0,-0.0078,0.0,-0.0025,0.0018,-0.0016,0.0037,0.0179,-1.0,-1.0,-0.3612,-1.0,-1.0,1.0,1.0,-1.0,1.0,1.0,-1.0,1.0,0.258,-1.0,-0.1959,-1.0,-1.0,1.0,0.0,0.0,0.0,0.0,0.0,0.0,0.0,0.0,0.0,0.0,0.0,0.0,0.0,0
0.08,run,1.0,3.31,1.12,1.0,1.06,0.0,0.0,0.0,0.013,-0.97,18.02,78.84,-0.7,15.91,79.63,0.09,18.02,80.07,0.97,16.17,79.8,0.62,17.49,78.31,-0.97,16.52,78.93,-4.41,20.4,80.95,-4.59,12.29,83.16,-1.85,17.75,80.95,4.5,12.64,83.43,-1.59,17.13,80.6,-4.5,13.08,82.99,-0.464,1.0,0.2584,-1.0,-1.0,0.8771,-1.0,1.0,1.0,1.0,-1.0,1.0,-0.9642,1.0,1.0,-1.0,-1.0,1.0,0.013,0.006,0.006,0.013,0.0,0.013,0.006,0.0,0.006,0.006,0.0,0.006,0.013,0.0,0.006,0.013,0.0,0.006,-0.0031,-0.0061,-0.0015,-0.0031,-0.0046,0.0015,0.0015,-0.0107,0.0,0.0031,-0.0077,0.0031,0.0015,-0.0077,-0.0031,-0.0061,-0.0092,0.0015,-0.0115,-0.0191,-0.0058,-0.0115,-0.0134,0.0058,0.0058,-0.0277,0.0,0.0115,-0.0169,0.0115,0.0058,-0.0207,-0.0033,-0.0231,-0.0228,0.0058,-0.0095,0.002,-0.0168,-0.0014,0.0024,-1.0,1.0,1.0,-1.0,-1.0,1.0,-1.0,-1.0,-1.0,1.0,-1.0,1.0,-1.0,0.0456,1.0,-1.0,-1.0,1.0,0.0,0.0,0.0,0.0,0.0,0.0,0.0,0.0,0.0,0.0,0.0,0.0,0.0,0
0.12,run,0.9,3.42,-0.87,1.77,-3.81,0.0,0.0,0.0,0.033,-1.85,17.75,78.57,-1.41,15.03,80.68,0.35,17.31,80.68,1.85,15.29,80.68,0.7,16.7,78.13,-1.85,15.64,79.8,-5.91,21.9,79.45,-6.09,10.79,84.66,-3.35,19.25,82.45,6.0,11.14,84.93,-0.09,18.63,79.1,-6.0,11.58,84.49,-1.0,1.0,0.0878,-1.0,-1.0,1.0,-1.0,0.9636,1.0,1.0,-1.0,1.0,0.94,0.8298,-0.6847,-1.0,-1.0,1.0,0.019,0.006,0.0,0.019,0.006,0.013,0.0,0.0,0.0,0.019,0.006,0.033,0.006,0.006,0.0,0.026,0.0,0.013,-0.0184,-0.0153,-0.0107,-0.0107,-0.0153,0.0169,0.0077,-0.0215,0.0107,0.0169,-0.0169,0.0153,0.0123,-0.0199,-0.0138,-0.0169,-0.0184,0.0077,-0.0655,-0.0479,-0.0385,-0.0368,-0.0496,0.0615,0.027,-0.0596,0.0402,0.0598,-0.0463,0.054,0.0443,-0.0605,-0.0426,-0.0564,-0.0504,0.027,-0.0119,0.0098,0.0195,0.0175,0.0184,-0.464,1.0,0.2584,-1.0,-1.0,0.8771,-1.0,1.0,1.0,1.0,-1.0,1.0,-0.9642,1.0,1.0,-1.0,-1.0,1.0,0.0,0.0,0.0,0.0,0.0,0.0,0.0,0.0,0.0,0.0,0.0,0.0,0.0,0
0.16,run,0.53,4.0,-7.41,10.91,-8.87,0.0,0.0,0.0,0.033,-3.25,17.75,78.57,-2.72,13.8,82.27,0.35,16.96,81.12,3.16,13.97,82.09,0.44,16.35,78.57,-3.34,14.33,81.21,-7.41,23.4,77.95,-7.59,9.29,86.16,-4.85,20.75,80.95,7.5,9.64,86.43,1.41,20.13,80.6,-7.5,10.08,85.99,-1.0,1.0,-0.2018,-1.0,-1.0,1.0,-0.8436,0.8598,0.1113,1.0,-1.0,1.0,1.0,0.9038,1.0,-1.0,-1.0,1.0,0.019,0.006,0.0,0.019,0.006,0.013,0.0,0.0,0.0,0.019,0.006,0.033,0.006,0.006,0.0,0.026,0.0,0.013,-0.0337,-0.0199,-0.0153,-0.023,-0.0307,0.0353,0.0123,-0.0337,0.0215,0.0322,-0.0322,0.0307,0.0138,-0.0337,-0.0169,-0.0322,-0.0337,0.023,-0.1034,-0.0508,-0.0442,-0.0718,-0.0923,0.1121,0.0362,-0.0878,0.0685,0.0994,-0.09,0.0954,0.0367,-0.0941,-0.0413,-0.097,-0.0929,0.0765,-0.0204,0.0194,-0.0152,0.0308,-0.0664,-1.0,1.0,0.0878,-1.0,-1.0,1.0,-1.0,0.9636,1.0,1.0,-1.0,1.0,0.94,0.8298,-0.6847,-1.0,-1.0,1.0,0.0,0.0,0.0,0.0,0.0,0.0,0.0,0.0,0.0,0.0,0.0,0.0,0.0,0
0.2,run,0.28,4.11,-7.01,2.1,-13.71,0.0,0.0,0.0,0.033,-4.31,17.75,78.84,-4.57,12.83,83.32,0.26,16.96,81.74,4.13,12.92,83.06,0.09,16.26,78.84,-4.31,13.36,82.27,-8.91,24.9,79.45,-9.09,7.79,87.66,-6.35,22.25,82.45,9.0,8.14,87.93,2.91,18.63,82.1,-9.0,8.58,87.49,-0.9976,1.0,0.4516,-1.0,-0.9676,1.0,-1.0,1.0,1.0,1.0,-1.0,1.0,1.0,-1.0,1.0,-1.0,-1.0,1.0,0.019,0.006,0.0,0.019,0.006,0.013,0.0,0.0,0.0,0.019,0.006,0.033,0.006,0.006,0.0,0.026,0.0,0.013,-0.0583,-0.0199,-0.0153,-0.046,-0.0522,0.0629,0.0123,-0.0399,0.0291,0.0552,-0.0552,0.0552,0.0092,-0.0399,-0.0092,-0.0583,-0.0568,0.0476,-0.1519,-0.0355,-0.031,-0.1248,-0.1341,0.1679,0.0253,-0.0813,0.0728,0.1441,-0.1375,0.1463,0.0108,-0.0858,-0.0041,-0.1524,-0.1395,0.133,-0.0532,0.0698,-0.1294,0.1905,-0.1548,-1.0,1.0,-0.2018,-1.0,-1.0,1.0,-0.8436,0.8598,0.1113,1.0,-1.0,1.0,1.0,0.9038,1.0,-1.0,-1.0,1.0,0.0,0.0,0.0,0.0,0.0,0.0,0.0,0.0,0.0,0.0,0.0,0.0,0.0,0
0.24,run,0.21,4.22,-4.01,5.03,-17.33,0.0,0.0,0.0,0.111,-5.54,18.37,79.1,-5.36,12.22,84.11,-0.44,17.31,82.27,5.45,11.78,84.29,-0.09,16.26,79.45,-5.71,12.22,83.41,-7.41,26.4,80.95,-10.59,9.29,89.16,-6.38,20.75,80.95,10.5,6.64,89.43,1.41,17.13,83.6,-10.5,7.08,88.99,0.2197,1.0,0.8817,-1.0,0.6295,1.0,-0.1824,-0.8968,-0.5561,1.0,-1.0,1.0,-0.5275,-1.0,1.0,-1.0,-1.0,1.0,0.019,0.071,0.0,0.019,0.019,0.039,0.019,0.045,0.0,0.026,0.006,0.033,0.006,0.111,0.019,0.026,0.006,0.026,-0.0767,-0.0199,-0.0107,-0.0782,-0.069,0.0813,0.0107,-0.0399,0.0399,0.0721,-0.0736,0.0721,0.0031,-0.0414,-0.0046,-0.0752,-0.0736,0.066,-0.1872,-0.0249,-0.0015,-0.2288,-0.168,0.1984,0.011,-0.0569,0.0981,0.175,-0.1771,0.1765,-0.0194,-0.0668,0.0174,-0.1808,-0.1718,0.174,-0.0746,0.0792,-0.1223,0.0367,-0.2392,-0.9976,1.0,0.4516,-1.0,-0.9676,1.0,-1.0,1.0,1.0,1.0,-1.0,1.0,1.0,-1.0,1.0,-1.0,-1.0,1.0,0.0,0.0,0.0,0.0,0.0,0.0,0.0,0.0,0.0,0.0,0.0,0.0,0.0,0
0.28,run,0.46,3.64,4.17,-13.0,-31.92,0.0,0.0,0.0,0.111,-6.68,19.16,79.37,-6.06,10.63,85.87,-1.76,17.93,82.27,6.86,10.37,85.87,0.18,16.7,80.51,-7.21,10.9,84.64,-5.91,27.9,79.45,-12.09,7.79,87.66,-7.88,19.25,82.45,12.0,5.14,90.93,-0.09,18.63,85.1,-12.0,5.58,90.49,1.0,1.0,-0.4043,-1.0,-1.0,-1.0,-1.0,-1.0,0.5086,1.0,-1.0,1.0,-1.0,1.0,1.0,-1.0,-1.0,1.0,0.019,0.071,0.0,0.019,0.019,0.039,0.019,0.045,0.0,0.026,0.006,0.033,0.006,0.111,0.019,0.026,0.006,0.026,-0.0982,-0.0092,-0.0061,-0.092,-0.0798,0.0951,-0.0015,-0.0337,0.0491,0.0951,-0.0936,0.0936,0.0,-0.0414,0.0061,-0.0997,-0.0936,0.0859,-0.2118,0.023,0.0163,-0.2121,-0.158,0.1908,-0.0385,-0.0168,0.1033,0.209,-0.199,0.2043,-0.0251,-0.0467,0.0525,-0.2188,-0.1952,0.1968,-0.0806,0.0888,-0.0701,0.0877,-0.3024,0.2197,1.0,0.8817,-1.0,0.6295,1.0,-0.1824,-0.8968,-0.5561,1.0,-1.0,1.0,-0.5275,-1.0,1.0,-1.0,-1.0,1.0,0.0,0.0,0.0,0.0,0.0,0.0,0.0,0.0,0.0,0.0,0.0,0.0,0.0,0
0.32,run,0.27,4.23,-6.98,17.15,-32.2,0.0,0.0,0.0,0.111,-7.65,20.13,79.72,-8.26,9.58,87.19,-2.99,18.54,82.27,8.17,9.05,87.28,0.88,16.88,81.65,-8.61,9.49,86.04,-7.41,26.4,80.95,-13.59,6.29,86.16,-9.38,20.75,83.95,13.5,3.64,92.43,-1.59,20.13,83.6,-13.5,4.08,91.99,-1.0,-1.0,0.6595,-1.0,-1.0,-0.6019,-1.0,1.0,1.0,1.0,-1.0,1.0,-0.0677,1.0,-0.5818,-1.0,-1.0,1.0,0.019,0.071,0.0,0.019,0.019,0.039,0.019,0.045,0.0,0.026,0.006,0.033,0.006,0.111,0.019,0.026,0.006,0.026,-0.1181,0.0046,-0.0015,-0.1043,-0.1074,0.1258,-0.0245,-0.023,0.0491,0.1197,-0.1181,0.1212,0.0046,-0.0337,0.0245,-0.1258,-0.1166,0.1074,-0.2235,0.0682,0.0288,-0.1948,-0.2148,0.2493,-0.1137,0.0288,0.0723,0.2389,-0.2319,0.2472,-0.0002,-0.0038,0.1062,-0.2516,-0.2235,0.2188,-0.0591,0.0384,0.0728,-0.2268,-0.5571,1.0,1.0,-0.4043,-1.0,-1.0,-1.0,-1.0,-1.0,0.5086,1.0,-1.0,1.0,-1.0,1.0,1.0,-1.0,-1.0,1.0,0.0,0.0,0.0,0.0,0.0,0.0,0.0,0.0,0.0,0.0,0.0,0.0,0.0,0
0.36,run,0.16,4.11,-5.11,-2.68,-11.18,0.0,0.0,0.0,0.195,-8.35,21.27,79.98,-8.96,8.7,87.98,-4.39,18.98,82.27,9.67,7.73,88.68,1.05,17.05,82.71,-9.93,8.17,87.45,-8.91,27.9,79.45,-15.09,7.79,87.66,-10.88,19.25,85.45,15.0,2.14,93.93,-3.09,18.63,82.1,-15.0,2.58,93.49,-1.0,1.0,-0.7756,-1.0,0.8514,1.0,-1.0,-1.0,0.7918,1.0,-1.0,1.0,-1.0,-1.0,-0.1395,-1.0,-1.0,1.0,0.006,0.182,0.013,0.039,0.013,0.006,0.033,0.111,0.0,0.026,0.013,0.019,0.006,0.195,0.033,0.019,0.013,0.026,-0.135,0.0215,0.0046,-0.1427,-0.1258,0.1488,-0.046,-0.0123,0.0491,0.1427,-0.1411,0.1457,0.0169,-0.0307,0.0445,-0.1503,-0.1411,0.1319,-0.2197,0.1109,0.0431,-0.2801,-0.2193,0.2607,-0.1601,0.0604,0.0506,0.2535,-0.2486,0.265,0.0458,0.0089,0.1491,-0.2681,-0.2484,0.2451,-0.0757,0.0902,-0.1219,0.2993,-0.5619,-1.0,-1.0,0.6595,-1.0,-1.0,-0.6019,-1.0,1.0,1.0,1.0,-1.0,1.0,-0.0677,1.0,-0.5818,-1.0,-1.0,1.0,0.0,0.0,0.0,0.0,0.0,0.0,0.0,0.0,0.0,0.0,0.0,0.0,0.0,0
0.4,run,0.47,3.76,5.77,-7.08,-12.88,0.0,0.0,0.0,0.195,-8.7,22.5,80.24,-10.81,7.82,88.68,-5.8,19.25,82.27,11.07,6.5,90.09,0.7,17.75,83.5,-11.43,7.47,88.86,-10.41,26.4,77.95,-16.59,6.29,86.16,-12.38,17.75,83.95,16.5,0.64,95.43,-4.59,17.13,83.6,-16.5,1.08,91.99,-1.0,0.1293,-0.0171,-1.0,-0.839,-1.0,-1.0,-1.0,-0.9224,1.0,-1.0,1.0,-1.0,-1.0,1.0,-1.0,-1.0,-1.0,0.006,0.182,0.013,0.039,0.013,0.006,0.033,0.111,0.0,0.026,0.013,0.019,0.006,0.195,0.033,0.019,0.013,0.026,-0.1473,0.0414,0.0092,-0.1549,-0.1411,0.1626,-0.0706,-0.0046,0.0491,0.1687,-0.1641,0.1703,0.0199,-0.0276,0.0629,-0.1733,-0.1641,0.1565,-0.199,0.1512,0.0472,-0.2413,-0.2101,0.2335,-0.2026,0.0706,0.0354,0.2736,-0.2589,0.2761,0.0434,0.0175,0.1723,-0.2725,-0.2588,0.2621,-0.0848,0.0795,-0.0891,-0.0468,-0.1951,-1.0,1.0,-0.7756,-1.0,0.8514,1.0,-1.0,-1.0,0.7918,1.0,-1.0,1.0,-1.0,-1.0,-0.1395,-1.0,-1.0,1.0,0.0,0.0,0.0,0.0,0.0,0.0,0.0,0.0,0.0,0.0,0.0,0.0,0.0,0
0.44,run,0.56,3.45,2.44,-6.32,-8.6,0.0,0.0,0.0,0.195,-8.79,24.08,80.07,-12.48,6.94,89.03,-7.82,19.34,82.97,13.1,4.66,92.11,0.18,17.84,84.46,-13.36,5.19,90.88,-11.91,24.9,76.45,-18.09,4.79,84.66,-13.88,16.25,85.45,18.0,-0.86,96.93,-6.09,18.63,85.1,-15.0,-0.42,90.49,-0.5176,-1.0,-0.1193,-1.0,-1.0,-1.0,-1.0,0.0403,1.0,1.0,-1.0,1.0,-1.0,1.0,1.0,0.2563,-1.0,-1.0,0.006,0.182,0.013,0.039,0.013,0.006,0.033,0.111,0.0,0.026,0.013,0.019,0.006,0.195,0.033,0.019,0.013,0.026,-0.1534,0.0629,0.0138,-0.1871,-0.1565,0.1749,-0.0951,0.0,0.0491,0.1933,-0.1856,0.1948,0.0138,-0.0153,0.0767,-0.1994,-0.1764,0.181,-0.1626,0.1872,0.0505,-0.291,-0.2052,0.2099,-0.2348,0.0668,0.0248,0.2845,-0.2626,0.2862,0.0071,0.0588,0.1729,-0.2896,-0.2276,0.2765,-0.0579,0.0488,0.1007,-0.1236,-0.2248,-1.0,0.1293,-0.0171,-1.0,-0.839,-1.0,-1.0,-1.0,-0.9224,1.0,-1.0,1.0,-1.0,-1.0,1.0,-1.0,-1.0,-1.0,0.0,0.0,0.0,0.0,0.0,0.0,0.0,0.0,0.0,0.0,0.0,0.0,0.0,0
0.48,run,0.58,3.37,5.41,-2.1,-7.62,0.0,0.0,0.0,0.195,-9.23,24.52,79.8,-13.71,6.68,88.86,-8.7,19.34,82.97,13.97,3.6,93.08,-0.35,17.84,84.73,-14.24,4.31,91.93,-13.41,23.4,74.95,-19.59,3.29,83.16,-15.38,17.75,86.95,19.5,-2.36,98.43,-7.59,17.13,83.6,-13.5,-1.92,88.99,-1.0,-1.0,-0.1296,-1.0,-1.0,-0.0331,-1.0,1.0,1.0,1.0,-1.0,1.0,-1.0,-0.8908,-1.0,1.0,-1.0,-1.0,0.026,0.149,0.0,0.013,0.019,0.0,0.026,0.0,0.026,0.026,0.013,0.013,0.006,0.091,0.006,0.0,0.019,0.006,-0.1549,0.0905,0.0107,-0.2163,-0.1718,0.181,-0.1304,0.0015,0.0614,0.2286,-0.2178,0.2301,0.0046,-0.0138,0.0936,-0.2332,-0.2163,0.2163,-0.1179,0.2048,0.0271,-0.2815,-0.1846,0.1633,-0.2586,0.0509,0.0501,0.2934,-0.2699,0.2946,-0.0196,0.0452,0.1661,-0.2929,-0.2659,0.2878,-0.0503,0.0217,0.0426,-0.1102,-0.1501,-0.5176,-1.0,-0.1193,-1.0,-1.0,-1.0,-1.0,0.0403,1.0,1.0,-1.0,1.0,-1.0,1.0,1.0,0.2563,-1.0,-1.0,0.0,0.0,0.0,0.0,0.0,0.0,0.0,0.0,0.0,0.0,0.0,0.0,0.0,0
0.52,run,0.72,2.9,5.94,-12.4,-6.46,0.0,0.0,0.0,0.195,-9.93,25.14,79.01,-14.94,5.98,88.42,-10.11,18.46,83.94,15.38,2.2,94.39,-1.58,17.84,84.9,-15.21,2.99,92.46,-14.91,21.9,73.45,-21.09,1.79,84.66,-16.88,16.25,88.45,21.0,-3.86,99.93,-9.09,15.63,85.1,-12.0,-3.42,87.49,-1.0,-1.0,-0.6693,-1.0,-1.0,0.6948,-1.0,-1.0,1.0,1.0,-1.0,1.0,-1.0,0.1474,1.0,1.0,-1.0,-1.0,0.026,0.149,0.0,0.013,0.019,0.0,0.026,0.0,0.026,0.026,0.013,0.013,0.006,0.091,0.006,0.0,0.019,0.006,-0.1626,0.0982,0.0061,-0.2378,-0.1764,0.1779,-0.1457,0.0015,0.0614,0.2439,-0.2362,0.247,-0.0046,-0.0138,0.0982,-0.2485,-0.2316,0.2347,-0.1287,0.1896,-0.0087,-0.3264,-0.1569,0.0959,-0.2734,0.0356,0.0351,0.2978,-0.2997,0.3078,-0.0691,0.0317,0.144,-0.2974,-0.2785,0.3123,-0.0485,0.0152,0.0945,-0.0366,-0.1329,-1.0,-1.0,-0.1296,-1.0,-1.0,-0.0331,-1.0,1.0,1.0,1.0,-1.0,1.0,-1.0,-0.8908,-1.0,1.0,-1.0,-1.0,0.0,0.0,0.0,0.0,0.0,0.0,0.0,0.0,0.0,0.0,0.0,0.0,0.0,0
0.56,run,0.81,2.73,5.18,-4.12,-9.97,0.0,0.0,0.0,0.195,-10.81,25.49,78.13,-16.35,5.19,87.28,-11.43,17.67,84.81,16.7,0.79,95.8,-2.64,17.84,84.46,-16.0,1.49,92.72,-16.41,20.4,74.95,-22.59,0.29,86.16,-18.38,17.75,89.95,22.5,-5.36,101.43,-10.59,14.13,86.6,-10.5,-4.92,85.99,-1.0,-1.0,0.5384,-1.0,-1.0,0.4084,-1.0,1.0,1.0,1.0,-0.8301,1.0,-1.0,-0.6029,1.0,1.0,-1.0,-1.0,0.026,0.149,0.0,0.013,0.019,0.0,0.026,0.0,0.026,0.026,0.013,0.013,0.006,0.091,0.006,0.0,0.019,0.006,-0.1749,0.1089,-0.0077,-0.2592,-0.1887,0.1703,-0.1703,-0.0138,0.0782,0.2684,-0.2608,0.27,-0.0261,-0.0138,0.1012,-0.2654,-0.2546,0.2439,-0.1354,0.1724,-0.0571,-0.3078,-0.1552,0.0388,-0.2821,-0.0317,0.0869,0.2991,-0.3005,0.3005,-0.1277,0.0222,0.1121,-0.2705,-0.2799,0.2526,-0.0365,-0.026,0.1037,-0.2164,-0.1128,-1.0,-1.0,-0.6693,-1.0,-1.0,0.6948,-1.0,-1.0,1.0,1.0,-1.0,1.0,-1.0,0.1474,1.0,1.0,-1.0,-1.0,0.0,0.0,0.0,0.0,0.0,0.0,0.0,0.0,0.0,0.0,0.0,0.0,0.0,0
0.6,run,0.63,2.78,-0.96,0.96,-17.57,0.0,0.0,0.0,0.195,-11.78,25.49,76.99,-17.93,4.31,86.31,-13.01,16.96,85.96,18.37,-0.79,97.38,-3.96,16.61,83.85,-16.26,-0.09,93.34,-17.91,18.9,73.45,-24.09,-1.21,87.66,-19.88,16.25,91.45,24.0,-3.86,102.93,-12.09,12.63,88.1,-9.0,-6.42,84.49,-1.0,-1.0,-0.0805,-1.0,-0.8738,1.0,-1.0,-0.4008,1.0,1.0,0.4138,1.0,-1.0,-0.2891,0.824,1.0,-1.0,-1.0,0.026,0.033,0.0,0.019,0.026,0.006,0.033,0.013,0.026,0.019,0.013,0.019,0.019,0.013,0.0,0.006,0.033,0.006,-0.1902,0.115,-0.023,-0.2838,-0.2025,0.1503,-0.1933,-0.0276,0.0936,0.2915,-0.2853,0.2945,-0.0445,-0.0138,0.0936,-0.2792,-0.2807,0.2485,-0.1524,0.1437,-0.0976,-0.3076,-0.1605,-0.0478,-0.2839,-0.0741,0.1185,0.2958,-0.3025,0.3025,-0.1585,0.0155,0.0497,-0.2412,-0.2939,0.1941,-0.0287,-0.0409,0.0903,-0.0719,-0.1741,-1.0,-1.0,0.5384,-1.0,-1.0,0.4084,-1.0,1.0,1.0,1.0,-0.8301,1.0,-1.0,-0.6029,1.0,1.0,-1.0,-1.0,0.0,0.0,0.0,0.0,0.0,0.0,0.0,0.0,0.0,0.0,0.0,0.0,0.0,0
0.64,run,0.43,2.92,-2.35,3.43,-22.75,0.0,0.0,0.0,0.195,-12.83,25.49,76.03,-19.34,3.34,85.78,-14.24,16.7,87.19,19.69,-1.93,98.7,-5.36,15.82,83.85,-16.35,-1.32,93.08,-16.41,17.4,74.95,-25.59,-2.71,89.16,-21.38,14.75,92.95,25.5,-5.36,101.43,-13.59,11.13,89.6,-7.5,-7.92,82.99,-0.4076,-0.8032,1.0,-1.0,-0.3915,1.0,-1.0,0.3076,1.0,1.0,0.1933,-1.0,-1.0,-1.0,1.0,1.0,-1.0,-1.0,0.026,0.033,0.0,0.019,0.026,0.006,0.033,0.013,0.026,0.019,0.013,0.019,0.019,0.013,0.0,0.006,0.033,0.006,-0.2071,0.115,-0.043,-0.3114,-0.2178,0.1335,-0.2209,-0.0399,0.1135,0.3206,-0.3129,0.3221,-0.0675,-0.0353,0.0828,-0.2838,-0.3083,0.2592,-0.1607,0.1006,-0.1322,-0.3037,-0.1615,-0.0875,-0.2871,-0.0911,0.1468,0.3004,-0.3002,0.3002,-0.1846,-0.0579,0.0004,-0.1836,-0.2941,0.1702,-0.0443,-0.0362,-0.0168,0.0167,-0.3067,-1.0,-1.0,-0.0805,-1.0,-0.8738,1.0,-1.0,-0.4008,1.0,1.0,0.4138,1.0,-1.0,-0.2891,0.824,1.0,-1.0,-1.0,0.0,0.0,0.0,0.0,0.0,0.0,0.0,0.0,0.0,0.0,0.0,0.0,0.0,0
0.68,run,0.21,3.08,-5.3,4.72,-29.16,0.0,0.0,0.0,0.195,-14.15,25.31,75.06,-20.48,2.2,85.43,-15.56,16.08,88.42,20.92,-2.99,99.93,-6.59,14.77,84.11,-15.82,-2.64,92.46,-14.91,15.9,76.45,-27.09,-1.21,90.66,-22.88,13.25,94.45,27.0,-3.86,99.93,-15.09,9.63,91.1,-6.0,-9.42,81.49,1.0,-1.0,1.0,-1.0,0.8271,1.0,-1.0,-1.0,1.0,1.0,1.0,-1.0,-1.0,0.2691,1.0,1.0,-0.875,-1.0,0.026,0.033,0.0,0.019,0.026,0.006,0.033,0.013,0.026,0.019,0.013,0.019,0.019,0.013,0.0,0.006,0.033,0.006,-0.2255,0.115,-0.0598,-0.3359,-0.2347,0.1243,-0.2424,-0.0445,0.135,0.3436,-0.3329,0.3451,-0.092,-0.0491,0.0828,-0.2853,-0.3298,0.2546,-0.1882,0.0704,-0.1619,-0.3135,-0.1824,-0.0991,-0.2893,-0.0827,0.191,0.3049,-0.2921,0.3047,-0.2302,-0.0973,0.0003,-0.1348,-0.2942,0.1003,-0.0613,-0.0247,-0.041,0.0599,-0.397,-0.4076,-0.8032,1.0,-1.0,-0.3915,1.0,-1.0,0.3076,1.0,1.0,0.1933,-1.0,-1.0,-1.0,1.0,1.0,-1.0,-1.0,0.0,0.0,0.0,0.0,0.0,0.0,0.0,0.0,0.0,0.0,0.0,0.0,0.0,0
0.72,run,0.1,3.37,-3.23,7.99,-27.55,0.0,0.0,0.0,0.195,-15.64,24.17,74.27,-21.97,0.97,84.99,-16.96,15.38,89.82,22.24,-3.96,101.07,-7.91,13.45,84.2,-14.68,-3.96,91.58,-13.41,14.4,77.95,-28.59,0.29,92.16,-24.38,14.75,95.95,28.5,-2.36,98.43,-16.59,8.13,92.6,-4.5,-10.92,79.99,1.0,-1.0,0.3525,-1.0,1.0,0.6266,-1.0,1.0,1.0,1.0,1.0,-1.0,-0.874,-1.0,1.0,1.0,-0.129,-1.0,0.013,0.0,0.0,0.013,0.013,0.006,0.026,0.0,0.013,0.019,0.0,0.006,0.019,0.0,0.013,0.0,0.026,0.013,-0.2485,0.112,-0.0767,-0.3559,-0.2546,0.1181,-0.2654,-0.0552,0.1565,0.3651,-0.3513,0.3666,-0.1135,-0.0675,0.0874,-0.2761,-0.3528,0.2439,-0.2264,0.0367,-0.1828,-0.3015,-0.2097,-0.0946,-0.2972,-0.1021,0.2221,0.3018,-0.2802,0.3017,-0.2495,-0.1438,0.0191,-0.0565,-0.3006,0.026,-0.0804,-0.01,-0.0925,0.0824,-0.5089,1.0,-1.0,1.0,-1.0,0.8271,1.0,-1.0,-1.0,1.0,1.0,1.0,-1.0,-1.0,0.2691,1.0,1.0,-0.875,-1.0,0.0,0.0,0.0,0.0,0.0,0.0,0.0,0.0,0.0,0.0,0.0,0.0,0.0,0
0.76,run,0.08,3.75,-1.43,10.9,-21.41,0.0,0.0,0.0,0.195,-15.82,23.2,73.74,-23.2,0.09,84.64,-18.37,14.68,91.67,23.55,-4.83,101.95,-9.23,12.04,84.81,-14.06,-5.36,90.44,-11.91,12.9,79.45,-30.09,1.79,93.66,-22.88,13.25,97.45,30.0,-0.86,96.93,-18.09,6.63,94.1,-3.0,-9.42,78.49,1.0,-0.9829,1.0,-1.0,1.0,0.5985,0.2486,-1.0,1.0,1.0,1.0,-1.0,-1.0,0.0593,1.0,1.0,1.0,-1.0,0.013,0.0,0.0,0.013,0.013,0.006,0.026,0.0,0.013,0.019,0.0,0.006,0.019,0.0,0.013,0.0,0.026,0.013,-0.2746,0.092,-0.0905,-0.382,-0.2761,0.1104,-0.2899,-0.0675,0.181,0.3881,-0.3682,0.3866,-0.1365,-0.0905,0.089,-0.2562,-0.3758,0.2286,-0.2556,-0.0486,-0.1794,-0.3082,-0.2268,-0.0948,-0.2994,-0.1172,0.2469,0.297,-0.259,0.2855,-0.2604,-0.1864,0.0191,0.0347,-0.2961,-0.0389,-0.0907,0.0149,-0.0563,0.1394,-0.4809,1.0,-1.0,0.3525,-1.0,1.0,0.6266,-1.0,1.0,1.0,1.0,1.0,-1.0,-0.874,-1.0,1.0,1.0,-0.129,-1.0,0.0,0.0,0.0,0.0,0.0,0.0,0.0,0.0,0.0,0.0,0.0,0.0,0.0,0
0.8,run,0.05,4.1,-2.17,8.45,-12.47,0.0,0.0,0.0,0.195,-16.7,22.15,73.56,-24.43,-0.53,84.2,-19.42,14.24,92.72,24.61,-5.1,102.39,-10.11,10.9,84.99,-12.39,-6.5,89.47,-10.41,11.4,80.95,-31.59,3.29,92.16,-21.38,11.75,98.95,31.5,0.64,95.43,-19.59,5.13,95.6,-1.5,-7.92,76.99,1.0,-0.9344,1.0,-1.0,1.0,-1.0,0.6268,-1.0,1.0,1.0,1.0,-1.0,-1.0,-0.9762,0.5599,1.0,1.0,-1.0,0.013,0.0,0.0,0.013,0.013,0.006,0.026,0.0,0.013,0.019,0.0,0.006,0.019,0.0,0.013,0.0,0.026,0.013,-0.2777,0.0752,-0.0997,-0.4034,-0.2915,0.1043,-0.3145,-0.0798,0.2132,0.4111,-0.3835,0.4019,-0.1595,-0.115,0.0997,-0.2454,-0.4004,0.2086,-0.1903,-0.0967,-0.1597,-0.2955,-0.2158,-0.0891,-0.3008,-0.1276,0.2925,0.2933,-0.2383,0.2568,-0.2677,-0.2217,0.0533,0.0642,-0.2985,-0.1013,-0.0918,0.0478,-0.025,0.1903,-0.3737,1.0,-0.9829,1.0,-1.0,1.0,0.5985,0.2486,-1.0,1.0,1.0,1.0,-1.0,-1.0,0.0593,1.0,1.0,1.0,-1.0,0.0,0.0,0.0,0.0,0.0,0.0,0.0,0.0,0.0,0.0,0.0,0.0,0.0,0
0.84,run,0.18,4.26,0.87,5.58,-10.88,0.0,0.0,0.0,0.195,-16.79,21.01,73.56,-25.58,-0.79,83.58,-20.48,13.8,93.78,25.84,-4.92,102.66,-11.25,9.76,84.99,-11.69,-7.47,88.24,-8.91,9.9,82.45,-33.09,4.79,90.66,-19.88,10.25,100.45,33.0,2.14,93.93,-21.09,3.63,97.1,0.0,-6.42,75.49,0.1021,-1.0,1.0,-1.0,1.0,-1.0,1.0,-1.0,1.0,1.0,1.0,-1.0,-1.0,0.1215,1.0,1.0,1.0,-1.0,0.033,0.0,0.026,0.026,0.0,0.006,0.006,0.013,0.006,0.039,0.006,0.006,0.039,0.0,0.026,0.033,0.019,0.006,-0.293,0.0568,-0.1028,-0.4249,-0.3022,0.0966,-0.3329,-0.0874,0.2316,0.4295,-0.3881,0.4096,-0.1749,-0.135,0.1028,-0.2163,-0.4203,0.1917,-0.1914,-0.1375,-0.1234,-0.2883,-0.1917,-0.0915,-0.2803,-0.1184,0.2745,0.2751,-0.1842,0.2088,-0.2456,-0.2308,0.0489,0.1554,-0.2845,-0.1349,-0.0946,0.0782,-0.038,0.1474,-0.2177,1.0,-0.9344,1.0,-1.0,1.0,-1.0,0.6268,-1.0,1.0,1.0,1.0,-1.0,-1.0,-0.9762,0.5599,1.0,1.0,-1.0,0.0,0.0,0.0,0.0,0.0,0.0,0.0,0.0,0.0,0.0,0.0,0.0,0.0,0
0.88,run,0.5,4.42,7.36,6.6,4.92,0.0,0.0,0.0,0.195,-16.7,19.78,73.92,-26.81,-0.88,83.41,-21.09,12.92,94.92,27.07,-4.39,102.48,-12.39,8.61,85.52,-10.2,-8.09,87.01,-10.41,8.4,83.95,-34.59,3.29,89.16,-18.38,8.75,101.95,34.5,3.64,92.43,-22.59,2.13,98.6,1.5,-4.92,73.99,-0.4431,-1.0,1.0,-1.0,0.1654,-1.0,1.0,-1.0,1.0,1.0,1.0,-0.6107,-1.0,-0.5743,0.8566,1.0,1.0,-1.0,0.033,0.0,0.026,0.026,0.0,0.006,0.006,0.013,0.006,0.039,0.006,0.006,0.039,0.0,0.026,0.033,0.019,0.006,-0.2945,0.0368,-0.1028,-0.4449,-0.3068,0.0859,-0.3513,-0.0951,0.25,0.451,-0.385,0.4142,-0.1948,-0.1549,0.1028,-0.204,-0.4372,0.1703,-0.1393,-0.1649,-0.0864,-0.2705,-0.1501,-0.101,-0.2596,-0.1093,0.2556,0.2666,-0.1184,0.162,-0.2406,-0.2302,0.0342,0.1511,-0.2573,-0.1684,-0.083,0.0922,0.0152,0.0975,-0.1898,0.1021,-1.0,1.0,-1.0,1.0,-1.0,1.0,-1.0,1.0,1.0,1.0,-1.0,-1.0,0.1215,1.0,1.0,1.0,-1.0,0.0,0.0,0.0,0.0,0.0,0.0,0.0,0.0,0.0,0.0,0.0,0.0,0.0,0
0.92,run,0.53,4.74,1.74,10.18,8.09,0.0,0.0,0.0,0.195,-15.73,18.28,74.88,-28.21,-0.62,83.58,-21.45,12.04,96.24,28.48,-3.43,101.95,-13.8,7.12,86.31,-8.88,-8.44,85.69,-11.91,6.9,85.45,-35.0,1.79,87.66,-16.88,7.25,103.45,35.0,5.14,90.93,-24.09,3.63,100.1,3.0,-3.42,72.49,-0.6975,-1.0,1.0,-1.0,-1.0,-1.0,1.0,-1.0,1.0,1.0,1.0,0.0665,-1.0,0.613,1.0,1.0,1.0,-1.0,0.033,0.0,0.026,0.026,0.0,0.006,0.006,0.013,0.006,0.039,0.006,0.006,0.039,0.0,0.026,0.033,0.019,0.006,-0.293,0.0153,-0.0966,-0.4663,-0.3083,0.0828,-0.362,-0.1104,0.27,0.4725,-0.3758,0.4111,-0.2148,-0.1749,0.112,-0.1779,-0.4479,0.1488,-0.0913,-0.2023,-0.0357,-0.2761,-0.1112,-0.0831,-0.2251,-0.1385,0.2595,0.2734,-0.0457,0.101,-0.249,-0.2418,0.0612,0.2112,-0.2235,-0.2047,-0.0558,0.1064,0.1284,0.1152,0.0858,-0.4431,-1.0,1.0,-1.0,0.1654,-1.0,1.0,-1.0,1.0,1.0,1.0,-0.6107,-1.0,-0.5743,0.8566,1.0,1.0,-1.0,0.0,0.0,0.0,0.0,0.0,0.0,0.0,0.0,0.0,0.0,0.0,0.0,0.0,0
0.96,run,0.76,4.71,5.51,-0.31,19.83,0.0,0.0,0.0,0.195,-14.77,16.88,76.03,-29.53,0.18,84.2,-21.45,10.72,97.29,29.79,-2.46,101.16,-15.03,5.89,87.19,-8.0,-8.44,84.55,-13.41,5.4,86.95,-35.0,0.29,89.16,-15.38,5.75,104.95,33.5,6.64,89.43,-25.59,2.13,101.6,4.5,-1.92,70.99,-1.0,-0.769,1.0,-1.0,-0.5698,0.7747,1.0,-1.0,1.0,0.7467,1.0,-1.0,-1.0,-1.0,1.0,1.0,1.0,-1.0,0.019,0.0,0.026,0.019,0.0,0.006,0.006,0.0,0.026,0.033,0.033,0.065,0.052,0.0,0.039,0.006,0.0,0.013,-0.2761,-0.0107,-0.0798,-0.4909,-0.3037,0.0859,-0.3682,-0.1258,0.293,0.497,-0.359,0.4019,-0.2393,-0.201,0.1258,-0.1549,-0.4541,0.1258,0.0004,-0.241,0.0394,-0.2869,-0.0603,-0.0465,-0.181,-0.1554,0.2694,0.285,0.0324,0.0356,-0.2679,-0.2687,0.0955,0.2355,-0.1798,-0.231,-0.0524,0.1341,0.0304,0.1777,0.1411,-0.6975,-1.0,1.0,-1.0,-1.0,-1.0,1.0,-1.0,1.0,1.0,1.0,0.0665,-1.0,0.613,1.0,1.0,1.0,-1.0,0.0,0.0,0.0,0.0,0.0,0.0,0.0,0.0,0.0,0.0,0.0,0.0,0.0,0
1.0,run,0.99,4.99,7.83,5.87,26.1,0.0,0.0,0.0,0.195,-13.62,15.38,77.34,-31.11,0.97,85.17,-21.36,9.32,98.7,31.11,-1.41,100.2,-16.7,4.66,88.59,-5.98,-8.26,83.23,-11.91,3.9,88.45,-35.0,-1.21,87.66,-13.88,4.25,106.45,32.0,8.14,87.93,-27.09,0.63,103.1,6.0,-0.42,69.49,1.0,-1.0,1.0,-1.0,-0.7439,-0.3147,1.0,-1.0,1.0,-0.0284,1.0,-1.0,-1.0,-1.0,1.0,1.0,1.0,-1.0,0.019,0.0,0.026,0.019,0.0,0.006,0.006,0.0,0.026,0.033,0.033,0.065,0.052,0.0,0.039,0.006,0.0,0.013,-0.2592,-0.0353,-0.0598,-0.5139,-0.2899,0.0966,-0.3682,-0.1488,0.3114,0.52,-0.3421,0.3881,-0.2608,-0.2224,0.1411,-0.1396,-0.4541,0.1058,0.0636,-0.2608,0.1024,-0.2871,0.0096,0.0077,-0.1267,-0.1951,0.2576,0.2858,0.086,-0.0269,-0.2681,-0.2686,0.1244,0.2224,-0.1259,-0.2365,-0.0327,0.1318,0.0962,-0.0054,0.346,-1.0,-0.769,1.0,-1.0,-0.5698,0.7747,1.0,-1.0,1.0,0.7467,1.0,-1.0,-1.0,-1.0,1.0,1.0,1.0,-1.0,0.0,0.0,0.0,0.0,0.0,0.0,0.0,0.0,0.0,0.0,0.0,0.0,0.0,0
1.04,run,0.83,5.2,-2.92,4.52,24.25,0.0,0.002,0.0,0.195,-12.74,13.89,78.75,-32.26,1.14,86.13,-21.01,7.91,100.2,32.26,-0.18,98.88,-18.28,3.34,90.09,-5.36,-7.47,81.74,-10.41,2.4,89.95,-35.0,-2.71,89.16,-12.38,2.75,107.95,30.5,9.64,86.43,-28.59,-0.87,104.6,7.5,1.08,67.99,1.0,-1.0,1.0,-1.0,-0.3345,1.0,1.0,-1.0,1.0,-1.0,1.0,-1.0,-1.0,-1.0,1.0,1.0,1.0,-0.1186,0.019,0.0,0.026,0.019,0.0,0.006,0.006,0.0,0.026,0.033,0.033,0.065,0.052,0.0,0.039,0.006,0.0,0.013,-0.2393,-0.0614,-0.0368,-0.5415,-0.2761,0.1135,-0.3666,-0.1733,0.3359,0.543,-0.3237,0.3712,-0.2899,-0.2439,0.1657,-0.1043,-0.451,0.0828,0.1198,-0.281,0.1585,-0.3053,0.0588,0.0691,-0.0829,-0.2293,0.273,0.2869,0.1297,-0.0825,-0.2977,-0.2691,0.1797,0.2889,-0.0765,-0.2524,-0.0126,0.1559,0.1366,0.1025,0.4556,1.0,-1.0,1.0,-1.0,-0.7439,-0.3147,1.0,-1.0,1.0,-0.0284,1.0,-1.0,-1.0,-1.0,1.0,1.0,1.0,-1.0,0.0,0.0,0.0,0.0,0.0,0.0,0.0,0.0,0.0,0.0133,0.0,0.0133,0.0,0
1.08,run,1.01,5.43,8.06,4.79,20.93,0.0,0.004,0.0,0.195,-12.04,12.57,80.07,-33.22,0.79,87.19,-19.69,6.5,101.69,33.05,0.97,97.56,-19.78,2.29,91.58,-3.25,-6.42,80.33,-8.91,0.9,91.45,-35.0,-1.21,90.66,-10.88,1.25,109.45,29.0,8.14,84.93,-30.09,-2.37,106.1,9.0,2.58,69.49,1.0,-1.0,1.0,-1.0,1.0,1.0,1.0,-1.0,1.0,-1.0,-1.0,-1.0,-1.0,-1.0,1.0,1.0,1.0,1.0,0.019,0.0,0.026,0.013,0.0,0.013,0.019,0.0,0.013,0.006,0.091,0.084,0.019,0.019,0.013,0.006,0.013,0.013,-0.224,-0.0874,-0.0123,-0.5614,-0.273,0.1304,-0.3605,-0.1979,0.362,0.563,-0.3022,0.3482,-0.3175,-0.2669,0.1917,-0.0936,-0.4372,0.0568,0.1409,-0.2936,0.2021,-0.2877,0.0526,0.1111,-0.0352,-0.2517,0.288,0.2749,0.1705,-0.1432,-0.311,-0.2739,0.2227,0.2421,-0.0023,-0.2736,-0.0269,0.1744,-0.051,0.0788,0.4233,1.0,-1.0,1.0,-1.0,-0.3345,1.0,1.0,-1.0,1.0,-1.0,1.0,-1.0,-1.0,-1.0,1.0,1.0,1.0,-0.1186,0.0,0.0,0.0,0.0,0.0,0.0,0.0,0.0,0.0,0.0267,0.0,0.0267,0.0,0
1.12,run,1.37,5.47,8.39,3.87,20.7,0.0,0.006,0.0,0.195,-11.07,10.99,81.74,-34.01,0.62,88.59,-18.02,5.1,103.36,33.75,2.37,95.8,-21.53,0.79,93.52,-1.85,-4.66,78.66,-7.41,-0.6,92.95,-35.0,-2.71,92.16,-9.38,-0.25,110.95,27.5,6.64,86.43,-31.59,-3.87,107.6,7.5,4.08,70.99,1.0,-1.0,1.0,-1.0,0.2739,1.0,1.0,-1.0,1.0,-1.0,-1.0,0.9681,-1.0,-1.0,1.0,-1.0,1.0,1.0,0.019,0.0,0.026,0.013,0.0,0.013,0.019,0.0,0.013,0.006,0.091,0.084,0.019,0.019,0.013,0.006,0.013,0.013,-0.2117,-0.1104,0.0107,-0.5783,-0.2792,0.1488,-0.3375,-0.2224,0.3881,0.5768,-0.2823,0.3252,-0.3436,-0.2853,0.2178,-0.0568,-0.4188,0.0322,0.1449,-0.2923,0.2283,-0.2651,0.0137,0.1472,0.0621,-0.2688,0.3,0.2445,0.1946,-0.1871,-0.3161,-0.2612,0.2543,0.3084,0.0678,-0.2841,-0.0105,0.1944,0.1407,0.0836,0.3654,1.0,-1.0,1.0,-1.0,1.0,1.0,1.0,-1.0,1.0,-1.0,-1.0,-1.0,-1.0,-1.0,1.0,1.0,1.0,1.0,0.0,0.0,0.0,0.0,0.0,0.0,0.0,0.0,0.0,0.04,0.0,0.04,0.0,0
1.16,run,1.94,5.45,12.75,1.52,19.7,0.0,0.008,0.0,0.195,-10.02,9.4,83.41,-34.45,-0.09,89.74,-16.35,3.52,105.29,33.57,3.69,94.13,-23.2,-0.7,95.1,0.0,-3.16,76.99,-5.91,-2.1,94.45,-35.0,-4.21,93.66,-7.88,-1.75,112.45,26.0,5.14,84.93,-33.09,-5.37,109.1,6.0,5.58,72.49,1.0,-1.0,1.0,-1.0,-0.1238,1.0,1.0,-1.0,1.0,-1.0,-1.0,-0.1712,-1.0,-1.0,1.0,-1.0,1.0,1.0,0.019,0.0,0.026,0.013,0.0,0.013,0.019,0.0,0.013,0.006,0.091,0.084,0.019,0.019,0.013,0.006,0.013,0.013,-0.1948,-0.1381,0.0399,-0.5921,-0.2823,0.1733,-0.3083,-0.247,0.4172,0.589,-0.2577,0.2945,-0.3743,-0.3114,0.2516,-0.0322,-0.3881,0.0031,0.1536,-0.29,0.2499,-0.2282,0.0001,0.1789,0.1336,-0.264,0.3001,0.2091,0.2121,-0.2258,-0.3161,-0.2634,0.2823,0.2917,0.1423,-0.289,0.0209,0.1978,0.1464,0.0676,0.3612,1.0,-1.0,1.0,-1.0,0.2739,1.0,1.0,-1.0,1.0,-1.0,-1.0,0.9681,-1.0,-1.0,1.0,-1.0,1.0,1.0,0.0,0.0,0.0,0.0,0.0,0.0,0.0,0.0,0.0,0.0533,0.0,0.0533,0.0,0
1.2,run,2.07,5.23,3.07,-4.11,8.21,0.0,0.01,0.0,0.195,-9.14,8.17,84.64,-34.45,-1.05,90.97,-15.12,2.29,106.7,33.31,4.57,92.72,-24.43,-1.85,96.33,1.05,-1.93,75.85,-4.41,-3.6,95.95,-35.0,-5.71,95.16,-6.38,-3.25,113.95,24.5,3.64,86.43,-34.59,-6.87,110.6,4.5,7.08,73.99,1.0,-1.0,1.0,-1.0,-1.0,1.0,1.0,-1.0,1.0,-1.0,-1.0,0.6133,-1.0,-1.0,1.0,-1.0,1.0,1.0,0.058,0.0,0.019,0.013,0.0,0.0,0.019,0.006,0.006,0.052,0.13,0.052,0.013,0.019,0.013,0.006,0.013,0.006,-0.1764,-0.1657,0.069,-0.5998,-0.2945,0.1933,-0.2792,-0.2746,0.451,0.586,-0.2347,0.2654,-0.4034,-0.3375,0.2792,0.0,-0.362,-0.0261,0.1671,-0.2924,0.2693,-0.1846,-0.0397,0.1898,0.1879,-0.2742,0.3194,0.1364,0.223,-0.2525,-0.3157,-0.2689,0.2871,0.3086,0.1841,-0.2967,0.0704,0.1962,0.2225,0.0266,0.3439,1.0,-1.0,1.0,-1.0,-0.1238,1.0,1.0,-1.0,1.0,-1.0,-1.0,-0.1712,-1.0,-1.0,1.0,-1.0,1.0,1.0,0.0,0.0,0.0,0.0,0.0,0.0,0.0,0.0,0.0,0.0667,0.0,0.0667,0.0,0
1.24,run,2.25,5.21,2.63,0.97,-1.97,0.0,0.012,0.0,0.195,-8.0,6.86,86.04,-34.45,-2.37,92.46,-13.71,1.05,107.49,32.7,5.27,91.32,-25.84,-3.16,97.73,2.46,-0.53,74.62,-2.91,-5.1,97.45,-33.5,-7.21,96.66,-4.88,-4.75,115.45,23.0,2.14,84.93,-35.0,-8.37,112.1,3.0,8.58,75.49,1.0,-1.0,1.0,-0.3294,0.2167,1.0,1.0,-1.0,1.0,-1.0,-1.0,-0.1339,-1.0,-1.0,1.0,-1.0,1.0,1.0,0.058,0.0,0.019,0.013,0.0,0.0,0.019,0.006,0.006,0.052,0.13,0.052,0.013,0.019,0.013,0.006,0.013,0.006,-0.1611,-0.1871,0.0905,-0.5998,-0.3114,0.2148,-0.2577,-0.2961,0.4755,0.5814,-0.2194,0.2408,-0.4249,-0.3574,0.3007,0.0184,-0.3405,-0.046,0.1851,-0.3,0.2838,-0.1292,-0.1027,0.2282,0.2269,-0.2873,0.3325,0.0751,0.2242,-0.2856,-0.3163,-0.2767,0.2962,0.2977,0.2242,-0.2962,0.0812,0.1771,0.0536,-0.0717,0.1433,1.0,-1.0,1.0,-1.0,-1.0,1.0,1.0,-1.0,1.0,-1.0,-1.0,0.6133,-1.0,-1.0,1.0,-1.0,1.0,1.0,0.0,0.0,0.0,0.0,0.0,0.0,0.0,0.0,0.0,0.08,0.0,0.08,0.0,0
1.28,run,4.13,4.64,33.86,-3.16,8.38,0.0,0.014,0.0,0.195,-6.94,5.54,87.54,-34.45,-3.6,93.43,-12.22,-0.44,108.9,31.73,5.89,89.74,-27.16,-4.57,99.23,3.52,0.88,73.48,-1.41,-6.6,98.95,-32.0,-5.71,98.16,-3.38,-6.25,116.95,21.5,0.64,83.43,-35.0,-9.87,113.6,1.5,10.08,76.99,1.0,-1.0,1.0,0.25,0.6315,1.0,1.0,-1.0,1.0,-1.0,-1.0,-0.083,-1.0,-1.0,1.0,-1.0,1.0,1.0,0.058,0.0,0.019,0.013,0.0,0.0,0.019,0.006,0.006,0.052,0.13,0.052,0.013,0.019,0.013,0.006,0.013,0.006,-0.1411,-0.2102,0.115,-0.5998,-0.3344,0.2408,-0.2332,-0.3175,0.4893,0.5706,-0.2071,0.2163,-0.4495,-0.3804,0.3252,0.043,-0.316,-0.0675,0.2043,-0.2962,0.2907,-0.0905,-0.1581,0.2575,0.2508,-0.2816,0.2845,0.0123,0.2029,-0.2919,-0.3134,-0.2799,0.2993,0.3004,0.2489,-0.2878,0.0973,0.1752,0.0458,0.0169,-0.0343,1.0,-1.0,1.0,-0.3294,0.2167,1.0,1.0,-1.0,1.0,-1.0,-1.0,-0.1339,-1.0,-1.0,1.0,-1.0,1.0,1.0,0.0,0.0,0.0,0.0,0.0,0.0,0.0,0.0,0.0,0.0933,0.0,0.0933,0.0,0
1.32,run,2.78,3.36,-37.02,-37.75,-0.79,0.0,0.016,0.0,0.195,-5.45,4.22,89.03,-34.37,-5.01,95.19,-10.99,-2.2,110.65,29.97,6.33,87.98,-28.65,-6.68,100.46,4.22,2.02,73.3,0.09,-8.1,100.45,-30.5,-7.21,96.66,-1.88,-7.75,118.45,20.0,-0.86,84.93,-33.5,-8.37,112.1,0.0,11.58,78.49,1.0,-1.0,0.6424,1.0,-1.0,-0.3949,1.0,-1.0,1.0,-1.0,0.1739,1.0,-0.1654,1.0,-0.2292,-1.0,1.0,1.0,0.065,0.0,0.026,0.0,0.0,0.013,0.013,0.0,0.013,0.033,0.039,0.006,0.013,0.006,0.033,0.0,0.045,0.006,-0.1227,-0.2332,0.1411,-0.5998,-0.3559,0.2577,-0.2071,-0.3436,0.5139,0.5538,-0.1963,0.1887,-0.4725,-0.405,0.3513,0.0614,-0.2915,-0.0874,0.2119,-0.2934,0.301,-0.0633,-0.191,0.2433,0.2731,-0.2947,0.2909,-0.0545,0.1822,-0.3076,-0.3054,-0.2878,0.3071,0.2791,0.266,-0.2761,0.2615,0.1258,0.5909,-0.0552,0.1463,1.0,-1.0,1.0,0.25,0.6315,1.0,1.0,-1.0,1.0,-1.0,-1.0,-0.083,-1.0,-1.0,1.0,-1.0,1.0,1.0,0.0,0.0,0.0,0.0,0.0,0.0,0.0,0.0,0.0,0.1067,0.0,0.1067,0.0,0
1.36,run,1.93,4.06,-20.25,24.52,-24.01,0.0,0.018,0.0,0.195,-3.6,2.72,90.44,-33.93,-5.98,96.15,-9.4,-3.16,111.71,28.56,6.42,86.4,-30.06,-7.29,102.04,4.57,3.16,72.16,-1.41,-9.6,101.95,-29.0,-5.71,98.16,-0.38,-6.25,119.95,18.5,0.64,83.43,-32.0,-9.87,110.6,-1.5,10.08,79.99,-1.0,-1.0,1.0,0.1281,1.0,1.0,1.0,1.0,1.0,-0.6906,1.0,-1.0,-0.7052,-1.0,-1.0,-1.0,-1.0,1.0,0.065,0.0,0.026,0.0,0.0,0.013,0.013,0.0,0.013,0.033,0.039,0.006,0.013,0.006,0.033,0.0,0.045,0.006,-0.0966,-0.2562,0.1672,-0.5983,-0.3804,0.2884,-0.1856,-0.3743,0.5446,0.5231,-0.1887,0.158,-0.4985,-0.4418,0.3728,0.0736,-0.2715,-0.0905,0.2458,-0.2914,0.3082,-0.0386,-0.2255,0.285,0.2714,-0.3209,0.3184,-0.1528,0.1562,-0.33,-0.3113,-0.3391,0.2952,0.2413,0.2608,-0.2047,0.1431,0.0138,-0.6462,-0.6589,-0.0138,1.0,-1.0,0.6424,1.0,-1.0,-0.3949,1.0,-1.0,1.0,-1.0,0.1739,1.0,-0.1654,1.0,-0.2292,-1.0,1.0,1.0,0.0,0.0,0.0,0.0,0.0,0.0,0.0,0.0,0.0,0.12,0.0,0.12,0.0,0
1.4,run,3.07,3.65,31.03,-13.32,-1.87,0.0,0.02,0.0,0.195,-2.37,1.14,91.93,-32.87,-6.86,97.03,-8.0,-5.01,113.82,27.16,6.24,85.87,-31.29,-8.53,103.54,4.66,4.66,72.51,-2.91,-11.1,103.45,-27.5,-4.21,99.66,1.12,-7.75,121.45,17.0,-0.86,81.93,-33.5,-11.37,112.1,-3.0,11.58,81.49,-1.0,-1.0,0.4927,1.0,1.0,1.0,1.0,-1.0,1.0,-1.0,-1.0,-1.0,-1.0,-1.0,1.0,-1.0,1.0,1.0,0.065,0.0,0.026,0.0,0.0,0.013,0.013,0.0,0.013,0.033,0.039,0.006,0.013,0.006,0.033,0.0,0.045,0.006,-0.0644,-0.2823,0.1917,-0.5906,-0.3973,0.3053,-0.158,-0.3912,0.563,0.4985,-0.1871,0.1304,-0.5231,-0.4525,0.4004,0.0798,-0.2516,-0.1104,0.2935,-0.3023,0.3083,0.0019,-0.2214,0.2631,0.2941,-0.2883,0.2923,-0.1995,0.1151,-0.3351,-0.3104,-0.2778,0.3108,0.192,0.2577,-0.2185,0.0691,0.0753,-0.3535,0.428,-0.4191,-1.0,-1.0,1.0,0.1281,1.0,1.0,1.0,1.0,1.0,-0.6906,1.0,-1.0,-0.7052,-1.0,-1.0,-1.0,-1.0,1.0,0.0,0.0,0.0,0.0,0.0,0.0,0.0,0.0,0.0,0.1333,0.0,0.1333,0.0,0
1.44,run,2.84,3.65,-7.48,1.8,9.96,0.0,0.022,0.0,0.195,-1.58,-0.18,93.34,-31.64,-7.21,97.82,-6.68,-6.06,114.52,25.84,5.62,84.38,-32.26,-9.4,104.77,4.31,5.89,73.04,-4.41,-12.6,101.95,-26.0,-5.71,98.16,2.62,-9.25,122.95,15.5,-2.36,83.43,-32.0,-12.87,110.6,-4.5,10.08,82.99,-1.0,-1.0,-0.0704,1.0,-1.0,-1.0,1.0,-1.0,1.0,-1.0,0.3887,1.0,-0.3016,-1.0,-1.0,-1.0,-0.7057,1.0,0.033,0.0,0.019,0.013,0.0,0.0,0.006,0.0,0.033,0.065,0.0,0.013,0.013,0.019,0.013,0.013,0.058,0.019,-0.043,-0.3099,0.2178,-0.5722,-0.4126,0.3206,-0.1335,-0.4234,0.5998,0.474,-0.1902,0.1212,-0.5446,-0.474,0.4264,0.0813,-0.2255,-0.1043,0.286,-0.3152,0.3136,0.0704,-0.2125,0.2417,0.2979,-0.3226,0.3426,-0.2317,0.0691,-0.2691,-0.2978,-0.275,0.3153,0.1402,0.2782,-0.1299,0.1687,0.0393,0.5416,-0.2325,-0.0326,-1.0,-1.0,0.4927,1.0,1.0,1.0,1.0,-1.0,1.0,-1.0,-1.0,-1.0,-1.0,-1.0,1.0,-1.0,1.0,1.0,0.0,0.0,0.0,0.0,0.0,0.0,0.0,0.0,0.0,0.1467,0.0,0.1467,0.0,0
1.48,run,2.09,2.75,-17.35,-22.21,10.47,0.0,0.024,0.0,0.195,-0.97,-1.41,94.75,-30.15,-7.21,98.88,-5.1,-7.38,116.1,24.26,4.39,82.79,-32.96,-10.63,106.35,3.69,7.03,73.83,-5.91,-14.1,100.45,-24.5,-4.21,99.66,4.12,-10.75,124.45,14.0,-3.86,81.93,-33.5,-14.37,109.1,-6.0,8.58,84.49,-1.0,-1.0,-0.5254,1.0,1.0,1.0,1.0,-1.0,1.0,-1.0,-1.0,0.0858,-1.0,-1.0,-1.0,-1.0,-1.0,1.0,0.033,0.0,0.019,0.013,0.0,0.0,0.006,0.0,0.033,0.065,0.0,0.013,0.013,0.019,0.013,0.013,0.058,0.019,-0.0291,-0.3329,0.2424,-0.5507,-0.4188,0.3344,-0.1104,-0.4418,0.6121,0.451,-0.201,0.0951,-0.5614,-0.4893,0.4479,0.0752,-0.204,-0.0951,0.2519,-0.3068,0.3114,0.1297,-0.1717,0.2209,0.2947,-0.2948,0.2858,-0.2484,0.0081,-0.286,-0.2717,-0.25,0.3012,0.0751,0.2752,-0.0565,0.1486,0.039,-0.1306,0.0314,0.1739,-1.0,-1.0,-0.0704,1.0,-1.0,-1.0,1.0,-1.0,1.0,-1.0,0.3887,1.0,-0.3016,-1.0,-1.0,-1.0,-0.7057,1.0,0.0,0.0,0.0,0.0,0.0,0.0,0.0,0.0,0.0,0.16,0.0,0.16,0.0,0
1.52,run,1.73,2.91,-11.23,2.39,-19.34,0.0,0.026,0.0,0.195,-0.35,-2.81,96.15,-29.62,-7.21,99.58,-3.69,-8.44,117.42,22.85,3.08,82.53,-33.4,-11.87,107.67,2.46,7.82,74.88,-7.41,-15.6,98.95,-23.0,-5.71,98.16,5.62,-12.25,125.95,12.5,-2.36,83.43,-32.0,-15.87,107.6,-7.5,7.08,85.99,-1.0,-1.0,0.2936,1.0,0.1609,-0.4973,1.0,-1.0,1.0,-1.0,1.0,1.0,1.0,-1.0,-1.0,-1.0,-1.0,1.0,0.033,0.0,0.019,0.013,0.0,0.0,0.006,0.0,0.033,0.065,0.0,0.013,0.013,0.019,0.013,0.013,0.058,0.019,-0.0184,-0.3543,0.2669,-0.5246,-0.4188,0.3528,-0.0828,-0.4648,0.6397,0.4234,-0.2224,0.0675,-0.5737,-0.5108,0.4755,0.0644,-0.1841,-0.0813,0.2144,-0.2908,0.305,0.1832,-0.1202,0.2199,0.3041,-0.2878,0.2979,-0.2717,-0.0704,-0.2981,-0.2337,-0.2511,0.3086,0.0145,0.2633,0.0094,0.0837,-0.0391,-0.3028,-0.3876,0.1827,-1.0,-1.0,-0.5254,1.0,1.0,1.0,1.0,-1.0,1.0,-1.0,-1.0,0.0858,-1.0,-1.0,-1.0,-1.0,-1.0,1.0,0.0,0.0,0.0,0.0,0.0,0.0,0.0,0.0,0.0,0.1733,0.0,0.1733,0.0,0
1.56,run,2.57,2.81,23.01,-1.71,-11.44,0.0,0.028,0.0,0.195,-0.44,-4.13,97.47,-27.77,-7.21,99.58,-2.37,-9.93,118.83,21.36,1.67,81.74,-33.4,-13.1,108.9,1.14,8.44,76.11,-8.91,-17.1,97.45,-21.5,-4.21,99.66,7.12,-13.75,127.45,11.0,-3.86,81.93,-30.5,-17.37,106.1,-9.0,5.58,87.49,-1.0,-1.0,-0.9309,1.0,1.0,1.0,1.0,-1.0,1.0,-1.0,-1.0,-0.4032,0.6776,-1.0,-0.8186,-1.0,-1.0,1.0,0.0,0.0,0.019,0.013,0.052,0.006,0.026,0.013,0.026,0.033,0.0,0.013,0.013,0.033,0.006,0.019,0.078,0.052,-0.0077,-0.3789,0.2915,-0.5154,-0.4188,0.3651,-0.0583,-0.4832,0.6627,0.3988,-0.2454,0.0629,-0.5814,-0.5323,0.4985,0.043,-0.1703,-0.0629,0.19,-0.2948,0.3047,0.1624,-0.0842,0.1995,0.3041,-0.2699,0.294,-0.2814,-0.1348,-0.2257,-0.1921,-0.2556,0.3016,-0.0696,0.2356,0.075,0.052,-0.0253,-0.196,0.0416,-0.3376,-1.0,-1.0,0.2936,1.0,0.1609,-0.4973,1.0,-1.0,1.0,-1.0,1.0,1.0,1.0,-1.0,-1.0,-1.0,-1.0,1.0,0.0,0.0,0.0,0.0,0.0,0.0,0.0,0.0,0.0,0.1867,0.0,0.1867,0.0,0
1.6,run,2.33,2.44,-3.91,-7.71,-14.81,0.0,0.03,0.0,0.195,-0.97,-5.54,98.61,-26.1,-6.68,99.58,-0.97,-11.34,120.32,19.78,0.18,81.65,-32.78,-14.59,109.86,-0.35,8.7,77.43,-10.41,-18.6,95.95,-20.0,-5.71,98.16,8.62,-15.25,128.95,9.5,-2.36,83.43,-29.0,-18.87,104.6,-10.5,4.08,88.99,-1.0,-1.0,-1.0,1.0,-1.0,-0.8044,1.0,-1.0,1.0,-1.0,1.0,1.0,1.0,-0.7356,-0.7535,-1.0,-1.0,1.0,0.0,0.0,0.019,0.013,0.052,0.006,0.026,0.013,0.026,0.033,0.0,0.013,0.013,0.033,0.006,0.019,0.078,0.052,-0.0092,-0.4019,0.3145,-0.4832,-0.4188,0.3651,-0.0353,-0.5093,0.6872,0.3728,-0.27,0.0491,-0.5814,-0.5538,0.52,0.0199,-0.1595,-0.0414,0.1272,-0.2924,0.2993,0.2341,-0.0589,0.1397,0.2989,-0.2864,0.2976,-0.2944,-0.1861,-0.2096,-0.1344,-0.2592,0.2914,-0.1347,0.2051,0.1328,0.1255,-0.0344,0.4016,-0.0298,-0.1997,-1.0,-1.0,-0.9309,1.0,1.0,1.0,1.0,-1.0,1.0,-1.0,-1.0,-0.4032,0.6776,-1.0,-0.8186,-1.0,-1.0,1.0,0.0,0.0,0.0,0.0,0.0,0.0,0.0,0.0,0.0,0.2,0.0,0.2,0.0,0
1.64,run,2.44,2.11,5.97,-7.04,-7.54,0.0,0.032,0.0,0.195,-1.85,-6.86,99.32,-24.96,-6.24,99.14,0.26,-12.57,121.55,18.54,-0.97,81.83,-31.99,-15.82,110.21,-1.58,8.7,78.57,-11.91,-20.1,94.45,-18.5,-7.21,99.66,10.12,-16.75,130.45,8.0,-3.86,84.93,-27.5,-20.37,103.1,-12.0,2.58,90.49,-1.0,-0.6872,-1.0,1.0,-1.0,1.0,1.0,-1.0,1.0,-1.0,0.0374,0.2487,1.0,-1.0,-1.0,-1.0,-1.0,1.0,0.0,0.0,0.019,0.013,0.052,0.006,0.026,0.013,0.026,0.033,0.0,0.013,0.013,0.033,0.006,0.019,0.078,0.052,-0.0184,-0.4264,0.3344,-0.4541,-0.4096,0.3651,-0.0107,-0.5338,0.7133,0.3451,-0.2961,0.0476,-0.5706,-0.5798,0.5369,-0.0061,-0.1549,-0.0184,0.0573,-0.2894,0.2784,0.2646,-0.0094,0.0978,0.294,-0.2853,0.2984,-0.3015,-0.2204,-0.152,-0.057,-0.2715,0.2622,-0.1844,0.1594,0.1724,0.1043,-0.0662,-0.0682,-0.1346,-0.2586,-1.0,-1.0,-1.0,1.0,-1.0,-0.8044,1.0,-1.0,1.0,-1.0,1.0,1.0,1.0,-0.7356,-0.7535,-1.0,-1.0,1.0,0.0,0.0,0.0,0.0,0.0,0.0,0.0,0.0,0.0,0.2133,0.0,0.2133,0.0,0
1.68,run,2.41,1.93,0.06,-1.4,-17.27,0.0,0.034,0.0,0.195,-6.42,-11.6,100.11,-20.74,-5.98,99.4,5.1,-16.79,126.21,13.71,-3.96,83.76,-28.48,-19.86,108.9,-6.59,7.03,83.41,-13.41,-21.6,92.95,-17.0,-8.71,101.16,11.62,-18.25,131.95,6.5,-2.36,86.43,-26.0,-21.87,101.6,-13.5,1.08,91.99,-1.0,-0.2898,-1.0,1.0,-1.0,1.0,1.0,-1.0,1.0,-1.0,0.6929,1.0,1.0,-1.0,0.1802,-1.0,-1.0,1.0,0.013,0.019,0.019,0.033,0.0,0.006,0.039,0.013,0.058,0.045,0.006,0.058,0.006,0.006,0.006,0.026,0.0,0.091,-0.0337,-0.4495,0.3467,-0.4341,-0.4019,0.3574,0.0107,-0.5553,0.7348,0.3237,-0.316,0.0506,-0.5568,-0.6013,0.543,-0.0276,-0.1549,0.0015,-0.0235,-0.2981,0.2458,0.2679,0.0252,0.0366,0.2949,-0.2888,0.298,-0.3001,-0.237,-0.0937,0.0174,-0.2791,0.209,-0.2182,0.1116,0.2034,0.114,-0.0954,0.1042,-0.1229,-0.1316,-1.0,-0.6872,-1.0,1.0,-1.0,1.0,1.0,-1.0,1.0,-1.0,0.0374,0.2487,1.0,-1.0,-1.0,-1.0,-1.0,1.0,0.0,0.0,0.0,0.0,0.0,0.0,0.0,0.0,0.0,0.2267,0.0,0.2267,0.0,0
1.72,run,2.66,2.45,8.32,10.52,-12.75,0.0,0.036,0.0,0.195,-7.73,-13.01,98.79,-19.95,-6.68,99.4,6.5,-17.14,127.27,12.39,-4.22,84.11,-27.95,-20.3,107.75,-8.0,5.62,84.73,-14.91,-20.1,91.45,-15.5,-10.21,102.66,13.12,-19.75,133.45,5.0,-3.86,84.93,-24.5,-23.37,103.1,-15.0,-0.42,93.49,-1.0,0.6978,-1.0,1.0,-1.0,1.0,1.0,-0.9157,1.0,-1.0,-0.779,-1.0,1.0,-1.0,0.9257,-1.0,-1.0,1.0,0.013,0.019,0.019,0.033,0.0,0.006,0.039,0.013,0.058,0.045,0.006,0.058,0.006,0.006,0.006,0.026,0.0,0.091,-0.1135,-0.5323,0.3605,-0.3605,-0.3973,0.362,0.0951,-0.6289,0.8161,0.2393,-0.3682,0.0844,-0.4955,-0.6719,0.52,-0.115,-0.1841,0.0859,-0.1015,-0.2969,0.1868,0.266,0.0226,0.0305,0.2963,-0.2806,0.2952,-0.3,-0.2215,-0.0296,0.0775,-0.2706,0.1218,-0.2459,0.0471,0.2323,0.1111,-0.1111,0.0011,-0.0244,-0.3015,-1.0,-0.2898,-1.0,1.0,-1.0,1.0,1.0,-1.0,1.0,-1.0,0.6929,1.0,1.0,-1.0,0.1802,-1.0,-1.0,1.0,0.0,0.0,0.0,0.0,0.0,0.0,0.0,0.0,0.0,0.24,0.0,0.24,0.0,0
1.76,run,2.71,2.51,3.15,1.32,-16.54,0.0,0.038,0.0,0.195,-9.23,-14.41,97.56,-19.07,-7.65,99.76,7.82,-18.28,128.32,10.99,-4.22,84.55,-27.16,-20.92,106.35,-9.4,4.13,86.13,-16.41,-18.6,89.95,-14.0,-11.71,104.16,14.62,-21.25,134.95,3.5,-5.36,86.43,-23.0,-21.87,104.6,-16.5,-1.92,94.99,-1.0,1.0,-1.0,1.0,-1.0,1.0,1.0,-0.3947,1.0,-1.0,-1.0,1.0,1.0,0.0953,1.0,-1.0,-1.0,1.0,0.013,0.019,0.019,0.033,0.0,0.006,0.039,0.013,0.058,0.045,0.006,0.058,0.006,0.006,0.006,0.026,0.0,0.091,-0.1365,-0.5568,0.3375,-0.3467,-0.4096,0.362,0.1197,-0.6351,0.8345,0.2163,-0.3728,0.0905,-0.4863,-0.6796,0.5001,-0.1396,-0.2086,0.1089,-0.1569,-0.2995,0.0448,0.2377,-0.03,0.0214,0.299,-0.2193,0.2754,-0.2959,-0.1722,0.0022,0.0886,-0.218,0.0108,-0.2637,-0.0587,0.2485,0.1333,-0.0654,0.1452,0.1835,-0.2225,-1.0,0.6978,-1.0,1.0,-1.0,1.0,1.0,-0.9157,1.0,-1.0,-0.779,-1.0,1.0,-1.0,0.9257,-1.0,-1.0,1.0,0.0,0.0,0.0,0.0,0.0,0.0,0.0,0.0,0.0,0.2533,0.0,0.2533,0.0,0
1.8,run,2.64,3.02,0.66,14.18,-16.46,0.0,0.04,0.0,0.195,-10.72,-15.82,96.15,-18.02,-8.96,100.55,9.14,-19.34,129.73,9.67,-4.31,84.9,-25.93,-21.88,105.03,-10.72,2.64,87.54,-17.91,-17.1,88.45,-12.5,-13.21,105.66,16.12,-19.75,136.45,2.0,-6.86,84.93,-21.5,-20.37,106.1,-18.0,-3.42,96.49,-1.0,1.0,-1.0,1.0,-1.0,1.0,1.0,1.0,1.0,-1.0,-1.0,-0.3883,1.0,1.0,1.0,-1.0,-1.0,1.0,0.006,0.006,0.013,0.052,0.0,0.045,0.052,0.0,0.084,0.143,0.0,0.058,0.019,0.0,0.0,0.039,0.0,0.084,-0.1626,-0.5814,0.316,-0.3313,-0.4264,0.3682,0.1427,-0.655,0.8529,0.1917,-0.3728,0.0982,-0.4725,-0.6903,0.4755,-0.1641,-0.2347,0.1335,-0.2078,-0.3018,-0.0493,0.224,-0.0844,0.038,0.2958,-0.2284,0.2619,-0.2993,-0.1205,0.0303,0.1139,-0.193,-0.0846,-0.2768,-0.139,0.2662,0.1371,-0.0599,0.0549,0.0231,-0.2887,-1.0,1.0,-1.0,1.0,-1.0,1.0,1.0,-0.3947,1.0,-1.0,-1.0,1.0,1.0,0.0953,1.0,-1.0,-1.0,1.0,0.0,0.0,0.0,0.0,0.0,0.0,0.0,0.0,0.0,0.2667,0.0,0.2667,0.0,0
1.84,run,2.6,3.23,0.5,5.97,-17.07,0.0,0.042,0.0,0.195,-12.22,-17.05,94.75,-16.61,-10.37,101.6,10.55,-20.65,131.22,8.17,-4.75,85.25,-24.43,-22.59,104.06,-12.3,1.14,88.95,-19.41,-15.6,86.95,-11.0,-14.71,107.16,17.62,-18.25,137.95,0.5,-8.36,83.43,-20.0,-18.87,107.6,-19.5,-4.92,97.99,-1.0,1.0,-1.0,1.0,-1.0,1.0,1.0,1.0,1.0,-1.0,-1.0,-0.6032,1.0,1.0,1.0,-1.0,-0.8657,1.0,0.006,0.006,0.013,0.052,0.0,0.045,0.052,0.0,0.084,0.143,0.0,0.058,0.019,0.0,0.0,0.039,0.0,0.084,-0.1887,-0.6059,0.2915,-0.3129,-0.4495,0.382,0.1657,-0.6734,0.8774,0.1687,-0.3743,0.1043,-0.451,-0.7072,0.4525,-0.1871,-0.2608,0.158,-0.2428,-0.3029,-0.1261,0.2255,-0.145,0.0781,0.2929,-0.2286,0.275,-0.2954,-0.0901,0.0441,0.1599,-0.1981,-0.1451,-0.2797,-0.1947,0.2779,0.1315,-0.0156,0.0116,0.2475,-0.2872,-1.0,1.0,-1.0,1.0,-1.0,1.0,1.0,1.0,1.0,-1.0,-1.0,-0.3883,1.0,1.0,1.0,-1.0,-1.0,1.0,0.0,0.0,0.0,0.0,0.0,0.0,0.0,0.0,0.0,0.28,0.0,0.28,0.0,0
1.88,run,2.28,3.62,-6.45,10.58,-8.01,0.0,0.044,0.0,0.195,-13.45,-17.93,93.34,-15.47,-11.6,102.83,11.95,-21.27,132.45,6.77,-5.62,85.34,-23.29,-23.03,103.36,-13.71,-0.35,90.35,-20.91,-14.1,85.45,-9.5,-16.21,108.66,19.12,-16.75,139.45,-1.0,-9.86,81.93,-18.5,-17.37,109.1,-21.0,-6.42,99.49,-1.0,1.0,-1.0,1.0,-1.0,1.0,1.0,1.0,1.0,-1.0,-1.0,-0.4756,1.0,1.0,1.0,-1.0,-0.8107,1.0,0.006,0.006,0.013,0.052,0.0,0.045,0.052,0.0,0.084,0.143,0.0,0.058,0.019,0.0,0.0,0.039,0.0,0.084,-0.2148,-0.6274,0.2669,-0.2884,-0.474,0.4004,0.1902,-0.6964,0.9035,0.1427,-0.382,0.1104,-0.4249,-0.7194,0.4357,-0.2148,-0.2869,0.1825,-0.2617,-0.2876,-0.1746,0.2442,-0.1878,0.1194,0.2914,-0.241,0.2842,-0.2985,-0.09,0.0525,0.2036,-0.1818,-0.1609,-0.2929,-0.228,0.2809,0.1281,0.0028,0.0087,0.1041,-0.298,-1.0,1.0,-1.0,1.0,-1.0,1.0,1.0,1.0,1.0,-1.0,-1.0,-0.6032,1.0,1.0,1.0,-1.0,-0.8657,1.0,0.0,0.0,0.0,0.0,0.0,0.0,0.0,0.0,0.0,0.2933,0.0,0.2933,0.0,0
1.92,run,2.35,4.16,2.79,13.42,1.87,0.0,0.046,0.0,0.195,-14.94,-18.63,91.85,-14.06,-13.1,104.33,13.45,-21.8,133.77,5.1,-6.68,85.25,-21.97,-22.59,103.18,-15.12,-1.67,91.58,-22.41,-12.6,83.95,-8.0,-17.71,110.16,20.62,-15.25,140.95,-2.5,-11.36,80.43,-17.0,-15.87,110.6,-22.5,-7.92,100.99,-1.0,1.0,-1.0,1.0,-1.0,1.0,1.0,1.0,1.0,-1.0,-1.0,-0.8487,1.0,0.3862,1.0,-1.0,-0.6963,1.0,0.006,0.006,0.006,0.052,0.0,0.039,0.052,0.045,0.111,0.039,0.0,0.0,0.019,0.013,0.0,0.039,0.0,0.149,-0.2362,-0.6427,0.2424,-0.2684,-0.4955,0.4218,0.2148,-0.7072,0.925,0.1181,-0.3973,0.112,-0.405,-0.7271,0.4234,-0.2393,-0.3129,0.2071,-0.2627,-0.2581,-0.2132,0.2448,-0.211,0.1632,0.2949,-0.2085,0.2785,-0.2999,-0.1199,0.0424,0.2164,-0.1557,-0.1581,-0.2959,-0.2562,0.2875,0.1001,0.0371,-0.1126,0.1847,-0.1398,-1.0,1.0,-1.0,1.0,-1.0,1.0,1.0,1.0,1.0,-1.0,-1.0,-0.4756,1.0,1.0,1.0,-1.0,-0.8107,1.0,0.0,0.0,0.0,0.0,0.0,0.0,0.0,0.0,0.0,0.3067,0.0,0.3067,0.0,0
1.96,run,2.15,4.82,-4.59,17.53,4.29,0.0,0.048,0.0,0.195,-16.35,-18.72,90.0,-12.66,-14.5,105.73,14.94,-21.97,134.91,3.6,-7.82,84.46,-20.65,-21.97,103.1,-16.44,-3.16,92.9,-23.91,-11.1,82.45,-6.5,-19.21,111.66,22.12,-13.75,139.45,-4.0,-12.86,78.93,-15.5,-14.37,112.1,-24.0,-9.42,102.49,-1.0,1.0,-1.0,1.0,-1.0,1.0,1.0,1.0,0.8139,-1.0,-1.0,-0.065,1.0,0.6552,1.0,-1.0,-0.0038,1.0,0.006,0.006,0.006,0.052,0.0,0.039,0.052,0.045,0.111,0.039,0.0,0.0,0.019,0.013,0.0,0.039,0.0,0.149,-0.2623,-0.655,0.2163,-0.2439,-0.5216,0.4479,0.2408,-0.7164,0.948,0.089,-0.4157,0.1104,-0.382,-0.7194,0.4203,-0.2638,-0.3359,0.2286,-0.2821,-0.2269,-0.2473,0.2637,-0.2459,0.2124,0.3046,-0.1806,0.2815,-0.3196,-0.1532,0.0239,0.2381,-0.0801,-0.1222,-0.2995,-0.2659,0.2821,0.1062,0.084,0.0486,0.2343,0.0327,-1.0,1.0,-1.0,1.0,-1.0,1.0,1.0,1.0,1.0,-1.0,-1.0,-0.8487,1.0,0.3862,1.0,-1.0,-0.6963,1.0,0.0,0.0,0.0,0.0,0.0,0.0,0.0,0.0,0.0,0.32,0.0,0.32,0.0,0
2.0,run,2.04,5.16,-2.05,9.12,-1.21,0.0,0.05,0.0,0.195,-17.75,-18.81,88.86,-11.34,-15.91,107.14,16.44,-21.97,135.53,1.93,-9.05,83.5,-19.34,-21.36,103.45,-17.67,-4.66,94.13,-25.41,-9.6,80.95,-5.0,-20.71,113.16,23.62,-12.25,137.95,-5.5,-14.36,77.43,-14.0,-15.87,113.6,-25.5,-10.92,103.99,-1.0,1.0,-1.0,1.0,-1.0,1.0,1.0,1.0,0.1277,-1.0,-1.0,-0.6595,1.0,-0.9306,1.0,-1.0,0.18,1.0,0.006,0.006,0.006,0.052,0.0,0.039,0.052,0.045,0.111,0.039,0.0,0.0,0.019,0.013,0.0,0.039,0.0,0.149,-0.2869,-0.6565,0.1841,-0.2194,-0.5461,0.4725,0.2669,-0.7194,0.9679,0.0629,-0.4357,0.0966,-0.359,-0.7087,0.4188,-0.2869,-0.362,0.2516,-0.2891,-0.1645,-0.2935,0.2763,-0.2638,0.2403,0.3106,-0.1378,0.2716,-0.3211,-0.1817,-0.0348,0.2526,-0.016,-0.0913,-0.2956,-0.2836,0.2834,0.0883,0.1416,-0.0801,0.306,0.0748,-1.0,1.0,-1.0,1.0,-1.0,1.0,1.0,1.0,0.8139,-1.0,-1.0,-0.065,1.0,0.6552,1.0,-1.0,-0.0038,1.0,0.0,0.0,0.0,0.0,0.0,0.0,0.0,0.0,0.0,0.3333,0.0,0.3333,0.0,0
2.04,run,2.25,5.67,5.5,13.15,-5.35,0.0,0.05,0.0,0.409,-19.16,-18.02,87.45,-9.76,-17.31,108.37,17.93,-21.97,135.97,0.44,-10.2,82.09,-18.02,-20.3,104.15,-18.98,-5.98,95.36,-26.91,-8.1,79.45,-3.5,-22.21,114.66,25.12,-10.75,136.45,-7.0,-15.86,78.93,-12.5,-17.37,112.1,-27.0,-12.42,105.49,-1.0,1.0,-1.0,1.0,-1.0,1.0,1.0,1.0,-1.0,-1.0,-1.0,0.1716,1.0,-0.6399,-0.1357,-1.0,0.2243,1.0,0.013,0.026,0.013,0.039,0.0,0.104,0.039,0.384,0.409,0.013,0.006,0.0,0.033,0.078,0.071,0.084,0.0,0.227,-0.3114,-0.6581,0.1641,-0.1963,-0.5706,0.497,0.293,-0.7194,0.9787,0.0337,-0.4571,0.0798,-0.3359,-0.698,0.4249,-0.3083,-0.3881,0.273,-0.2944,-0.1209,-0.2802,0.2797,-0.2767,0.2603,0.3152,-0.0965,0.2304,-0.3341,-0.2078,-0.0877,0.2631,0.0291,-0.0409,-0.2875,-0.2963,0.2789,0.0788,0.1711,-0.0358,0.1592,-0.0211,-1.0,1.0,-1.0,1.0,-1.0,1.0,1.0,1.0,0.1277,-1.0,-1.0,-0.6595,1.0,-0.9306,1.0,-1.0,0.18,1.0,0.0,0.0,0.0,0.0,0.0,0.0,0.0,0.0,0.0,0.3333,0.0,0.3333,0.0,0
2.08,run,2.63,5.99,7.57,5.51,1.58,0.0,0.05,0.0,0.409,-20.83,-16.88,85.78,-8.09,-18.98,110.21,19.6,-21.36,136.23,-1.41,-11.25,80.77,-16.35,-19.07,105.38,-20.65,-7.82,97.03,-28.41,-6.6,77.95,-2.0,-23.71,116.16,26.62,-9.25,134.95,-8.5,-17.36,80.43,-11.0,-15.87,110.6,-28.5,-10.92,106.99,-1.0,1.0,-0.9,0.0017,-1.0,1.0,1.0,1.0,-1.0,-1.0,-1.0,1.0,1.0,1.0,-1.0,-1.0,1.0,1.0,0.013,0.026,0.013,0.039,0.0,0.104,0.039,0.384,0.409,0.013,0.006,0.0,0.033,0.078,0.071,0.084,0.0,0.227,-0.3359,-0.6443,0.1396,-0.1687,-0.5952,0.5185,0.3191,-0.7194,0.9863,0.0077,-0.4771,0.0552,-0.3129,-0.6796,0.4372,-0.3313,-0.4111,0.2945,-0.2981,-0.0329,-0.2881,0.2993,-0.2857,0.2627,0.3184,-0.0675,0.19,-0.3316,-0.2202,-0.1533,0.2704,0.0894,0.0174,-0.2875,-0.2936,0.2757,0.0973,0.2153,0.0959,0.2295,-0.0934,-1.0,1.0,-1.0,1.0,-1.0,1.0,1.0,1.0,-1.0,-1.0,-1.0,0.1716,1.0,-0.6399,-0.1357,-1.0,0.2243,1.0,0.0,0.0,0.0,0.0,0.0,0.0,0.0,0.0,0.0,0.3333,0.0,0.3333,0.0,0
2.12,run,3.16,6.37,17.23,11.13,5.67,0.0,0.05,0.0,0.409,-21.97,-15.91,84.64,-7.03,-19.95,111.18,20.65,-20.48,136.41,-2.55,-12.66,79.8,-15.29,-18.54,106.35,-21.8,-8.79,98.26,-26.91,-5.1,79.45,-3.5,-25.21,117.66,28.12,-7.75,133.45,-7.0,-18.86,81.93,-9.5,-14.37,109.1,-30.0,-9.42,108.49,-0.4005,1.0,0.9118,-1.0,-1.0,1.0,1.0,0.7606,-1.0,-0.1803,-1.0,1.0,1.0,1.0,-1.0,-1.0,0.9005,1.0,0.013,0.026,0.013,0.039,0.0,0.104,0.039,0.384,0.409,0.013,0.006,0.0,0.033,0.078,0.071,0.084,0.0,0.227,-0.3651,-0.6243,0.1104,-0.1396,-0.6243,0.5507,0.3482,-0.7087,0.991,-0.0245,-0.4955,0.0322,-0.2838,-0.6581,0.4587,-0.3605,-0.4433,0.3237,-0.297,0.0374,-0.2901,0.2979,-0.2883,0.2816,0.3113,-0.0147,0.147,-0.3298,-0.2099,-0.1771,0.2777,0.1277,0.0773,-0.2896,-0.3032,0.2814,0.1306,0.2432,0.1322,0.0961,0.0275,-1.0,1.0,-0.9,0.0017,-1.0,1.0,1.0,1.0,-1.0,-1.0,-1.0,1.0,1.0,1.0,-1.0,-1.0,1.0,1.0,0.0,0.0,0.0,0.0,0.0,0.0,0.0,0.0,0.0,0.3333,0.0,0.3333,0.0,0
2.16,run,3.25,6.58,3.6,3.62,3.22,0.0,0.05,0.0,0.643,-23.38,-14.68,83.14,-5.71,-21.45,112.59,22.15,-19.34,136.49,-3.96,-14.06,79.45,-13.89,-17.93,107.67,-23.38,-9.84,99.84,-25.41,-3.6,80.95,-5.0,-26.71,119.16,29.62,-9.25,131.95,-5.5,-20.36,83.43,-8.0,-12.87,107.6,-31.5,-7.92,106.99,1.0,1.0,1.0,-1.0,-1.0,1.0,1.0,-1.0,-1.0,0.9647,-1.0,1.0,1.0,1.0,-1.0,-1.0,0.4384,0.3475,0.013,0.039,0.0,0.033,0.0,0.111,0.026,0.643,0.357,0.006,0.026,0.013,0.033,0.286,0.065,0.058,0.0,0.156,-0.385,-0.6075,0.0905,-0.1212,-0.6412,0.5676,0.3666,-0.6934,0.994,-0.0445,-0.52,0.0153,-0.2654,-0.6489,0.4755,-0.3804,-0.4602,0.3451,-0.3083,0.1111,-0.3034,0.3012,-0.2868,0.282,0.3105,0.0669,0.1183,-0.3312,-0.2705,-0.2089,0.287,0.1357,0.139,-0.3031,-0.2972,0.3051,0.177,0.2764,0.3007,0.1942,0.0989,-0.4005,1.0,0.9118,-1.0,-1.0,1.0,1.0,0.7606,-1.0,-0.1803,-1.0,1.0,1.0,1.0,-1.0,-1.0,0.9005,1.0,0.0,0.0,0.0,0.0,0.0,0.0,0.0,0.0,0.0,0.3333,0.0,0.3333,0.0,0
2.2,run,3.59,6.92,8.76,5.44,6.53,0.0,0.05,0.0,0.643,-24.61,-13.36,81.91,-4.57,-22.85,113.99,23.64,-18.37,136.49,-5.1,-15.38,78.93,-12.39,-17.14,108.54,-24.87,-10.72,101.34,-23.91,-2.1,82.45,-6.5,-28.21,117.66,31.12,-10.75,130.45,-4.0,-21.86,84.93,-6.5,-11.37,106.1,-33.0,-9.42,105.49,1.0,1.0,1.0,-1.0,-1.0,0.0174,1.0,-1.0,-1.0,1.0,-1.0,1.0,0.6781,1.0,-1.0,-1.0,-0.7982,-1.0,0.013,0.039,0.0,0.033,0.0,0.111,0.026,0.643,0.357,0.006,0.026,0.013,0.033,0.286,0.065,0.058,0.0,0.156,-0.4096,-0.586,0.0644,-0.0982,-0.6673,0.5921,0.3927,-0.6734,0.9956,-0.069,-0.5446,0.0092,-0.2408,-0.6381,0.4985,-0.408,-0.4786,0.3728,-0.3061,0.1568,-0.3083,0.2955,-0.2967,0.2877,0.3133,0.1202,0.0885,-0.3222,-0.2796,-0.1688,0.2912,0.1345,0.182,-0.3138,-0.2758,0.3151,0.1847,0.2947,0.0629,0.0632,0.0561,1.0,1.0,1.0,-1.0,-1.0,1.0,1.0,-1.0,-1.0,0.9647,-1.0,1.0,1.0,1.0,-1.0,-1.0,0.4384,0.3475,0.0,0.0,0.0,0.0,0.0,0.0,0.0,0.0,0.0,0.3333,0.0,0.3333,0.0,0
2.24,run,4.2,7.52,16.63,14.28,6.23,0.0,0.05,0.0,0.643,-25.58,-12.13,80.77,-3.69,-24.17,115.4,24.96,-17.14,136.49,-6.15,-16.88,78.84,-10.99,-15.91,109.07,-26.37,-11.16,102.57,-22.41,-0.6,83.95,-8.0,-29.71,116.16,32.62,-12.25,128.95,-2.5,-23.36,86.43,-6.85,-9.87,104.6,-34.5,-10.92,103.99,1.0,1.0,1.0,-1.0,-1.0,-1.0,1.0,-1.0,-1.0,1.0,-1.0,1.0,-0.1959,1.0,-1.0,-1.0,-0.8644,-1.0,0.013,0.039,0.0,0.033,0.0,0.111,0.026,0.643,0.357,0.006,0.026,0.013,0.033,0.286,0.065,0.058,0.0,0.156,-0.431,-0.563,0.043,-0.0782,-0.6918,0.6167,0.4188,-0.6565,0.9956,-0.089,-0.5676,0.0,-0.2148,-0.6243,0.5139,-0.4341,-0.4939,0.3988,-0.2954,0.1967,-0.297,0.2822,-0.3004,0.2941,0.3178,0.1479,0.0619,-0.3008,-0.2827,-0.1529,0.3024,0.1463,0.1853,-0.3181,-0.251,0.3191,0.2142,0.3248,0.1528,0.0949,0.114,1.0,1.0,1.0,-1.0,-1.0,0.0174,1.0,-1.0,-1.0,1.0,-1.0,1.0,0.6781,1.0,-1.0,-1.0,-0.7982,-1.0,0.0,0.0,0.0,0.0,0.0,0.0,0.0,0.0,0.0,0.3333,0.0,0.3333,0.0,0
2.28,run,4.59,7.8,10.88,5.61,6.88,0.0,0.05,0.0,0.643,-26.19,-10.9,80.07,-3.16,-25.66,116.54,26.28,-16.0,136.49,-6.68,-18.28,79.19,-9.49,-14.59,109.34,-27.77,-11.43,103.71,-20.91,0.9,85.45,-9.5,-31.21,114.66,34.12,-13.75,127.45,-1.0,-24.86,87.93,-8.35,-8.37,103.1,-33.0,-12.42,102.49,1.0,1.0,1.0,-1.0,-1.0,-1.0,1.0,-1.0,-1.0,1.0,-1.0,1.0,-1.0,1.0,-1.0,-0.4219,-0.6523,-1.0,0.013,0.065,0.0,0.013,0.0,0.045,0.045,0.624,0.026,0.0,0.026,0.006,0.013,0.279,0.039,0.039,0.013,0.091,-0.4479,-0.5415,0.023,-0.0629,-0.7148,0.6412,0.4418,-0.6351,0.9956,-0.1074,-0.5937,-0.0015,-0.1902,-0.6029,0.5231,-0.4602,-0.5016,0.4203,-0.2697,0.2177,-0.2822,0.2547,-0.2961,0.2974,0.3083,0.1836,0.0433,-0.2792,-0.2951,-0.1128,0.3032,0.1825,0.164,-0.3199,-0.2043,0.3034,0.2674,0.3769,0.2902,0.2492,0.1088,1.0,1.0,1.0,-1.0,-1.0,-1.0,1.0,-1.0,-1.0,1.0,-1.0,1.0,-0.1959,1.0,-1.0,-1.0,-0.8644,-1.0,0.0,0.0,0.0,0.0,0.0,0.0,0.0,0.0,0.0,0.3333,0.0,0.3333,0.0,0
2.32,run,5.2,7.96,16.27,3.41,5.44,0.0,0.05,0.0,0.643,-26.63,-9.49,79.54,-2.9,-26.98,117.42,27.69,-14.94,136.23,-6.94,-19.69,80.16,-8.44,-13.1,109.42,-29.44,-11.69,104.59,-19.41,2.4,86.95,-11.0,-32.71,113.16,32.62,-15.25,125.95,0.5,-26.36,89.43,-9.85,-6.87,101.6,-31.5,-13.92,100.99,1.0,0.9049,1.0,-1.0,-1.0,-1.0,0.6143,-1.0,-1.0,1.0,-1.0,1.0,-1.0,1.0,-1.0,1.0,-0.934,-1.0,0.013,0.065,0.0,0.013,0.0,0.045,0.045,0.624,0.026,0.0,0.026,0.006,0.013,0.279,0.039,0.039,0.013,0.091,-0.4587,-0.52,0.0107,-0.0537,-0.7409,0.6611,0.4648,-0.6151,0.9956,-0.1166,-0.6182,0.0046,-0.1641,-0.5798,0.5277,-0.4847,-0.5062,0.4403,-0.2291,0.2331,-0.2437,0.2129,-0.3052,0.2831,0.3022,0.2034,0.0303,-0.23,-0.2988,-0.0559,0.3102,0.2142,0.1321,-0.3162,-0.1603,0.2873,0.3018,0.4011,0.1899,0.0979,0.1201,1.0,1.0,1.0,-1.0,-1.0,-1.0,1.0,-1.0,-1.0,1.0,-1.0,1.0,-1.0,1.0,-1.0,-0.4219,-0.6523,-1.0,0.0,0.0,0.0,0.0,0.0,0.0,0.0,0.0,0.0,0.3333,0.0,0.3333,0.0,0
2.36,run,5.58,8.27,10.84,8.76,14.72,0.0,0.05,0.0,0.643,-26.54,-8.17,79.45,-2.9,-28.3,118.04,29.0,-14.06,135.35,-6.77,-21.18,81.21,-7.65,-11.69,109.16,-30.67,-12.3,105.29,-17.91,0.9,88.45,-12.5,-34.21,111.66,31.12,-16.75,124.45,2.0,-27.86,90.93,-11.35,-5.37,100.1,-30.0,-15.42,99.49,1.0,-0.1112,1.0,-1.0,-1.0,-1.0,0.3131,-1.0,-1.0,1.0,-1.0,1.0,-1.0,1.0,-1.0,1.0,-1.0,-1.0,0.013,0.065,0.0,0.013,0.0,0.045,0.045,0.624,0.026,0.0,0.026,0.006,0.013,0.279,0.039,0.039,0.013,0.091,-0.4663,-0.4955,0.0015,-0.0491,-0.7639,0.6765,0.4893,-0.5967,0.991,-0.1212,-0.6427,0.0215,-0.1457,-0.5538,0.5292,-0.5139,-0.5108,0.4556,-0.1894,0.2559,-0.2053,0.1664,-0.3006,0.2561,0.3043,0.212,0.0039,-0.1784,-0.3019,0.0246,0.2867,0.2485,0.0983,-0.3314,-0.1296,0.2591,0.3544,0.4151,0.2839,0.0595,0.0949,1.0,0.9049,1.0,-1.0,-1.0,-1.0,0.6143,-1.0,-1.0,1.0,-1.0,1.0,-1.0,1.0,-1.0,1.0,-0.934,-1.0,0.0,0.0,0.0,0.0,0.0,0.0,0.0,0.0,0.0,0.3333,0.0,0.3333,0.0,0
2.4,run,5.61,8.34,0.67,3.88,10.89,0.0,0.05,0.0,0.643,-26.28,-6.94,79.45,-3.25,-29.62,118.3,30.23,-13.45,134.47,-6.33,-22.59,82.53,-7.03,-10.46,108.19,-31.64,-12.83,105.47,-16.41,-0.6,89.95,-14.0,-35.71,110.16,29.62,-18.25,122.95,3.5,-29.36,92.43,-12.85,-3.87,98.6,-28.5,-16.92,97.99,1.0,-0.0402,1.0,-1.0,-1.0,-1.0,-0.1462,-1.0,-1.0,1.0,-1.0,1.0,-1.0,1.0,-1.0,1.0,-1.0,-1.0,0.006,0.104,0.058,0.006,0.0,0.0,0.019,0.286,0.0,0.013,0.019,0.013,0.0,0.292,0.0,0.013,0.0,0.019,-0.4648,-0.4725,0.0,-0.0491,-0.7869,0.6872,0.5123,-0.5814,0.9756,-0.1181,-0.6688,0.0399,-0.1319,-0.5292,0.5246,-0.5354,-0.5216,0.4679,-0.1269,0.2646,-0.1494,0.1165,-0.2959,0.2192,0.2985,0.2054,-0.0543,-0.1135,-0.3082,0.0856,0.252,0.2651,0.0517,-0.3118,-0.1306,0.227,0.388,0.4429,0.1892,0.1529,0.2569,1.0,-0.1112,1.0,-1.0,-1.0,-1.0,0.3131,-1.0,-1.0,1.0,-1.0,1.0,-1.0,1.0,-1.0,1.0,-1.0,-1.0,0.0,0.0,0.0,0.0,0.0,0.0,0.0,0.0,0.0,0.3333,0.0,0.3333,0.0,0
2.44,run,6.12,8.5,11.19,6.1,1.06,0.0,0.05,0.0,0.643,-25.49,-5.71,79.8,-4.13,-31.11,117.95,31.2,-13.45,133.33,-5.19,-23.99,83.94,-6.94,-9.05,107.14,-32.52,-13.89,105.56,-14.91,-2.1,91.45,-15.5,-37.21,108.66,28.12,-19.75,121.45,5.0,-30.86,93.93,-14.35,-2.37,97.1,-27.0,-18.42,96.49,1.0,-0.602,1.0,-1.0,-1.0,-1.0,-0.9835,-1.0,-1.0,1.0,-1.0,1.0,-1.0,1.0,-1.0,1.0,-1.0,-1.0,0.006,0.104,0.058,0.006,0.0,0.0,0.019,0.286,0.0,0.013,0.019,0.013,0.0,0.292,0.0,0.013,0.0,0.019,-0.4602,-0.451,0.0,-0.0552,-0.8099,0.6918,0.5338,-0.5706,0.9603,-0.1104,-0.6934,0.0629,-0.1212,-0.5077,0.5077,-0.5522,-0.5308,0.4709,-0.0715,0.266,-0.1046,0.0585,-0.2937,0.1707,0.2897,0.1841,-0.0957,-0.0506,-0.3081,0.1465,0.2168,0.2664,-0.0273,-0.2817,-0.126,0.1704,0.3904,0.4487,0.0117,0.0678,0.19,1.0,-0.0402,1.0,-1.0,-1.0,-1.0,-0.1462,-1.0,-1.0,1.0,-1.0,1.0,-1.0,1.0,-1.0,1.0,-1.0,-1.0,0.0,0.0,0.0,0.0,0.0,0.0,0.0,0.0,0.0,0.3333,0.0,0.3333,0.0,0
2.48,run,6.49,8.6,9.47,4.52,-3.88,0.0,0.05,0.0,0.643,-24.61,-4.75,80.77,-5.01,-32.43,117.6,31.73,-13.36,132.19,-4.13,-25.49,85.34,-7.56,-7.73,105.64,-32.87,-15.03,105.29,-13.41,-3.6,92.95,-17.0,-38.71,107.16,26.62,-21.25,119.95,6.5,-32.36,95.43,-15.85,-0.87,95.6,-25.5,-19.92,94.99,1.0,-1.0,1.0,-1.0,-1.0,-0.2992,-1.0,-1.0,-1.0,1.0,-1.0,1.0,-1.0,1.0,-1.0,1.0,-1.0,-1.0,0.006,0.104,0.058,0.006,0.0,0.0,0.019,0.286,0.0,0.013,0.019,0.013,0.0,0.292,0.0,0.013,0.0,0.019,-0.4464,-0.4295,0.0061,-0.0706,-0.836,0.6857,0.5507,-0.5706,0.9403,-0.0905,-0.7179,0.0874,-0.1197,-0.4832,0.4893,-0.5676,-0.5492,0.4725,0.0017,0.2667,-0.0502,-0.0165,-0.3033,0.0965,0.266,0.1289,-0.1417,0.0393,-0.3076,0.1945,0.1575,0.2784,-0.0881,-0.2547,-0.1572,0.125,0.4353,0.4629,0.1953,0.1065,0.0186,1.0,-0.602,1.0,-1.0,-1.0,-1.0,-0.9835,-1.0,-1.0,1.0,-1.0,1.0,-1.0,1.0,-1.0,1.0,-1.0,-1.0,0.0,0.0,0.0,0.0,0.0,0.0,0.0,0.0,0.0,0.3333,0.0,0.3333,0.0,0
2.52,run,6.88,8.58,10.49,-0.4,1.89,0.0,0.05,0.0,0.643,-23.12,-3.96,82.0,-6.06,-33.84,116.54,31.9,-13.45,131.22,-2.64,-26.89,86.84,-8.26,-6.33,104.33,-32.87,-16.26,104.41,-11.91,-5.1,94.45,-18.5,-40.21,105.66,25.12,-22.75,118.45,8.0,-33.86,96.93,-17.35,0.63,94.1,-24.0,-21.42,93.49,1.0,-1.0,0.9578,-1.0,-1.0,-0.2718,-1.0,-1.0,-1.0,1.0,-1.0,1.0,-1.0,1.0,-1.0,1.0,-1.0,-1.0,0.006,0.156,0.084,0.013,0.0,0.006,0.006,0.0,0.019,0.006,0.019,0.006,0.019,0.299,0.0,0.019,0.006,0.006,-0.431,-0.4126,0.023,-0.0859,-0.859,0.6796,0.5599,-0.5691,0.9204,-0.0721,-0.744,0.112,-0.1304,-0.4602,0.4633,-0.5737,-0.5691,0.4679,0.0585,0.2497,0.0279,-0.0689,-0.2983,0.0446,0.2206,0.096,-0.1737,0.0963,-0.3127,0.2278,0.0701,0.2808,-0.1591,-0.2012,-0.1845,0.0703,0.4677,0.4716,0.1654,0.0789,-0.0678,1.0,-1.0,1.0,-1.0,-1.0,-0.2992,-1.0,-1.0,-1.0,1.0,-1.0,1.0,-1.0,1.0,-1.0,1.0,-1.0,-1.0,0.0,0.0,0.0,0.0,0.0,0.0,0.0,0.0,0.0,0.3333,0.0,0.3333,0.0,0
2.56,run,7.41,8.52,16.46,-1.95,12.34,0.0,0.05,0.0,0.643,-21.8,-3.6,83.23,-7.73,-35.16,115.05,31.99,-14.77,129.81,-1.14,-28.3,88.24,-9.23,-4.83,102.92,-32.26,-17.31,103.27,-10.41,-6.6,95.95,-20.0,-41.71,104.16,23.62,-24.25,116.95,9.5,-35.36,98.43,-18.85,2.13,92.6,-22.5,-22.92,91.99,1.0,-1.0,0.957,-1.0,-0.8517,-0.568,-1.0,-1.0,-1.0,1.0,-1.0,1.0,-1.0,1.0,-1.0,1.0,-0.6375,-1.0,0.006,0.156,0.084,0.013,0.0,0.006,0.006,0.0,0.019,0.006,0.019,0.006,0.019,0.299,0.0,0.019,0.006,0.006,-0.405,-0.3988,0.0445,-0.1043,-0.8836,0.6611,0.563,-0.5706,0.9035,-0.046,-0.7685,0.1381,-0.1427,-0.4357,0.4403,-0.5737,-0.5906,0.4525,0.1352,0.2247,0.0972,-0.1148,-0.2975,-0.0353,0.1655,0.0616,-0.1826,0.1617,-0.3077,0.2538,0.0047,0.2853,-0.1946,-0.1408,-0.2068,-0.0062,0.5017,0.4697,0.1831,-0.007,0.033,1.0,-1.0,0.9578,-1.0,-1.0,-0.2718,-1.0,-1.0,-1.0,1.0,-1.0,1.0,-1.0,1.0,-1.0,1.0,-1.0,-1.0,0.0,0.0,0.0,0.0,0.0,0.0,0.0,0.0,0.0,0.3333,0.0,0.3333,0.0,0
2.6,run,7.71,8.25,9.64,-6.39,9.98,0.0,0.05,0.0,0.643,-20.48,-3.34,84.64,-9.05,-36.47,113.64,31.73,-16.17,128.76,0.0,-29.71,89.65,-10.37,-3.34,101.51,-31.29,-18.11,101.95,-8.91,-8.1,97.45,-21.5,-43.21,102.66,22.12,-25.75,115.45,11.0,-36.86,99.93,-20.35,3.63,91.1,-21.0,-24.42,90.49,1.0,-1.0,0.9831,-1.0,-0.6163,-0.5795,-1.0,-1.0,-1.0,1.0,-1.0,1.0,-1.0,1.0,-1.0,1.0,-0.17,-1.0,0.006,0.156,0.084,0.013,0.0,0.006,0.006,0.0,0.019,0.006,0.019,0.006,0.019,0.299,0.0,0.019,0.006,0.006,-0.382,-0.3927,0.066,-0.1335,-0.9066,0.6351,0.5645,-0.5937,0.879,-0.0199,-0.7931,0.1626,-0.1595,-0.4096,0.4157,-0.563,-0.609,0.4326,0.1843,0.1812,0.1517,-0.1939,-0.2979,-0.1263,0.1218,-0.0465,-0.2235,0.2148,-0.311,0.2733,-0.0625,0.3014,-0.2318,-0.0567,-0.2165,-0.0821,0.5473,0.4641,0.2873,-0.034,0.2153,1.0,-1.0,0.957,-1.0,-0.8517,-0.568,-1.0,-1.0,-1.0,1.0,-1.0,1.0,-1.0,1.0,-1.0,1.0,-0.6375,-1.0,0.0,0.0,0.0,0.0,0.0,0.0,0.0,0.0,0.0,0.3333,0.0,0.3333,0.0,0
2.64,run,8.17,7.97,10.54,-4.55,-0.02,0.0,0.05,0.0,0.643,-19.25,-3.34,85.96,-10.55,-37.62,112.32,31.55,-17.4,127.62,1.67,-31.11,91.05,-11.69,-2.11,100.02,-30.15,-19.78,101.07,-7.41,-9.6,98.95,-23.0,-41.71,101.16,20.62,-27.25,113.95,12.5,-38.36,101.43,-21.85,5.13,89.6,-19.5,-22.92,88.99,0.1681,-1.0,1.0,-1.0,0.2583,-1.0,-1.0,-1.0,-1.0,1.0,-0.7368,1.0,-1.0,1.0,-1.0,1.0,0.0543,-1.0,0.052,0.071,0.123,0.019,0.019,0.013,0.033,0.0,0.091,0.006,0.019,0.006,0.033,0.254,0.0,0.019,0.026,0.019,-0.359,-0.3881,0.0905,-0.1565,-0.9296,0.6105,0.5599,-0.6182,0.8606,0.0,-0.8176,0.1871,-0.1795,-0.3835,0.3912,-0.5461,-0.6228,0.4096,0.2154,0.1441,0.1983,-0.2221,-0.2949,-0.1806,0.068,-0.1247,-0.2255,0.2252,-0.3098,0.2834,-0.1186,0.3088,-0.2544,0.0236,-0.2034,-0.1438,0.5741,0.4405,0.1683,-0.1114,0.1742,1.0,-1.0,0.9831,-1.0,-0.6163,-0.5795,-1.0,-1.0,-1.0,1.0,-1.0,1.0,-1.0,1.0,-1.0,1.0,-0.17,-1.0,0.0,0.0,0.0,0.0,0.0,0.0,0.0,0.0,0.0,0.3333,0.0,0.3333,0.0,0
2.68,run,8.88,7.3,16.05,-14.16,-0.13,0.0,0.05,0.0,0.643,-18.11,-3.34,87.36,-12.04,-38.5,110.83,30.32,-18.9,126.39,2.9,-32.52,92.46,-13.1,-0.62,98.61,-28.48,-21.09,99.32,-5.91,-11.1,100.45,-24.5,-40.21,99.66,19.12,-28.75,112.45,14.0,-36.86,102.93,-23.35,6.63,88.1,-18.0,-21.42,87.49,0.1429,-1.0,1.0,-1.0,0.6176,-1.0,-1.0,-1.0,-1.0,1.0,-0.1665,1.0,-1.0,1.0,-1.0,1.0,1.0,-1.0,0.052,0.071,0.123,0.019,0.019,0.013,0.033,0.0,0.091,0.006,0.019,0.006,0.033,0.254,0.0,0.019,0.026,0.019,-0.3375,-0.3881,0.1135,-0.1825,-0.9495,0.5875,0.5568,-0.6397,0.8406,0.0291,-0.8422,0.2117,-0.2025,-0.362,0.3651,-0.5262,-0.6519,0.3942,0.2318,0.1009,0.2256,-0.2539,-0.2817,-0.2132,0.036,-0.1683,-0.2331,0.2676,-0.3095,0.291,-0.1698,0.2972,-0.2765,0.0918,-0.2523,-0.1585,0.6137,0.4164,0.184,-0.0793,-0.0004,0.1681,-1.0,1.0,-1.0,0.2583,-1.0,-1.0,-1.0,-1.0,1.0,-0.7368,1.0,-1.0,1.0,-1.0,1.0,0.0543,-1.0,0.0,0.0,0.0,0.0,0.0,0.0,0.0,0.0,0.0,0.3333,0.0,0.3333,0.0,0
2.72,run,9.41,6.69,11.53,-13.52,8.86,0.0,0.05,0.0,0.643,-16.88,-3.43,89.03,-13.45,-39.81,109.51,29.0,-20.21,125.16,4.31,-33.93,93.87,-14.59,0.88,97.21,-27.16,-22.15,97.91,-4.41,-12.6,101.95,-26.0,-38.71,98.16,17.62,-30.25,110.95,15.5,-35.36,104.43,-24.85,8.13,86.6,-16.5,-19.92,85.99,0.1154,-1.0,1.0,-1.0,0.738,-1.0,-1.0,-0.1485,-1.0,1.0,1.0,1.0,-1.0,1.0,-1.0,1.0,1.0,-1.0,0.052,0.071,0.123,0.019,0.019,0.013,0.033,0.0,0.091,0.006,0.019,0.006,0.033,0.254,0.0,0.019,0.026,0.019,-0.3175,-0.3881,0.1381,-0.2086,-0.9649,0.5614,0.5354,-0.6657,0.8191,0.0506,-0.8667,0.2362,-0.227,-0.3359,0.3405,-0.497,-0.675,0.3636,0.2356,0.0706,0.2482,-0.2736,-0.2536,-0.2451,-0.0537,-0.2137,-0.2421,0.2663,-0.3069,0.2939,-0.2091,0.3039,-0.2838,0.1714,-0.2612,-0.2238,0.6761,0.3578,0.2801,-0.2472,-0.0022,0.1429,-1.0,1.0,-1.0,0.6176,-1.0,-1.0,-1.0,-1.0,1.0,-0.1665,1.0,-1.0,1.0,-1.0,1.0,1.0,-1.0,0.0,0.0,0.0,0.0,0.0,0.0,0.0,0.0,0.0,0.3333,0.0,0.3333,0.0,0
2.76,run,9.99,6.29,13.09,-9.12,17.09,0.0,0.05,0.0,0.643,-15.38,-4.31,90.44,-14.94,-40.61,108.11,27.69,-21.62,123.84,5.71,-35.07,95.27,-16.08,2.46,95.8,-26.02,-22.94,96.5,-5.91,-14.1,103.45,-27.5,-37.21,96.66,16.12,-28.75,109.45,17.0,-33.86,105.93,-26.35,9.63,85.1,-15.0,-18.42,84.49,-0.8854,-1.0,1.0,-1.0,1.0,-1.0,-1.0,0.0264,-1.0,1.0,1.0,1.0,-1.0,1.0,-1.0,1.0,1.0,-1.0,0.058,0.0,0.065,0.019,0.013,0.013,0.045,0.0,0.117,0.019,0.006,0.006,0.013,0.163,0.0,0.006,0.013,0.019,-0.2961,-0.3896,0.1672,-0.2332,-0.9879,0.5384,0.5123,-0.6888,0.7977,0.0752,-0.8912,0.2608,-0.2531,-0.3099,0.316,-0.474,-0.6934,0.339,0.2474,0.0435,0.2857,-0.2858,-0.2659,-0.26,-0.126,-0.238,-0.252,0.2807,-0.3091,0.3001,-0.2466,0.313,-0.293,0.2084,-0.2536,-0.251,0.7217,0.3046,0.2012,-0.236,0.1546,0.1154,-1.0,1.0,-1.0,0.738,-1.0,-1.0,-0.1485,-1.0,1.0,1.0,1.0,-1.0,1.0,-1.0,1.0,1.0,-1.0,0.0,0.0,0.0,0.0,0.0,0.0,0.0,0.0,0.0,0.3333,0.0,0.3333,0.0,0
2.8,run,11.17,6.32,24.63,1.51,20.19,0.0,0.05,0.0,0.643,-13.54,-5.8,92.2,-16.61,-41.22,106.44,26.1,-23.29,121.99,7.38,-36.04,96.94,-17.84,4.39,94.22,-23.99,-23.55,94.75,-7.41,-15.6,104.95,-29.0,-35.71,95.16,14.62,-30.25,107.95,18.5,-32.36,107.43,-27.85,11.13,83.6,-13.5,-16.92,82.99,-1.0,-1.0,1.0,-1.0,1.0,-1.0,-1.0,-0.6568,-1.0,1.0,1.0,1.0,-1.0,1.0,-0.8542,1.0,1.0,-1.0,0.058,0.0,0.065,0.019,0.013,0.013,0.045,0.0,0.117,0.019,0.006,0.006,0.013,0.163,0.0,0.006,0.013,0.019,-0.27,-0.405,0.1917,-0.2592,-1.0017,0.5139,0.4893,-0.7133,0.7747,0.0997,-0.9112,0.2853,-0.2792,-0.2823,0.2915,-0.4541,-0.7072,0.3145,0.271,-0.0271,0.2921,-0.2979,-0.2379,-0.2741,-0.1745,-0.2587,-0.2627,0.2886,-0.2912,0.3021,-0.2704,0.3226,-0.2971,0.2207,-0.2293,-0.2677,0.7729,0.2701,0.2285,-0.1591,0.2982,-0.8854,-1.0,1.0,-1.0,1.0,-1.0,-1.0,0.0264,-1.0,1.0,1.0,1.0,-1.0,1.0,-1.0,1.0,1.0,-1.0,0.0,0.0,0.0,0.0,0.0,0.0,0.0,0.0,0.0,0.3333,0.0,0.3333,0.0,0
2.84,run,11.84,6.43,21.63,2.11,15.58,0.0,0.05,0.0,0.643,-12.3,-7.03,93.43,-17.75,-41.4,105.29,25.05,-24.43,120.76,8.53,-36.56,98.17,-19.07,5.62,93.16,-23.12,-23.73,93.6,-5.91,-17.1,106.45,-30.5,-34.21,93.66,13.12,-31.75,106.45,20.0,-30.86,108.93,-29.35,12.63,83.01,-12.0,-15.42,81.49,0.2244,-1.0,1.0,-1.0,0.4074,-1.0,-1.0,-1.0,-1.0,1.0,1.0,1.0,-1.0,1.0,0.2119,1.0,1.0,-1.0,0.058,0.0,0.065,0.019,0.013,0.013,0.045,0.0,0.117,0.019,0.006,0.006,0.013,0.163,0.0,0.006,0.013,0.019,-0.2378,-0.431,0.2224,-0.2884,-1.0124,0.4847,0.4617,-0.7424,0.7424,0.1289,-0.9281,0.3145,-0.3099,-0.2485,0.2638,-0.4188,-0.7179,0.2838,0.2899,-0.1001,0.2999,-0.2992,-0.2,-0.2825,-0.2081,-0.2717,-0.2841,0.2927,-0.2563,0.3022,-0.2848,0.3308,-0.2939,0.2643,-0.1939,-0.2829,0.8759,0.2719,0.4299,0.0263,0.3524,-1.0,-1.0,1.0,-1.0,1.0,-1.0,-1.0,-0.6568,-1.0,1.0,1.0,1.0,-1.0,1.0,-0.8542,1.0,1.0,-1.0,0.0,0.0,0.0,0.0,0.0,0.0,0.0,0.0,0.0,0.3333,0.0,0.3333,0.0,0
2.88,run,12.3,6.69,11.73,6.0,5.01,0.0,0.05,0.0,0.643,-11.07,-8.44,94.75,-19.07,-41.48,104.06,23.91,-25.84,119.44,9.84,-36.83,99.4,-20.74,6.68,92.11,-21.88,-23.73,92.46,-4.41,-18.6,107.95,-32.0,-35.71,92.16,11.62,-33.25,104.95,21.5,-29.36,110.43,-30.85,14.13,81.51,-10.5,-13.92,79.99,0.5343,-1.0,1.0,-1.0,-0.2236,-0.6595,-1.0,-1.0,-1.0,1.0,1.0,1.0,-1.0,1.0,-0.9459,1.0,1.0,-1.0,0.039,0.0,0.058,0.026,0.033,0.013,0.052,0.006,0.052,0.019,0.0,0.013,0.0,0.13,0.013,0.0,0.013,0.006,-0.2163,-0.4525,0.2439,-0.3083,-1.0155,0.4648,0.4433,-0.7624,0.721,0.1488,-0.9373,0.3359,-0.3313,-0.227,0.2454,-0.4034,-0.721,0.2638,0.3043,-0.1714,0.3113,-0.3035,-0.1544,-0.2919,-0.2325,-0.2843,-0.3002,0.299,-0.2229,0.3129,-0.3007,0.3329,-0.2926,0.2574,-0.1502,-0.2921,0.9338,0.2822,0.3775,0.0368,0.2718,0.2244,-1.0,1.0,-1.0,0.4074,-1.0,-1.0,-1.0,-1.0,1.0,1.0,1.0,-1.0,1.0,0.2119,1.0,1.0,-1.0,0.0,0.0,0.0,0.0,0.0,0.0,0.0,0.0,0.0,0.3333,0.0,0.3333,0.0,0
2.92,run,12.76,7.12,14.19,9.34,1.07,0.0,0.05,0.0,0.643,-10.02,-9.76,96.15,-20.39,-41.57,102.66,22.85,-27.25,118.12,11.25,-36.74,100.81,-21.88,7.73,90.88,-20.74,-23.2,91.32,-5.91,-20.1,109.45,-33.5,-34.21,90.66,10.12,-34.75,103.45,23.0,-27.86,111.93,-32.35,15.63,80.01,-9.0,-12.42,78.49,-0.2611,-0.7678,1.0,-1.0,0.3139,-0.0729,-1.0,-1.0,-1.0,1.0,1.0,1.0,-1.0,1.0,-1.0,1.0,1.0,-1.0,0.039,0.0,0.058,0.026,0.033,0.013,0.052,0.006,0.052,0.019,0.0,0.013,0.0,0.13,0.013,0.0,0.013,0.006,-0.1948,-0.4771,0.2669,-0.3313,-1.017,0.4433,0.4234,-0.7869,0.698,0.1718,-0.9419,0.3574,-0.3605,-0.2086,0.227,-0.382,-0.721,0.2439,0.2933,-0.2117,0.3039,-0.2985,-0.1138,-0.2846,-0.2373,-0.2907,-0.2961,0.2953,-0.1732,0.2992,-0.3194,0.3018,-0.2736,0.2604,-0.1052,-0.279,0.9747,0.3046,0.2047,0.1047,0.0874,0.5343,-1.0,1.0,-1.0,-0.2236,-0.6595,-1.0,-1.0,-1.0,1.0,1.0,1.0,-1.0,1.0,-0.9459,1.0,1.0,-1.0,0.0,0.0,0.0,0.0,0.0,0.0,0.0,0.0,0.0,0.3333,0.0,0.3333,0.0,0
2.96,run,12.84,7.79,-1.59,12.47,0.52,0.0,0.05,0.0,0.643,-8.96,-10.9,97.38,-21.62,-40.34,101.69,21.88,-28.39,116.81,12.48,-36.3,102.04,-23.12,8.7,89.74,-19.78,-22.5,90.18,-4.41,-21.6,110.95,-35.0,-32.71,89.16,8.62,-36.25,101.95,24.5,-26.36,113.43,-33.85,17.13,78.51,-7.5,-10.92,76.99,0.4525,-0.1281,1.0,-1.0,0.3007,0.0449,-1.0,-1.0,-1.0,1.0,1.0,1.0,-1.0,1.0,-1.0,1.0,1.0,-1.0,0.039,0.0,0.058,0.026,0.033,0.013,0.052,0.006,0.052,0.019,0.0,0.013,0.0,0.13,0.013,0.0,0.013,0.006,-0.1764,-0.5001,0.2915,-0.3543,-1.0186,0.4188,0.405,-0.8115,0.675,0.1963,-0.9403,0.382,-0.3804,-0.1902,0.2056,-0.362,-0.7118,0.224,0.274,-0.2341,0.3044,-0.2949,-0.0854,-0.2909,-0.2349,-0.2952,-0.2933,0.2984,-0.1155,0.3012,-0.2981,0.2801,-0.2717,0.2568,-0.0392,-0.2698,1.0144,0.3423,0.2477,0.163,0.0187,-0.2611,-0.7678,1.0,-1.0,0.3139,-0.0729,-1.0,-1.0,-1.0,1.0,1.0,1.0,-1.0,1.0,-1.0,1.0,1.0,-1.0,0.0,0.0,0.0,0.0,0.0,0.0,0.0,0.0,0.0,0.3333,0.0,0.3333,0.0,0
3.0,run,13.12,7.15,2.84,-12.81,-10.31,0.0,0.05,0.0,0.643,-7.65,-12.66,99.23,-23.47,-38.85,100.02,20.13,-30.06,114.7,14.33,-34.98,103.8,-25.05,10.02,87.98,-17.93,-20.39,88.68,-2.91,-20.1,112.45,-35.0,-31.21,87.66,7.12,-37.75,100.45,26.0,-24.86,114.93,-35.0,18.63,77.01,-6.0,-9.42,75.49,0.2469,1.0,1.0,-1.0,0.4484,-0.1183,-1.0,-1.0,-1.0,1.0,1.0,1.0,-1.0,1.0,-1.0,1.0,1.0,-1.0,0.104,0.0,0.065,0.019,0.033,0.0,0.045,0.0,0.019,0.0,0.006,0.006,0.0,0.195,0.0,0.013,0.013,0.013,-0.158,-0.52,0.3129,-0.3758,-0.9971,0.4019,0.3881,-0.8314,0.6519,0.2178,-0.9327,0.4034,-0.4019,-0.1733,0.1856,-0.3451,-0.6995,0.204,0.261,-0.2388,0.2938,-0.2871,0.0209,-0.267,-0.2278,-0.2816,-0.2918,0.2896,-0.052,0.2915,-0.2894,0.2595,-0.2652,0.2432,0.0187,-0.2638,1.0214,0.4009,-0.0277,0.2176,0.0091,0.4525,-0.1281,1.0,-1.0,0.3007,0.0449,-1.0,-1.0,-1.0,1.0,1.0,1.0,-1.0,1.0,-1.0,1.0,1.0,-1.0,0.0,0.0,0.0,0.0,0.0,0.0,0.0,0.0,0.0,0.3333,0.0,0.3333,0.0,0
3.04,run,13.45,7.33,7.79,1.74,2.13,0.0,0.05,0.0,0.643,-6.86,-13.8,100.37,-24.7,-37.88,98.88,18.9,-31.11,113.55,15.56,-33.84,105.21,-26.1,11.25,87.01,-16.79,-20.04,87.19,-4.41,-21.6,113.95,-35.0,-29.71,86.16,5.62,-36.25,98.95,27.5,-23.36,113.43,-35.0,20.13,75.51,-4.5,-7.92,73.99,-0.2987,-0.8574,1.0,-1.0,-0.0054,-0.8495,-1.0,-0.0401,-0.5339,1.0,1.0,0.3806,-1.0,1.0,-1.0,1.0,1.0,-1.0,0.104,0.0,0.065,0.019,0.033,0.0,0.045,0.0,0.019,0.0,0.006,0.006,0.0,0.195,0.0,0.013,0.013,0.013,-0.135,-0.5507,0.3451,-0.408,-0.971,0.3728,0.3574,-0.8606,0.6151,0.25,-0.9097,0.4341,-0.4357,-0.1503,0.1549,-0.3129,-0.6627,0.1779,0.2423,-0.2466,0.289,-0.2844,0.0821,-0.2624,-0.2389,-0.2726,-0.2995,0.2861,0.0231,0.2835,-0.2899,0.2412,-0.265,0.2536,0.1084,-0.2522,1.0461,0.3445,0.0496,-0.2235,-0.18,0.2469,1.0,1.0,-1.0,0.4484,-0.1183,-1.0,-1.0,-1.0,1.0,1.0,1.0,-1.0,1.0,-1.0,1.0,1.0,-1.0,0.0,0.0,0.0,0.0,0.0,0.0,0.0,0.0,0.0,0.3333,0.0,0.3333,0.0,0
3.08,run,14.01,7.46,14.99,2.68,14.8,0.0,0.05,0.0,0.643,-5.89,-14.77,101.43,-25.66,-36.83,97.82,17.58,-31.9,112.5,16.52,-32.78,106.08,-26.81,12.22,85.96,-15.91,-18.63,86.57,-2.91,-20.1,115.45,-35.0,-31.21,87.66,4.12,-37.75,97.45,26.0,-21.86,114.93,-35.0,21.63,74.01,-3.0,-6.42,72.49,0.6537,0.2903,1.0,-1.0,-0.8543,1.0,-1.0,-1.0,-0.2068,0.0961,1.0,1.0,-1.0,1.0,-1.0,1.0,1.0,-1.0,0.104,0.0,0.065,0.019,0.033,0.0,0.045,0.0,0.019,0.0,0.006,0.006,0.0,0.195,0.0,0.013,0.013,0.013,-0.1212,-0.5706,0.3651,-0.4295,-0.9541,0.3528,0.3359,-0.879,0.5952,0.2715,-0.8897,0.4587,-0.4541,-0.1289,0.1381,-0.293,-0.6565,0.1519,0.2223,-0.2487,0.2784,-0.281,0.1219,-0.2598,-0.2492,-0.261,-0.2858,0.2822,0.0923,0.2921,-0.2732,0.2508,-0.2499,0.2536,0.0993,-0.276,1.0749,0.3607,0.1359,0.0303,0.0372,-0.2987,-0.8574,1.0,-1.0,-0.0054,-0.8495,-1.0,-0.0401,-0.5339,1.0,1.0,0.3806,-1.0,1.0,-1.0,1.0,1.0,-1.0,0.0,0.0,0.0,0.0,0.0,0.0,0.0,0.0,0.0,0.3333,0.0,0.3333,0.0,0
3.12,run,14.33,7.17,10.12,-4.44,5.8,0.0,0.05,0.0,0.643,-4.83,-15.91,102.48,-26.72,-35.77,96.42,16.35,-33.13,111.36,17.58,-31.55,107.23,-28.04,13.45,84.64,-14.5,-16.88,85.08,-1.41,-18.6,116.95,-35.0,-32.71,89.16,2.62,-39.25,95.95,24.5,-20.36,116.43,-35.0,23.13,72.51,-1.5,-4.92,70.99,1.0,1.0,1.0,-1.0,-1.0,1.0,-1.0,-1.0,-0.1141,-0.5629,1.0,0.7188,-1.0,1.0,-1.0,1.0,1.0,-1.0,0.058,0.0,0.104,0.039,0.045,0.0,0.026,0.013,0.019,0.019,0.006,0.013,0.039,0.195,0.0,0.0,0.019,0.006,-0.1043,-0.5875,0.3835,-0.4464,-0.9357,0.3344,0.3129,-0.8928,0.5768,0.2884,-0.8713,0.474,-0.4663,-0.112,0.1197,-0.2777,-0.632,0.1411,0.2183,-0.2369,0.2634,-0.2595,0.1538,-0.2503,-0.26,-0.2341,-0.2685,0.2603,0.1331,0.2615,-0.2369,0.2383,-0.2434,0.2346,0.1608,-0.2332,1.1238,0.3716,0.2617,0.0468,0.2584,0.6537,0.2903,1.0,-1.0,-0.8543,1.0,-1.0,-1.0,-0.2068,0.0961,1.0,1.0,-1.0,1.0,-1.0,1.0,1.0,-1.0,0.0,0.0,0.0,0.0,0.0,0.0,0.0,0.0,0.0,0.3333,0.0,0.3333,0.0,0
3.16,run,14.52,6.09,6.85,-26.38,-17.25,0.0,0.05,0.0,0.643,-3.87,-17.05,103.8,-28.04,-34.72,95.19,14.94,-34.54,110.13,18.98,-30.32,108.72,-29.18,14.68,83.32,-13.01,-16.44,83.85,0.09,-17.1,118.45,-35.0,-34.21,90.66,1.12,-40.75,97.45,23.0,-18.86,114.93,-35.0,24.63,71.01,0.0,-3.42,69.49,1.0,0.8638,1.0,-1.0,-1.0,1.0,-1.0,-0.7393,0.8215,-1.0,1.0,-0.2475,-1.0,1.0,-1.0,1.0,1.0,-1.0,0.058,0.0,0.104,0.039,0.045,0.0,0.026,0.013,0.019,0.019,0.006,0.013,0.039,0.195,0.0,0.0,0.019,0.006,-0.0859,-0.6075,0.4019,-0.4648,-0.9173,0.3099,0.2915,-0.9143,0.5568,0.3068,-0.8498,0.4939,-0.4878,-0.0905,0.0966,-0.2531,-0.6013,0.115,0.2214,-0.24,0.2529,-0.2502,0.1762,-0.2666,-0.262,-0.2438,-0.2622,0.2507,0.1731,0.2573,-0.2458,0.2468,-0.256,0.2556,0.2268,-0.2603,1.1511,0.3464,0.1767,-0.0775,0.1012,1.0,1.0,1.0,-1.0,-1.0,1.0,-1.0,-1.0,-0.1141,-0.5629,1.0,0.7188,-1.0,1.0,-1.0,1.0,1.0,-1.0,0.0,0.0,0.0,0.0,0.0,0.0,0.0,0.0,0.0,0.3333,0.0,0.3333,0.0,0
3.2,run,14.68,5.2,3.27,-20.61,-27.1,0.0,0.05,0.0,0.643,-2.9,-17.93,105.29,-29.53,-33.93,94.04,13.71,-35.95,108.9,20.3,-29.09,110.04,-30.67,16.0,82.0,-12.3,-15.03,82.53,1.59,-18.6,119.95,-35.0,-35.71,92.16,-0.38,-39.25,98.95,21.5,-17.36,113.43,-35.0,26.13,69.51,1.5,-1.92,67.99,1.0,-0.4629,1.0,-1.0,-1.0,1.0,-0.784,1.0,1.0,-1.0,1.0,-1.0,-1.0,1.0,-1.0,1.0,1.0,-1.0,0.058,0.0,0.104,0.039,0.045,0.0,0.026,0.013,0.019,0.019,0.006,0.013,0.039,0.195,0.0,0.0,0.019,0.006,-0.069,-0.6274,0.4249,-0.4878,-0.8989,0.2884,0.2669,-0.9388,0.5354,0.3313,-0.8283,0.52,-0.5077,-0.069,0.0736,-0.227,-0.5937,0.0936,0.2188,-0.2435,0.2641,-0.2622,0.193,-0.2679,-0.2762,-0.2635,-0.2648,0.2684,0.2024,0.2788,-0.2475,0.254,-0.2663,0.2776,0.1877,-0.2635,1.1682,0.2521,0.1195,-0.4604,-0.3011,1.0,0.8638,1.0,-1.0,-1.0,1.0,-1.0,-0.7393,0.8215,-1.0,1.0,-0.2475,-1.0,1.0,-1.0,1.0,1.0,-1.0,0.0,0.0,0.0,0.0,0.0,0.0,0.0,0.0,0.0,0.3333,0.0,0.3333,0.0,0
3.24,run,14.78,4.91,2.83,-4.63,-24.8,0.0,0.05,0.0,0.643,-1.58,-18.46,106.79,-30.94,-33.05,93.08,12.48,-37.18,107.75,21.45,-27.95,111.27,-32.08,17.14,80.86,-10.46,-13.27,81.39,3.09,-20.1,121.45,-35.0,-37.21,93.66,-1.88,-37.75,100.45,20.0,-15.86,111.93,-35.0,24.63,68.01,3.0,-0.42,66.49,1.0,-0.6311,1.0,-1.0,-1.0,1.0,-0.3358,1.0,1.0,-1.0,1.0,-1.0,-1.0,0.4659,-1.0,1.0,1.0,-1.0,0.078,0.0,0.052,0.019,0.026,0.0,0.019,0.0,0.019,0.013,0.006,0.006,0.013,0.384,0.0,0.019,0.0,0.013,-0.0522,-0.6427,0.451,-0.5139,-0.8851,0.2684,0.2454,-0.9633,0.5139,0.3543,-0.8069,0.543,-0.5338,-0.046,0.0506,-0.2148,-0.5691,0.0706,0.2167,-0.2282,0.2831,-0.2818,0.1871,-0.2626,-0.2743,-0.2769,-0.2663,0.2745,0.2226,0.2818,-0.2715,0.2645,-0.2731,0.2405,0.2239,-0.2711,1.1823,0.1747,0.057,-0.3597,-0.4729,1.0,-0.4629,1.0,-1.0,-1.0,1.0,-0.784,1.0,1.0,-1.0,1.0,-1.0,-1.0,1.0,-1.0,1.0,1.0,-1.0,0.0,0.0,0.0,0.0,0.0,0.0,0.0,0.0,0.0,0.3333,0.0,0.3333,0.0,0
3.28,run,15.0,4.97,5.66,1.72,-9.23,0.0,0.05,0.0,0.643,-0.53,-19.16,108.19,-32.17,-32.52,92.37,11.25,-38.14,106.52,22.24,-26.72,112.32,-33.22,18.37,79.45,-10.2,-12.3,80.16,4.59,-21.6,122.95,-35.0,-38.71,95.16,-3.38,-39.25,101.95,18.5,-14.36,110.43,-35.0,23.13,66.51,4.5,1.08,64.99,1.0,-0.0661,1.0,-1.0,-0.5613,1.0,-0.1685,-0.434,1.0,-1.0,1.0,-1.0,-1.0,-0.1018,-1.0,1.0,1.0,-1.0,0.078,0.0,0.052,0.019,0.026,0.0,0.019,0.0,0.019,0.013,0.006,0.006,0.013,0.384,0.0,0.019,0.0,0.013,-0.0291,-0.6519,0.4771,-0.5384,-0.8698,0.2516,0.224,-0.9848,0.4939,0.3743,-0.7869,0.5645,-0.5584,-0.0261,0.0307,-0.1825,-0.5384,0.0506,0.2376,-0.1941,0.2955,-0.2888,0.1882,-0.2468,-0.2721,-0.274,-0.2608,0.2666,0.2302,0.2774,-0.2816,0.2595,-0.2656,0.2886,0.2712,-0.2642,1.191,0.149,0.0494,-0.0808,-0.4328,1.0,-0.6311,1.0,-1.0,-1.0,1.0,-0.3358,1.0,1.0,-1.0,1.0,-1.0,-1.0,0.4659,-1.0,1.0,1.0,-1.0,0.0,0.0,0.0,0.0,0.0,0.0,0.0,0.0,0.0,0.3333,0.0,0.3333,0.0,0
3.32,run,15.27,4.73,8.95,-7.31,-0.36,0.0,0.05,0.0,0.643,0.53,-19.86,109.51,-33.05,-32.26,91.93,10.11,-38.85,105.29,22.76,-25.58,112.94,-34.01,19.86,78.05,-8.0,-11.34,78.75,6.09,-23.1,124.45,-35.0,-37.21,96.66,-1.88,-40.75,103.45,17.0,-12.86,108.93,-35.0,21.63,65.01,6.0,2.58,63.49,1.0,-0.1146,1.0,-1.0,-0.1349,1.0,0.0623,-1.0,1.0,-1.0,1.0,-1.0,-1.0,0.2398,-1.0,1.0,1.0,-1.0,0.078,0.0,0.052,0.019,0.026,0.0,0.019,0.0,0.019,0.013,0.006,0.006,0.013,0.384,0.0,0.019,0.0,0.013,-0.0107,-0.6642,0.5016,-0.5599,-0.8606,0.2393,0.2025,-1.0017,0.4725,0.3881,-0.7655,0.5829,-0.5783,-0.0046,0.0061,-0.1779,-0.5216,0.0291,0.2356,-0.1821,0.2992,-0.283,0.1664,-0.219,-0.2713,-0.2553,-0.2634,0.2386,0.242,0.2635,-0.2722,0.2625,-0.2783,0.2193,0.2534,-0.2658,1.2103,0.1541,0.0989,0.03,-0.1612,1.0,-0.0661,1.0,-1.0,-0.5613,1.0,-0.1685,-0.434,1.0,-1.0,1.0,-1.0,-1.0,-0.1018,-1.0,1.0,1.0,-1.0,0.0,0.0,0.0,0.0,0.0,0.0,0.0,0.0,0.0,0.3333,0.0,0.3333,0.0,0
3.36,run,15.3,4.53,0.14,-4.71,-5.97,0.0,0.05,0.0,0.643,1.93,-20.74,111.09,-33.84,-31.99,91.32,8.61,-39.64,104.15,22.94,-24.08,113.29,-34.63,21.18,76.29,-7.65,-9.84,77.08,7.59,-24.6,125.95,-35.0,-38.71,98.16,-0.38,-41.8,104.95,15.5,-11.36,107.43,-35.0,20.13,63.51,7.5,4.08,61.99,1.0,-0.8176,1.0,-1.0,-0.4106,1.0,0.0871,-0.3055,1.0,-1.0,1.0,-1.0,-1.0,0.5535,-1.0,1.0,1.0,-1.0,0.084,0.0,0.058,0.019,0.013,0.0,0.019,0.0,0.013,0.013,0.0,0.0,0.006,0.254,0.0,0.039,0.013,0.019,0.0077,-0.6765,0.5246,-0.5752,-0.856,0.2316,0.1825,-1.014,0.451,0.3973,-0.7455,0.5937,-0.5921,0.0215,-0.0184,-0.1396,-0.5047,0.0046,0.2335,-0.1732,0.2952,-0.2553,0.1336,-0.1819,-0.2643,-0.2245,-0.2644,0.2013,0.2437,0.2245,-0.242,0.281,-0.2863,0.2965,0.2402,-0.2775,1.2333,0.1332,0.1562,-0.1276,-0.0062,1.0,-0.1146,1.0,-1.0,-0.1349,1.0,0.0623,-1.0,1.0,-1.0,1.0,-1.0,-1.0,0.2398,-1.0,1.0,1.0,-1.0,0.0,0.0,0.0,0.0,0.0,0.0,0.0,0.0,0.0,0.3333,0.0,0.3333,0.0,0
3.4,run,15.47,4.43,6.82,-1.39,-5.78,0.0,0.05,0.0,0.643,3.25,-21.8,112.5,-34.28,-31.99,91.23,7.38,-40.43,103.45,22.59,-22.68,113.2,-34.8,21.88,74.88,-5.1,-8.53,75.67,9.09,-26.1,127.45,-35.0,-37.21,99.66,1.12,-43.3,106.45,14.0,-9.86,105.93,-35.0,18.63,62.01,9.0,5.58,60.49,1.0,-0.4229,1.0,-1.0,0.064,1.0,0.2536,-0.4674,1.0,-1.0,1.0,-1.0,-1.0,-0.7903,-1.0,1.0,1.0,-1.0,0.084,0.0,0.058,0.019,0.013,0.0,0.019,0.0,0.013,0.013,0.0,0.0,0.006,0.254,0.0,0.039,0.013,0.019,0.0322,-0.6918,0.5522,-0.589,-0.8514,0.2209,0.1565,-1.0278,0.431,0.4004,-0.7194,0.5998,-0.6029,0.0445,-0.0491,-0.1335,-0.4786,-0.0245,0.2399,-0.169,0.2927,-0.2217,0.1079,-0.1608,-0.2662,-0.2001,-0.2472,0.1505,0.2519,0.1762,-0.2029,0.2684,-0.296,0.2266,0.2494,-0.2851,1.236,0.1164,0.0024,-0.0821,-0.1043,1.0,-0.8176,1.0,-1.0,-0.4106,1.0,0.0871,-0.3055,1.0,-1.0,1.0,-1.0,-1.0,0.5535,-1.0,1.0,1.0,-1.0,0.0,0.0,0.0,0.0,0.0,0.0,0.0,0.0,0.0,0.3333,0.0,0.3333,0.0,0
3.44,run,15.58,4.4,2.42,0.21,-3.8,0.0,0.05,0.0,0.643,4.57,-22.94,113.91,-34.37,-32.17,91.49,6.06,-41.31,103.01,21.71,-21.27,112.68,-34.89,22.24,73.56,-4.57,-7.03,74.27,10.59,-27.6,128.95,-35.0,-35.71,101.16,2.62,-44.8,107.95,12.5,-8.36,104.43,-35.0,17.13,60.51,10.5,7.08,58.99,1.0,-0.4748,1.0,-1.0,0.015,1.0,0.9867,-1.0,1.0,-1.0,1.0,-1.0,-1.0,-0.5024,-1.0,1.0,1.0,-1.0,0.084,0.0,0.058,0.019,0.013,0.0,0.019,0.0,0.013,0.013,0.0,0.0,0.006,0.254,0.0,0.039,0.013,0.019,0.0552,-0.7102,0.5768,-0.5967,-0.8514,0.2194,0.135,-1.0416,0.4188,0.3942,-0.6949,0.5983,-0.6059,0.0568,-0.0736,-0.089,-0.4556,-0.0491,0.2536,-0.1869,0.2963,-0.1838,0.0755,-0.1182,-0.2663,-0.1915,-0.2188,0.0825,0.2677,0.1177,-0.1534,0.2336,-0.2986,0.3243,0.2603,-0.2909,1.2511,0.1077,0.119,-0.0242,-0.1008,1.0,-0.4229,1.0,-1.0,0.064,1.0,0.2536,-0.4674,1.0,-1.0,1.0,-1.0,-1.0,-0.7903,-1.0,1.0,1.0,-1.0,0.0,0.0,0.0,0.0,0.0,0.0,0.0,0.0,0.0,0.3333,0.0,0.3333,0.0,0
3.48,run,15.23,4.45,-7.91,0.53,5.68,0.0,0.05,0.0,0.643,6.06,-24.35,115.4,-34.37,-32.87,92.2,4.66,-42.45,103.01,20.65,-19.95,111.8,-34.8,22.5,72.07,-2.29,-5.71,72.86,12.09,-29.1,130.45,-33.5,-34.21,102.66,4.12,-46.3,109.45,11.0,-6.86,102.93,-35.0,15.63,59.01,12.0,8.58,57.49,1.0,-0.5332,1.0,-0.8753,0.1824,1.0,1.0,-1.0,1.0,-1.0,1.0,-1.0,-1.0,-1.0,-1.0,1.0,1.0,-1.0,0.084,0.0,0.058,0.006,0.0,0.045,0.019,0.013,0.006,0.013,0.006,0.019,0.006,0.065,0.006,0.013,0.013,0.019,0.0782,-0.7302,0.6013,-0.5983,-0.8544,0.224,0.112,-1.0569,0.4111,0.3789,-0.6703,0.589,-0.6075,0.0629,-0.0966,-0.0798,-0.4295,-0.0736,0.2637,-0.2054,0.2992,-0.1344,0.0414,-0.0655,-0.2725,-0.1915,-0.1818,0.0003,0.2792,0.0479,-0.1131,0.1865,-0.2951,0.2615,0.2798,-0.2955,1.2603,0.1046,0.0422,0.0037,-0.0663,1.0,-0.4748,1.0,-1.0,0.015,1.0,0.9867,-1.0,1.0,-1.0,1.0,-1.0,-1.0,-0.5024,-1.0,1.0,1.0,-1.0,0.0,0.0,0.0,0.0,0.0,0.0,0.0,0.0,0.0,0.3333,0.0,0.3333,0.0,0
3.52,run,15.5,4.78,5.34,9.68,4.42,0.0,0.05,0.0,0.643,7.65,-26.02,117.07,-34.45,-33.93,93.43,3.43,-43.95,103.27,19.07,-18.19,110.39,-34.8,22.59,70.58,-1.41,-3.87,71.28,13.59,-30.6,131.95,-32.0,-32.71,104.16,5.62,-47.8,110.95,9.5,-5.36,101.43,-35.0,14.13,57.51,13.5,10.08,55.99,1.0,-0.5249,0.9341,0.965,0.7842,1.0,1.0,-1.0,1.0,-1.0,1.0,-1.0,-1.0,-1.0,-1.0,1.0,1.0,-0.2408,0.084,0.0,0.058,0.006,0.0,0.045,0.019,0.013,0.006,0.013,0.006,0.019,0.006,0.065,0.006,0.013,0.013,0.019,0.1043,-0.7547,0.6274,-0.5983,-0.8667,0.2362,0.0874,-1.0769,0.4111,0.3605,-0.6473,0.5737,-0.6059,0.0675,-0.1227,-0.0399,-0.4065,-0.0982,0.2823,-0.2358,0.3072,-0.0941,-0.017,0.0001,-0.2828,-0.2088,-0.1273,-0.0688,0.2817,-0.0239,-0.0734,0.1478,-0.3043,0.3325,0.2821,-0.2988,1.2305,0.1092,-0.138,0.0093,0.0992,1.0,-0.5332,1.0,-0.8753,0.1824,1.0,1.0,-1.0,1.0,-1.0,1.0,-1.0,-1.0,-1.0,-1.0,1.0,1.0,-1.0,0.0,0.0,0.0,0.0,0.0,0.0,0.0,0.0,0.0,0.3333,0.0,0.3333,0.0,0
3.56,run,15.3,4.96,-5.63,5.41,16.04,0.0,0.05,0.0,0.643,8.88,-27.33,118.48,-34.19,-34.72,94.75,2.46,-44.91,103.54,17.58,-16.79,108.98,-34.8,22.41,68.91,0.97,-2.46,69.87,12.09,-32.1,130.45,-30.5,-34.21,105.66,7.12,-49.3,112.45,8.0,-3.86,99.93,-35.0,12.63,56.01,12.0,11.58,57.49,-0.0188,-0.5913,-1.0,1.0,-0.2188,1.0,1.0,-1.0,1.0,-1.0,1.0,-1.0,-1.0,-1.0,-0.6372,-1.0,1.0,1.0,0.084,0.0,0.058,0.006,0.0,0.045,0.019,0.013,0.006,0.013,0.006,0.019,0.006,0.065,0.006,0.013,0.013,0.019,0.1319,-0.7839,0.6565,-0.5998,-0.8851,0.2577,0.066,-1.1029,0.4157,0.3329,-0.6167,0.5492,-0.6059,0.069,-0.1488,-0.0245,-0.3743,-0.1258,0.2844,-0.2567,0.3066,-0.0707,-0.0698,0.0676,-0.2654,-0.2281,-0.0746,-0.1349,0.2936,-0.0939,-0.0514,0.1083,-0.295,0.281,0.2987,-0.296,1.2534,0.1379,0.0933,0.169,0.0772,1.0,-0.5249,0.9341,0.965,0.7842,1.0,1.0,-1.0,1.0,-1.0,1.0,-1.0,-1.0,-1.0,-1.0,1.0,1.0,-0.2408,0.0,0.0,0.0,0.0,0.0,0.0,0.0,0.0,0.0,0.3333,0.0,0.3333,0.0,0
3.6,run,13.79,5.02,-40.77,1.58,6.69,0.0,0.05,0.0,0.643,10.28,-28.65,119.97,-33.49,-34.98,96.15,1.67,-45.97,104.94,16.17,-15.29,107.58,-34.72,21.18,67.59,1.49,-1.23,67.94,10.59,-33.6,128.95,-29.0,-35.71,107.16,8.62,-50.8,113.95,6.5,-2.36,98.43,-35.0,11.13,57.51,10.5,13.08,58.99,-1.0,-0.9834,-1.0,1.0,-1.0,1.0,1.0,-1.0,1.0,-1.0,1.0,-1.0,-1.0,-1.0,1.0,-1.0,1.0,1.0,0.039,0.0,0.052,0.019,0.0,0.045,0.006,0.045,0.026,0.019,0.033,0.019,0.006,0.0,0.0,0.058,0.006,0.006,0.1534,-0.8069,0.6811,-0.5952,-0.8989,0.2807,0.0491,-1.1198,0.4203,0.3068,-0.5921,0.5246,-0.6059,0.066,-0.1779,0.0169,-0.3497,-0.1503,0.279,-0.2653,0.306,-0.0323,-0.1002,0.1329,-0.2486,-0.2225,-0.0351,-0.1915,0.2969,-0.1571,-0.036,0.0644,-0.315,0.3508,0.3005,-0.2985,1.236,0.1539,-0.0982,0.0944,0.28,-0.0188,-0.5913,-1.0,1.0,-0.2188,1.0,1.0,-1.0,1.0,-1.0,1.0,-1.0,-1.0,-1.0,-0.6372,-1.0,1.0,1.0,0.0,0.0,0.0,0.0,0.0,0.0,0.0,0.0,0.0,0.3333,0.0,0.3333,0.0,0
3.64,run,13.02,5.61,-17.72,16.29,7.02,0.0,0.05,0.0,0.643,11.6,-30.06,121.38,-32.78,-35.33,97.65,1.41,-47.37,106.35,14.77,-14.24,106.08,-34.72,19.86,66.09,3.6,-0.35,66.71,9.09,-35.1,127.45,-27.5,-37.21,108.66,10.12,-52.3,115.45,5.0,-3.86,96.93,-35.0,9.63,59.01,9.0,14.58,60.49,-1.0,-1.0,-1.0,1.0,-0.5396,1.0,1.0,-1.0,1.0,-1.0,-0.4201,-1.0,-1.0,-1.0,1.0,-1.0,1.0,1.0,0.039,0.0,0.052,0.019,0.0,0.045,0.006,0.045,0.026,0.019,0.033,0.019,0.006,0.0,0.0,0.058,0.006,0.006,0.1779,-0.8299,0.7072,-0.5829,-0.9035,0.3053,0.0353,-1.1382,0.4449,0.2823,-0.566,0.5001,-0.6044,0.0445,-0.201,0.0261,-0.3283,-0.1841,0.2871,-0.2718,0.3118,0.0233,-0.0874,0.1849,-0.2257,-0.2246,0.0672,-0.2259,0.3054,-0.2018,-0.0195,-0.0353,-0.3066,0.28,0.2907,-0.3352,1.1046,0.1591,-0.7116,0.0277,0.1168,-1.0,-0.9834,-1.0,1.0,-1.0,1.0,1.0,-1.0,1.0,-1.0,1.0,-1.0,-1.0,-1.0,1.0,-1.0,1.0,1.0,0.0,0.0,0.0,0.0,0.0,0.0,0.0,0.0,0.0,0.3333,0.0,0.3333,0.0,0
3.68,run,11.7,6.13,-33.09,13.29,-0.8,0.0,0.05,0.0,0.643,12.3,-31.38,122.78,-31.46,-35.68,99.14,1.93,-48.6,107.75,13.36,-12.74,104.68,-34.72,18.37,64.69,4.57,1.49,65.3,7.59,-36.6,125.95,-26.0,-38.71,107.16,11.62,-53.8,116.95,3.5,-5.36,95.43,-35.0,8.13,60.51,7.5,16.08,61.99,-1.0,-1.0,-1.0,1.0,-1.0,-0.484,1.0,-1.0,1.0,-1.0,-1.0,-1.0,-1.0,-1.0,1.0,-1.0,1.0,1.0,0.039,0.0,0.052,0.019,0.0,0.045,0.006,0.045,0.026,0.019,0.033,0.019,0.006,0.0,0.0,0.058,0.006,0.006,0.201,-0.8544,0.7317,-0.5706,-0.9097,0.3313,0.0307,-1.1628,0.4694,0.2577,-0.5476,0.474,-0.6044,0.0215,-0.227,0.0629,-0.3129,-0.2056,0.2874,-0.2824,0.3104,0.0624,-0.0842,0.2273,-0.1753,-0.2494,0.1392,-0.2503,0.2829,-0.2392,-0.0136,-0.1111,-0.3125,0.3343,0.2611,-0.3153,1.0367,0.2107,-0.3092,0.2844,0.1225,-1.0,-1.0,-1.0,1.0,-0.5396,1.0,1.0,-1.0,1.0,-1.0,-0.4201,-1.0,-1.0,-1.0,1.0,-1.0,1.0,1.0,0.0,0.0,0.0,0.0,0.0,0.0,0.0,0.0,0.0,0.3333,0.0,0.3333,0.0,0
3.72,run,10.93,6.65,-17.78,14.1,2.19,0.0,0.05,0.0,0.643,12.92,-32.87,124.01,-30.06,-36.3,100.63,2.64,-50.01,109.07,12.04,-11.51,103.01,-34.72,17.14,63.28,5.89,2.72,63.98,6.09,-38.1,124.45,-24.5,-37.21,108.66,13.12,-55.3,118.45,2.0,-6.86,93.93,-35.0,6.63,62.01,6.0,17.58,63.49,-1.0,-1.0,-1.0,1.0,-0.1663,0.7427,1.0,-1.0,1.0,-1.0,-1.0,-1.0,-1.0,-1.0,1.0,-1.0,1.0,1.0,0.013,0.0,0.039,0.026,0.006,0.026,0.019,0.039,0.026,0.019,0.026,0.006,0.013,0.0,0.0,0.006,0.045,0.0,0.2132,-0.8774,0.7563,-0.5476,-0.9158,0.3574,0.0399,-1.1842,0.4939,0.2332,-0.5216,0.4495,-0.6044,-0.0046,-0.2516,0.0798,-0.2807,-0.2301,0.2471,-0.2837,0.3091,0.1297,-0.0819,0.2567,-0.0883,-0.2549,0.1892,-0.267,0.2955,-0.2592,-0.0095,-0.1753,-0.3105,0.2971,0.3032,-0.3125,0.9219,0.2559,-0.5775,0.232,-0.0139,-1.0,-1.0,-1.0,1.0,-1.0,-0.484,1.0,-1.0,1.0,-1.0,-1.0,-1.0,-1.0,-1.0,1.0,-1.0,1.0,1.0,0.0,0.0,0.0,0.0,0.0,0.0,0.0,0.0,0.0,0.3333,0.0,0.3333,0.0,0
3.76,run,10.32,7.03,-11.76,10.1,1.52,0.0,0.05,0.0,0.643,13.01,-34.19,124.98,-28.65,-37.09,102.13,3.69,-51.5,110.48,10.72,-10.28,101.69,-34.72,15.73,62.14,6.94,3.87,62.93,4.59,-39.6,122.95,-23.0,-38.71,107.16,14.62,-56.8,119.95,0.5,-8.36,92.43,-35.0,5.13,63.51,4.5,19.08,64.99,-1.0,-1.0,-1.0,1.0,-1.0,-1.0,1.0,-1.0,1.0,-1.0,-1.0,-1.0,-1.0,-1.0,1.0,-1.0,1.0,1.0,0.013,0.0,0.039,0.026,0.006,0.026,0.019,0.039,0.026,0.019,0.026,0.006,0.013,0.0,0.0,0.006,0.045,0.0,0.224,-0.9035,0.7777,-0.5231,-0.9265,0.3835,0.0522,-1.2088,0.517,0.2102,-0.5001,0.4203,-0.6044,-0.0261,-0.2761,0.1028,-0.2592,-0.2531,0.2134,-0.2968,0.2972,0.1832,-0.0977,0.2778,-0.0156,-0.2708,0.2191,-0.2735,0.2877,-0.2912,-0.0067,-0.2035,-0.3098,0.2946,0.2931,-0.3054,0.8544,0.301,-0.3103,0.246,0.0381,-1.0,-1.0,-1.0,1.0,-0.1663,0.7427,1.0,-1.0,1.0,-1.0,-1.0,-1.0,-1.0,-1.0,1.0,-1.0,1.0,1.0,0.0,0.0,0.0,0.0,0.0,0.0,0.0,0.0,0.0,0.3333,0.0,0.3333,0.0,0
3.8,run,10.07,7.33,-5.98,9.55,-3.61,0.0,0.05,0.0,0.643,12.57,-35.6,125.68,-27.25,-37.71,103.54,4.92,-52.91,111.88,9.4,-9.4,100.28,-34.72,14.41,61.26,7.56,5.1,62.05,3.09,-41.1,121.45,-21.5,-40.21,105.66,16.12,-58.3,121.45,-1.0,-9.86,90.93,-35.0,3.63,65.01,3.0,20.58,66.49,-1.0,-0.9802,-1.0,1.0,-1.0,0.274,1.0,-1.0,1.0,-1.0,-1.0,-1.0,-1.0,-1.0,1.0,-1.0,1.0,1.0,0.013,0.0,0.039,0.026,0.006,0.026,0.019,0.039,0.026,0.019,0.026,0.006,0.013,0.0,0.0,0.006,0.045,0.0,0.2255,-0.9265,0.7946,-0.4985,-0.9403,0.4096,0.0706,-1.2349,0.5415,0.1871,-0.4786,0.3973,-0.6044,-0.0506,-0.2961,0.1212,-0.2393,-0.2715,0.1551,-0.2943,0.2715,0.2205,-0.1203,0.2925,0.0583,-0.2876,0.2456,-0.278,0.2822,-0.2903,-0.0047,-0.2348,-0.2918,0.2754,0.2801,-0.283,0.8016,0.3339,-0.2053,0.1763,0.0266,-1.0,-1.0,-1.0,1.0,-1.0,-1.0,1.0,-1.0,1.0,-1.0,-1.0,-1.0,-1.0,-1.0,1.0,-1.0,1.0,1.0,0.0,0.0,0.0,0.0,0.0,0.0,0.0,0.0,0.0,0.3333,0.0,0.3333,0.0,0
3.84,run,9.85,7.42,-5.35,2.13,-8.28,0.0,0.05,0.0,0.643,11.78,-37.18,126.21,-25.66,-38.58,104.94,6.5,-54.58,113.55,7.82,-8.61,98.61,-34.72,13.01,60.82,8.09,6.5,61.44,1.59,-42.6,119.95,-20.0,-41.71,104.16,17.62,-59.8,122.95,-2.5,-11.36,89.43,-35.0,2.13,66.51,1.5,22.08,67.99,-1.0,-0.7243,-1.0,1.0,-1.0,-0.3768,1.0,-1.0,1.0,-1.0,-1.0,-1.0,-1.0,-1.0,1.0,-1.0,1.0,1.0,0.006,0.0,0.019,0.033,0.006,0.019,0.013,0.033,0.033,0.033,0.039,0.006,0.013,0.013,0.006,0.0,0.091,0.006,0.2178,-0.9511,0.8069,-0.474,-0.9511,0.4341,0.092,-1.2594,0.566,0.1641,-0.4633,0.3728,-0.6044,-0.0736,-0.3114,0.1319,-0.2178,-0.2869,0.0799,-0.2977,0.2359,0.2461,-0.1244,0.2965,0.1211,-0.2931,0.2637,-0.2806,0.2549,-0.295,-0.0033,-0.2504,-0.2616,0.2329,0.2764,-0.2554,0.7801,0.3607,-0.1044,0.1666,-0.063,-1.0,-0.9802,-1.0,1.0,-1.0,0.274,1.0,-1.0,1.0,-1.0,-1.0,-1.0,-1.0,-1.0,1.0,-1.0,1.0,1.0,0.0,0.0,0.0,0.0,0.0,0.0,0.0,0.0,0.0,0.3333,0.0,0.3333,0.0,0
3.88,run,9.54,7.22,-6.84,-4.8,-10.52,0.0,0.05,0.0,0.643,10.55,-38.58,126.21,-24.17,-39.64,106.0,8.09,-56.16,115.14,6.24,-8.09,97.03,-34.89,11.51,60.47,7.73,7.82,61.44,0.09,-44.1,118.45,-18.5,-43.21,102.66,19.12,-61.3,124.45,-4.0,-12.86,87.93,-35.0,0.63,68.01,0.0,23.58,69.49,-1.0,-0.5768,-1.0,1.0,-1.0,-0.0507,1.0,-1.0,1.0,-1.0,-1.0,-1.0,-1.0,-1.0,1.0,-1.0,1.0,1.0,0.006,0.0,0.019,0.033,0.006,0.019,0.013,0.033,0.033,0.033,0.039,0.006,0.013,0.013,0.006,0.0,0.091,0.006,0.204,-0.9787,0.8161,-0.4464,-0.9664,0.4587,0.1197,-1.2885,0.5952,0.1365,-0.4495,0.3436,-0.6044,-0.0982,-0.3191,0.1411,-0.1933,-0.2976,0.0109,-0.2984,0.1951,0.2623,-0.1371,0.2876,0.1748,-0.3002,0.2796,-0.2864,0.2234,-0.3015,-0.0023,-0.2553,-0.2081,0.1931,0.2735,-0.2138,0.7605,0.3685,-0.0934,0.0372,-0.1445,-1.0,-0.7243,-1.0,1.0,-1.0,-0.3768,1.0,-1.0,1.0,-1.0,-1.0,-1.0,-1.0,-1.0,1.0,-1.0,1.0,1.0,0.0,0.0,0.0,0.0,0.0,0.0,0.0,0.0,0.0,0.3333,0.0,0.3333,0.0,0
3.92,run,9.37,6.97,-3.73,-6.28,-16.93,0.0,0.05,0.0,0.643,9.23,-39.9,126.12,-22.76,-40.43,106.61,9.49,-57.57,116.54,4.75,-8.09,95.62,-34.89,10.2,60.82,7.29,9.14,61.44,-1.41,-45.6,116.95,-17.0,-44.71,101.16,20.62,-62.8,125.95,-5.5,-14.36,86.43,-35.0,-0.87,69.51,-1.5,25.08,70.99,-1.0,-0.3792,-1.0,1.0,-1.0,0.1717,1.0,-1.0,1.0,-1.0,-1.0,-1.0,-1.0,-1.0,1.0,-1.0,1.0,1.0,0.006,0.0,0.019,0.033,0.006,0.019,0.013,0.033,0.033,0.033,0.039,0.006,0.013,0.013,0.006,0.0,0.091,0.006,0.1825,-1.0032,0.8161,-0.4203,-0.9848,0.4771,0.1473,-1.3162,0.6228,0.1089,-0.4403,0.316,-0.6075,-0.1243,-0.3252,0.135,-0.1703,-0.2976,-0.0652,-0.2922,0.1366,0.2721,-0.1584,0.2638,0.2161,-0.3038,0.2894,-0.2942,0.1876,-0.3048,-0.012,-0.2672,-0.1665,0.1143,0.2695,-0.1497,0.7331,0.3505,-0.1194,-0.0837,-0.1837,-1.0,-0.5768,-1.0,1.0,-1.0,-0.0507,1.0,-1.0,1.0,-1.0,-1.0,-1.0,-1.0,-1.0,1.0,-1.0,1.0,1.0,0.0,0.0,0.0,0.0,0.0,0.0,0.0,0.0,0.0,0.3333,0.0,0.3333,0.0,0
3.96,run,8.97,6.42,-9.61,-12.48,-13.35,0.0,0.05,0.0,0.643,7.73,-41.31,125.51,-21.27,-41.13,106.96,10.9,-58.97,117.95,3.34,-8.09,94.22,-34.8,8.7,61.44,6.42,10.37,61.79,-2.91,-44.1,115.45,-15.5,-46.21,99.66,22.12,-64.3,127.45,-7.0,-15.86,84.93,-35.0,-2.37,71.01,-3.0,23.58,72.49,-1.0,0.0429,-1.0,1.0,-1.0,0.2816,1.0,-0.8173,1.0,-1.0,-1.0,-1.0,-1.0,-1.0,1.0,-1.0,0.7682,1.0,0.006,0.019,0.013,0.013,0.013,0.006,0.013,0.026,0.026,0.026,0.0,0.0,0.0,0.013,0.019,0.019,0.195,0.078,0.1595,-1.0262,0.8145,-0.3958,-0.9986,0.4878,0.1718,-1.3407,0.6473,0.0828,-0.4403,0.2915,-0.6075,-0.1473,-0.3191,0.1273,-0.1473,-0.2976,-0.13,-0.2889,0.09,0.2804,-0.1615,0.224,0.2412,-0.3026,0.2925,-0.3015,0.1313,-0.3033,-0.0084,-0.2713,-0.0941,0.0519,0.273,-0.1048,0.7183,0.3293,-0.0651,-0.1096,-0.2955,-1.0,-0.3792,-1.0,1.0,-1.0,0.1717,1.0,-1.0,1.0,-1.0,-1.0,-1.0,-1.0,-1.0,1.0,-1.0,1.0,1.0,0.0,0.0,0.0,0.0,0.0,0.0,0.0,0.0,0.0,0.3333,0.0,0.3333,0.0,0
4.0,run,8.83,6.09,-1.04,-4.1,-16.3,0.0,0.05,0.0,0.643,5.45,-42.63,123.66,-18.9,-43.33,106.44,13.27,-61.44,120.32,0.88,-9.23,92.11,-34.89,6.42,63.19,4.31,12.3,63.37,-4.41,-42.6,113.95,-14.0,-47.71,99.74,23.62,-62.8,128.95,-8.5,-17.36,83.43,-33.5,-3.87,72.51,-4.5,22.08,73.99,-1.0,0.5357,-1.0,1.0,-1.0,0.4088,1.0,-0.2872,1.0,-1.0,-0.7239,-1.0,-0.6251,-1.0,1.0,-1.0,-0.2225,1.0,0.006,0.019,0.013,0.013,0.013,0.006,0.013,0.026,0.026,0.026,0.0,0.0,0.0,0.013,0.019,0.019,0.195,0.078,0.1335,-1.0508,0.8038,-0.3697,-1.0109,0.4939,0.1963,-1.3652,0.6719,0.0583,-0.4403,0.2669,-0.6059,-0.1733,-0.3083,0.112,-0.1258,-0.2915,-0.1895,-0.2949,0.0224,0.2948,-0.1594,0.18,0.2615,-0.3046,0.2975,-0.3038,0.0919,-0.305,-0.0001,-0.2885,-0.0253,-0.0216,0.2722,-0.0502,0.6841,0.2814,-0.1677,-0.2179,-0.233,-1.0,0.0429,-1.0,1.0,-1.0,0.2816,1.0,-0.8173,1.0,-1.0,-1.0,-1.0,-1.0,-1.0,1.0,-1.0,0.7682,1.0,0.0,0.0,0.0,0.0,0.0,0.0,0.0,0.0,0.0,0.3333,0.0,0.3333,0.0,0
4.04,run,8.44,5.43,-10.66,-16.71,-29.06,0.0,0.05,0.0,0.643,4.04,-43.77,122.34,-17.67,-44.38,105.47,14.77,-62.58,121.73,-0.7,-10.28,90.35,-34.89,4.92,64.6,2.9,13.54,64.6,-5.91,-41.1,112.45,-12.5,-49.21,101.24,25.12,-61.3,130.45,-10.0,-18.86,81.93,-32.0,-5.37,74.01,-6.0,20.58,75.49,-1.0,1.0,-1.0,1.0,-1.0,0.4335,1.0,-0.0108,1.0,-1.0,-0.5559,-1.0,1.0,-0.6414,1.0,-1.0,-0.3061,1.0,0.013,0.019,0.013,0.019,0.033,0.013,0.013,0.006,0.026,0.013,0.006,0.006,0.013,0.006,0.019,0.006,0.312,0.104,0.0936,-1.0738,0.7716,-0.3283,-1.0492,0.4847,0.2378,-1.4082,0.7133,0.0153,-0.4602,0.2301,-0.6075,-0.2132,-0.2777,0.0752,-0.092,-0.2638,-0.2225,-0.2583,-0.0569,0.2997,-0.198,0.1052,0.2764,-0.31,0.3016,-0.3094,0.0194,-0.2965,-0.0035,-0.2918,0.0514,-0.0981,0.2666,0.0271,0.6711,0.2523,-0.0181,-0.0716,-0.2845,-1.0,0.5357,-1.0,1.0,-1.0,0.4088,1.0,-0.2872,1.0,-1.0,-0.7239,-1.0,-0.6251,-1.0,1.0,-1.0,-0.2225,1.0,0.0,0.0,0.0,0.0,0.0,0.0,0.0,0.0,0.0,0.3333,0.0,0.3333,0.0,0
4.08,run,7.97,4.44,-12.01,-24.6,-30.43,0.0,0.05,0.0,0.643,2.72,-44.38,121.29,-16.44,-45.53,104.33,16.08,-63.37,123.22,-2.29,-11.6,89.12,-34.54,3.43,66.09,1.41,14.59,65.83,-7.41,-39.6,110.95,-11.0,-50.71,102.74,26.62,-59.8,131.95,-11.5,-17.36,80.43,-30.5,-6.87,75.51,-7.5,19.08,76.99,-1.0,1.0,-1.0,1.0,-1.0,0.9313,1.0,1.0,1.0,-1.0,0.5372,-1.0,1.0,-0.9398,1.0,-1.0,-1.0,1.0,0.013,0.019,0.013,0.019,0.033,0.013,0.013,0.006,0.026,0.013,0.006,0.006,0.013,0.006,0.019,0.006,0.312,0.104,0.069,-1.0937,0.7486,-0.3068,-1.0677,0.4679,0.2638,-1.4281,0.7378,-0.0123,-0.4786,0.1994,-0.6075,-0.2393,-0.2531,0.0506,-0.0706,-0.2424,-0.2459,-0.254,-0.1243,0.2886,-0.2062,0.0117,0.2892,-0.2902,0.3012,-0.318,-0.054,-0.3201,-0.0025,-0.3,0.1261,-0.1588,0.2655,0.0978,0.6378,0.195,-0.186,-0.2917,-0.5072,-1.0,1.0,-1.0,1.0,-1.0,0.4335,1.0,-0.0108,1.0,-1.0,-0.5559,-1.0,1.0,-0.6414,1.0,-1.0,-0.3061,1.0,0.0,0.0,0.0,0.0,0.0,0.0,0.0,0.0,0.0,0.3333,0.0,0.3333,0.0,0
4.12,run,7.38,3.29,-16.49,-28.92,-25.78,0.0,0.05,0.0,0.643,1.23,-44.74,119.79,-15.03,-46.76,103.18,17.49,-63.9,124.63,-3.69,-13.01,87.71,-33.75,1.76,67.41,-0.09,15.64,67.06,-8.91,-38.1,109.45,-9.5,-52.21,104.24,28.12,-58.3,133.45,-13.0,-15.86,78.93,-29.0,-8.37,77.01,-9.0,17.58,78.49,-1.0,1.0,-1.0,1.0,-0.7611,1.0,1.0,1.0,1.0,-1.0,1.0,-1.0,1.0,-1.0,1.0,-1.0,-1.0,1.0,0.013,0.019,0.013,0.019,0.033,0.013,0.013,0.006,0.026,0.013,0.006,0.006,0.013,0.006,0.019,0.006,0.312,0.104,0.046,-1.1045,0.7302,-0.2853,-1.0876,0.4479,0.2869,-1.4419,0.7639,-0.0399,-0.5016,0.1779,-0.6013,-0.2654,-0.227,0.0245,-0.0522,-0.2209,-0.2591,-0.2184,-0.1566,0.2832,-0.2197,-0.0672,0.2895,-0.2553,0.3095,-0.327,-0.1248,-0.3053,0.0215,-0.3086,0.1869,-0.2097,0.2554,0.1497,0.5965,0.108,-0.2097,-0.4293,-0.5311,-1.0,1.0,-1.0,1.0,-1.0,0.9313,1.0,1.0,1.0,-1.0,0.5372,-1.0,1.0,-0.9398,1.0,-1.0,-1.0,1.0,0.0,0.0,0.0,0.0,0.0,0.0,0.0,0.0,0.0,0.3333,0.0,0.3333,0.0,0
4.16,run,6.94,2.16,-12.07,-28.74,-17.3,0.0,0.05,0.0,0.643,-0.09,-44.74,118.21,-13.62,-48.16,102.22,18.9,-64.16,126.04,-4.83,-14.33,86.22,-32.87,0.53,68.73,-1.49,16.35,68.38,-10.41,-36.6,107.95,-8.0,-50.71,105.74,29.62,-56.8,134.95,-14.5,-14.36,77.43,-27.5,-9.87,78.51,-10.5,16.08,79.99,-1.0,1.0,-1.0,1.0,0.0826,1.0,1.0,1.0,1.0,-1.0,1.0,-1.0,1.0,-0.8641,1.0,-1.0,-1.0,1.0,0.019,0.013,0.013,0.013,0.026,0.006,0.019,0.006,0.026,0.013,0.0,0.006,0.026,0.006,0.026,0.013,0.305,0.149,0.0199,-1.1106,0.7041,-0.2608,-1.1091,0.428,0.3114,-1.4511,0.7885,-0.0644,-0.5262,0.1534,-0.5875,-0.2945,-0.204,-0.0015,-0.0337,-0.1994,-0.2786,-0.1758,-0.2069,0.2898,-0.2339,-0.1214,0.2942,-0.2131,0.3081,-0.3204,-0.1789,-0.3052,0.0665,-0.3247,0.2166,-0.2441,0.2474,0.1849,0.5454,0.0079,-0.2878,-0.5047,-0.4499,-1.0,1.0,-1.0,1.0,-0.7611,1.0,1.0,1.0,1.0,-1.0,1.0,-1.0,1.0,-1.0,1.0,-1.0,-1.0,1.0,0.0,0.0,0.0,0.0,0.0,0.0,0.0,0.0,0.0,0.3333,0.0,0.3333,0.0,0
4.2,run,6.02,0.93,-16.88,-30.15,-13.72,0.0,0.05,0.0,0.643,-1.76,-44.47,116.63,-12.13,-49.48,101.6,20.39,-63.9,127.53,-6.5,-15.47,84.73,-31.46,-1.14,70.31,-2.9,17.05,69.79,-11.91,-35.1,106.45,-6.5,-49.21,107.24,31.12,-55.3,136.45,-16.0,-12.86,75.93,-26.0,-11.37,80.01,-12.0,14.58,81.49,-1.0,1.0,-1.0,1.0,0.3175,0.991,1.0,1.0,1.0,-1.0,1.0,-1.0,1.0,-0.0829,1.0,-1.0,-1.0,1.0,0.019,0.013,0.013,0.013,0.026,0.006,0.019,0.006,0.026,0.013,0.0,0.006,0.026,0.006,0.026,0.013,0.305,0.149,-0.0031,-1.1106,0.6765,-0.2362,-1.1336,0.4111,0.3359,-1.4557,0.813,-0.0844,-0.5492,0.1273,-0.5722,-0.316,-0.181,-0.0261,-0.0215,-0.1764,-0.2814,-0.123,-0.2484,0.2949,-0.2558,-0.1483,0.298,-0.1664,0.3078,-0.2991,-0.2115,-0.3115,0.1041,-0.3079,0.2379,-0.2629,0.2192,0.2157,0.5067,-0.0906,-0.2106,-0.5017,-0.3019,-1.0,1.0,-1.0,1.0,0.0826,1.0,1.0,1.0,1.0,-1.0,1.0,-1.0,1.0,-0.8641,1.0,-1.0,-1.0,1.0,0.0,0.0,0.0,0.0,0.0,0.0,0.0,0.0,0.0,0.3333,0.0,0.3333,0.0,0
4.24,run,5.52,-0.38,-11.21,-32.88,-5.68,0.0,0.05,0.0,0.643,-3.16,-43.68,115.14,-10.72,-50.54,101.34,21.88,-63.11,128.94,-7.82,-16.35,83.32,-30.15,-2.64,71.63,-4.13,17.23,71.19,-13.41,-33.6,104.95,-5.0,-47.71,108.74,32.62,-53.8,137.95,-17.5,-11.36,74.43,-24.5,-12.87,78.51,-13.5,13.08,82.99,-1.0,0.5147,-1.0,1.0,0.9341,1.0,1.0,1.0,1.0,-1.0,1.0,-1.0,1.0,-0.0169,-0.3263,-1.0,-1.0,1.0,0.019,0.013,0.013,0.013,0.026,0.006,0.019,0.006,0.026,0.013,0.0,0.006,0.026,0.006,0.026,0.013,0.305,0.149,-0.0322,-1.106,0.6489,-0.2102,-1.1566,0.4004,0.362,-1.4511,0.8391,-0.1135,-0.5691,0.1012,-0.5476,-0.3451,-0.1534,-0.0506,-0.0092,-0.1519,-0.2989,-0.07,-0.2705,0.2977,-0.2596,-0.1414,0.2998,-0.1004,0.3067,-0.3113,-0.2178,-0.3093,0.1587,-0.3175,0.2632,-0.2699,0.1964,0.2369,0.4263,-0.1982,-0.2946,-0.5262,-0.2395,-1.0,1.0,-1.0,1.0,0.3175,0.991,1.0,1.0,1.0,-1.0,1.0,-1.0,1.0,-0.0829,1.0,-1.0,-1.0,1.0,0.0,0.0,0.0,0.0,0.0,0.0,0.0,0.0,0.0,0.3333,0.0,0.3333,0.0,0
4.28,run,5.43,-1.29,-1.56,-22.57,-3.13,0.0,0.05,0.0,0.643,-4.57,-42.45,113.73,-9.32,-51.24,101.43,23.29,-62.23,130.34,-9.14,-16.88,81.83,-28.74,-3.96,73.04,-5.62,17.23,72.69,-14.91,-32.1,103.45,-3.5,-46.21,110.24,34.12,-52.3,136.45,-19.0,-9.86,72.93,-23.0,-11.37,77.01,-15.0,11.58,84.49,-1.0,-0.0206,-1.0,1.0,0.5872,1.0,1.0,1.0,0.4855,-1.0,1.0,-0.5757,1.0,1.0,-1.0,-1.0,-1.0,1.0,0.006,0.019,0.013,0.019,0.013,0.006,0.019,0.019,0.026,0.026,0.0,0.006,0.026,0.0,0.026,0.013,0.13,0.149,-0.0568,-1.0922,0.6228,-0.1856,-1.175,0.3958,0.3881,-1.4373,0.8636,-0.1365,-0.5844,0.0767,-0.5246,-0.3712,-0.1304,-0.0721,-0.0061,-0.1273,-0.2986,0.0012,-0.2842,0.2977,-0.2487,-0.1157,0.3048,-0.02,0.304,-0.3017,-0.2083,-0.3058,0.1948,-0.3171,0.2679,-0.2671,0.1486,0.2551,0.3826,-0.3126,-0.1957,-0.5739,-0.0991,-1.0,0.5147,-1.0,1.0,0.9341,1.0,1.0,1.0,1.0,-1.0,1.0,-1.0,1.0,-0.0169,-0.3263,-1.0,-1.0,1.0,0.0,0.0,0.0,0.0,0.0,0.0,0.0,0.0,0.0,0.3333,0.0,0.3333,0.0,0
4.32,run,5.31,-1.88,-1.88,-14.21,-8.98,0.0,0.05,0.0,0.643,-5.98,-41.13,112.24,-8.0,-51.59,102.04,24.7,-61.0,131.84,-10.55,-16.96,80.42,-27.33,-5.36,74.44,-6.94,17.23,74.18,-16.41,-30.6,101.95,-2.0,-47.71,111.74,35.0,-50.8,134.95,-17.5,-8.36,74.43,-21.5,-9.87,75.51,-16.5,10.08,85.99,-1.0,1.0,-1.0,1.0,-0.5621,1.0,1.0,1.0,-1.0,-0.4742,0.9179,0.2693,1.0,1.0,-1.0,-1.0,-1.0,1.0,0.006,0.019,0.013,0.019,0.013,0.006,0.019,0.019,0.026,0.026,0.0,0.006,0.026,0.0,0.026,0.013,0.13,0.149,-0.0813,-1.0707,0.5983,-0.1611,-1.1873,0.3973,0.4126,-1.422,0.8882,-0.1595,-0.5937,0.0506,-0.5001,-0.3942,-0.1058,-0.0982,-0.0061,-0.1012,-0.3025,0.0827,-0.2925,0.3019,-0.2208,-0.0751,0.3068,0.0444,0.3063,-0.2988,-0.1809,-0.3134,0.2299,-0.3097,0.2811,-0.2863,0.1041,0.2779,0.3746,-0.3921,-0.0273,-0.3939,-0.0547,-1.0,-0.0206,-1.0,1.0,0.5872,1.0,1.0,1.0,0.4855,-1.0,1.0,-0.5757,1.0,1.0,-1.0,-1.0,-1.0,1.0,0.0,0.0,0.0,0.0,0.0,0.0,0.0,0.0,0.0,0.3333,0.0,0.3333,0.0,0
4.36,run,5.1,-2.22,-4.93,-7.26,-16.3,0.0,0.05,0.0,0.643,-7.38,-39.73,110.92,-6.59,-51.68,103.1,26.1,-59.5,133.07,-11.95,-16.96,79.01,-25.84,-6.68,75.59,-8.35,17.14,75.59,-17.91,-29.1,100.45,-0.5,-49.21,113.24,35.0,-49.3,133.45,-16.0,-9.86,72.93,-20.0,-8.37,74.01,-18.0,8.58,87.49,-1.0,1.0,-1.0,1.0,-1.0,1.0,1.0,1.0,-1.0,-0.3013,-1.0,-0.0453,1.0,1.0,-0.0533,-1.0,-1.0,1.0,0.006,0.019,0.013,0.019,0.013,0.006,0.019,0.019,0.026,0.026,0.0,0.006,0.026,0.0,0.026,0.013,0.13,0.149,-0.1058,-1.0477,0.5722,-0.1381,-1.1934,0.408,0.4372,-1.4005,0.9143,-0.1841,-0.5952,0.0261,-0.4755,-0.4188,-0.0813,-0.1212,-0.0061,-0.0752,-0.306,0.1462,-0.3049,0.2997,-0.1781,-0.0114,0.3091,0.1136,0.3146,-0.3034,-0.1325,-0.3137,0.2552,-0.311,0.291,-0.2888,0.0728,0.2947,0.3646,-0.4436,-0.0328,-0.248,-0.1568,-1.0,1.0,-1.0,1.0,-0.5621,1.0,1.0,1.0,-1.0,-0.4742,0.9179,0.2693,1.0,1.0,-1.0,-1.0,-1.0,1.0,0.0,0.0,0.0,0.0,0.0,0.0,0.0,0.0,0.0,0.3333,0.0,0.3333,0.0,0
4.4,run,4.83,-2.25,-6.03,0.03,-23.59,0.0,0.05,0.0,0.643,-8.79,-38.32,109.51,-5.19,-51.68,104.24,27.51,-58.18,133.77,-13.27,-16.26,77.61,-24.35,-7.91,76.38,-9.84,16.17,76.9,-19.41,-27.6,98.95,1.0,-50.71,114.74,35.0,-47.8,131.95,-17.5,-11.36,74.43,-18.5,-6.87,75.51,-19.5,7.08,88.99,-1.0,1.0,-1.0,1.0,-1.0,1.0,1.0,1.0,-1.0,-0.7329,-1.0,1.0,1.0,1.0,0.4456,-1.0,-1.0,1.0,0.019,0.013,0.019,0.013,0.013,0.013,0.013,0.019,0.071,0.026,0.026,0.0,0.013,0.0,0.006,0.019,0.0,0.189,-0.1304,-1.0232,0.5492,-0.1135,-1.195,0.4264,0.4617,-1.3744,0.9357,-0.2086,-0.5952,0.0015,-0.4495,-0.4418,-0.0614,-0.1457,-0.0077,-0.0506,-0.3053,0.1935,-0.2988,0.3009,-0.1304,0.0604,0.3074,0.1763,0.2999,-0.3035,-0.0928,-0.3107,0.2754,-0.3031,0.2777,-0.2932,0.0453,0.2974,0.3463,-0.4733,-0.0861,-0.1268,-0.2844,-1.0,1.0,-1.0,1.0,-1.0,1.0,1.0,1.0,-1.0,-0.3013,-1.0,-0.0453,1.0,1.0,-0.0533,-1.0,-1.0,1.0,0.0,0.0,0.0,0.0,0.0,0.0,0.0,0.0,0.0,0.3333,0.0,0.3333,0.0,0
4.44,run,4.68,-1.86,-2.94,8.9,-24.9,0.0,0.05,0.0,0.643,-10.2,-36.91,108.02,-3.78,-51.06,105.64,28.92,-56.69,134.21,-14.5,-15.38,76.2,-22.94,-8.61,76.82,-11.43,14.85,78.31,-20.91,-26.1,97.45,2.5,-52.21,116.24,35.0,-46.3,130.45,-19.0,-12.86,75.93,-17.0,-5.37,77.01,-21.0,5.58,90.49,-1.0,1.0,-1.0,0.9998,-0.9299,1.0,1.0,1.0,-1.0,-0.9794,-1.0,0.5634,1.0,1.0,0.9691,-1.0,-1.0,1.0,0.019,0.013,0.019,0.013,0.013,0.013,0.013,0.019,0.071,0.026,0.026,0.0,0.013,0.0,0.006,0.019,0.0,0.189,-0.1549,-0.9986,0.5246,-0.089,-1.195,0.4464,0.4863,-1.3514,0.948,-0.2316,-0.5829,-0.023,-0.4234,-0.4633,-0.0476,-0.1718,-0.0245,-0.0276,-0.3054,0.2271,-0.3009,0.3023,-0.0913,0.1168,0.3069,0.2094,0.2558,-0.2984,-0.0191,-0.3091,0.2902,-0.2924,0.246,-0.3027,-0.0313,0.2941,0.3222,-0.4756,-0.1052,0.0006,-0.4116,-1.0,1.0,-1.0,1.0,-1.0,1.0,1.0,1.0,-1.0,-0.7329,-1.0,1.0,1.0,1.0,0.4456,-1.0,-1.0,1.0,0.0,0.0,0.0,0.0,0.0,0.0,0.0,0.0,0.0,0.3333,0.0,0.3333,0.0,0
4.48,run,4.73,-1.38,1.8,11.94,-20.05,0.0,0.05,0.0,0.643,-11.6,-35.33,106.61,-2.29,-50.62,107.05,30.32,-55.28,134.38,-15.73,-14.24,75.23,-21.53,-9.32,76.9,-12.83,13.62,79.63,-22.41,-24.6,95.95,4.0,-53.71,117.74,35.0,-44.8,128.95,-20.5,-14.36,77.43,-15.5,-3.87,78.51,-22.5,4.08,91.99,-1.0,1.0,-1.0,1.0,-0.9327,1.0,1.0,1.0,-1.0,-1.0,-1.0,0.542,1.0,1.0,1.0,-1.0,-1.0,1.0,0.019,0.013,0.019,0.013,0.013,0.013,0.013,0.019,0.071,0.026,0.026,0.0,0.013,0.0,0.006,0.019,0.0,0.189,-0.1795,-0.9741,0.4985,-0.0644,-1.1842,0.4709,0.5108,-1.3254,0.9557,-0.2531,-0.5676,-0.0476,-0.3988,-0.4755,-0.0399,-0.1994,-0.0476,-0.0031,-0.306,0.2512,-0.3086,0.3038,-0.0236,0.1739,0.307,0.2445,0.2079,-0.2896,0.0443,-0.3086,0.2953,-0.2508,0.201,-0.3156,-0.1084,0.2981,0.309,-0.4416,-0.0513,0.1554,-0.4346,-1.0,1.0,-1.0,0.9998,-0.9299,1.0,1.0,1.0,-1.0,-0.9794,-1.0,0.5634,1.0,1.0,0.9691,-1.0,-1.0,1.0,0.0,0.0,0.0,0.0,0.0,0.0,0.0,0.0,0.0,0.3333,0.0,0.3333,0.0,0
4.52,run,4.44,-1.13,-6.35,5.92,-20.16,0.0,0.05,0.0,0.643,-13.01,-34.01,105.21,-0.88,-50.62,108.54,31.64,-53.88,134.47,-17.14,-13.36,74.53,-20.04,-9.67,76.99,-14.24,12.13,81.12,-23.91,-23.1,94.45,5.5,-55.21,119.24,35.0,-43.3,127.45,-22.0,-15.86,78.93,-14.0,-2.37,80.01,-24.0,2.58,93.49,-1.0,1.0,-1.0,0.6466,-1.0,1.0,1.0,1.0,-1.0,-1.0,-1.0,0.4127,1.0,1.0,1.0,-1.0,-1.0,1.0,0.006,0.006,0.006,0.019,0.013,0.013,0.013,0.013,0.058,0.033,0.026,0.0,0.019,0.0,0.019,0.013,0.0,0.169,-0.204,-0.9465,0.474,-0.0383,-1.1766,0.4955,0.5354,-1.3008,0.9587,-0.2746,-0.5476,-0.0644,-0.3743,-0.4878,-0.0383,-0.224,-0.069,0.0199,-0.3059,0.279,-0.3077,0.3101,0.0122,0.2135,0.3067,0.2629,0.157,-0.283,0.1055,-0.2791,0.2985,-0.2214,0.1464,-0.3127,-0.1561,0.2947,0.3139,-0.3999,0.0315,0.2084,-0.35,-1.0,1.0,-1.0,1.0,-0.9327,1.0,1.0,1.0,-1.0,-1.0,-1.0,0.542,1.0,1.0,1.0,-1.0,-1.0,1.0,0.0,0.0,0.0,0.0,0.0,0.0,0.0,0.0,0.0,0.3333,0.0,0.3333,0.0,0
4.56,run,4.52,-0.49,2.29,13.69,-11.83,0.0,0.05,0.0,0.643,-14.68,-32.43,103.54,0.7,-50.71,110.13,32.96,-52.29,134.47,-18.63,-12.66,74.36,-18.46,-9.76,77.78,-15.82,10.46,82.71,-25.41,-21.6,92.95,4.0,-56.71,120.74,35.0,-41.8,125.95,-23.5,-17.36,80.43,-12.5,-0.87,81.51,-25.5,1.08,94.99,-1.0,1.0,-1.0,-0.5818,-0.8324,1.0,1.0,1.0,-1.0,-1.0,-1.0,0.5413,1.0,1.0,1.0,-1.0,-1.0,1.0,0.006,0.006,0.006,0.019,0.013,0.013,0.013,0.013,0.058,0.033,0.026,0.0,0.019,0.0,0.019,0.013,0.0,0.169,-0.2286,-0.9235,0.4495,-0.0138,-1.1766,0.5216,0.5584,-1.2763,0.9603,-0.2991,-0.5323,-0.0767,-0.3482,-0.4939,-0.0368,-0.2485,-0.0951,0.046,-0.3057,0.2811,-0.3069,0.3086,0.0085,0.2467,0.3005,0.2755,0.1156,-0.2896,0.1311,-0.2411,0.3062,-0.1779,0.1082,-0.3104,-0.2065,0.3035,0.2884,-0.3778,-0.1108,0.1033,-0.3518,-1.0,1.0,-1.0,0.6466,-1.0,1.0,1.0,1.0,-1.0,-1.0,-1.0,0.4127,1.0,1.0,1.0,-1.0,-1.0,1.0,0.0,0.0,0.0,0.0,0.0,0.0,0.0,0.0,0.0,0.3333,0.0,0.3333,0.0,0
4.6,run,4.76,0.07,8.0,16.43,-12.24,0.0,0.05,0.0,0.643,-15.91,-31.2,102.3,1.85,-51.42,111.36,33.66,-51.15,134.47,-19.78,-12.3,74.27,-17.31,-9.4,78.57,-16.96,9.32,83.85,-23.91,-20.1,91.45,2.5,-58.21,122.24,35.0,-40.3,124.45,-25.0,-18.86,81.93,-11.0,0.63,83.01,-27.0,-0.42,96.49,-0.1702,1.0,-0.8776,-1.0,-1.0,1.0,1.0,1.0,-1.0,-1.0,-1.0,1.0,1.0,1.0,1.0,-1.0,-1.0,1.0,0.006,0.006,0.006,0.019,0.013,0.013,0.013,0.013,0.058,0.033,0.026,0.0,0.019,0.0,0.019,0.013,0.0,0.169,-0.2577,-0.8958,0.4203,0.0138,-1.1781,0.5492,0.5814,-1.2487,0.9603,-0.3252,-0.52,-0.0798,-0.3206,-0.4955,-0.023,-0.2761,-0.1243,0.0736,-0.3098,0.2875,-0.3106,0.3068,0.0009,0.2634,0.2859,0.2836,0.0809,-0.2884,0.1321,-0.1789,0.3051,-0.1296,0.1211,-0.308,-0.2404,0.3032,0.2952,-0.3221,0.04,0.239,-0.2065,-1.0,1.0,-1.0,-0.5818,-0.8324,1.0,1.0,1.0,-1.0,-1.0,-1.0,0.5413,1.0,1.0,1.0,-1.0,-1.0,1.0,0.0,0.0,0.0,0.0,0.0,0.0,0.0,0.0,0.0,0.3333,0.0,0.3333,0.0,0
4.64,run,5.19,0.6,12.08,13.29,-14.43,0.0,0.05,0.0,0.643,-17.23,-29.79,100.99,2.99,-52.38,112.76,34.28,-49.83,133.95,-21.27,-12.22,74.62,-15.91,-8.44,79.72,-18.28,7.82,85.25,-22.41,-18.6,89.95,1.0,-59.71,123.74,35.0,-38.8,122.95,-26.5,-20.36,83.43,-9.5,2.13,84.51,-28.5,-1.92,97.99,1.0,1.0,0.0137,-1.0,-1.0,1.0,1.0,1.0,-1.0,-0.9358,-1.0,1.0,1.0,1.0,0.974,-1.0,-1.0,1.0,0.006,0.0,0.013,0.006,0.019,0.013,0.006,0.026,0.006,0.019,0.0,0.019,0.013,0.019,0.026,0.026,0.0,0.189,-0.2792,-0.8744,0.3988,0.0337,-1.1904,0.5706,0.5937,-1.2287,0.9603,-0.3451,-0.5139,-0.0813,-0.3007,-0.4893,-0.0092,-0.2961,-0.1442,0.0936,-0.3126,0.297,-0.3132,0.3037,-0.0541,0.2801,0.2549,0.2875,0.0566,-0.2908,0.1198,-0.132,0.3025,-0.0633,0.1463,-0.3045,-0.2572,0.3012,0.3164,-0.2732,0.1396,0.2868,-0.2137,-0.1702,1.0,-0.8776,-1.0,-1.0,1.0,1.0,1.0,-1.0,-1.0,-1.0,1.0,1.0,1.0,1.0,-1.0,-1.0,1.0,0.0,0.0,0.0,0.0,0.0,0.0,0.0,0.0,0.0,0.3333,0.0,0.3333,0.0,0
4.68,run,5.73,0.9,13.97,7.04,-16.19,0.0,0.05,0.0,0.643,-18.72,-28.39,99.49,3.87,-53.7,114.26,34.63,-48.52,133.15,-22.68,-12.22,75.41,-14.5,-7.65,81.04,-19.69,6.59,86.75,-20.91,-17.1,91.45,-0.5,-61.21,122.24,35.0,-37.3,121.45,-25.0,-21.86,84.93,-8.0,3.63,83.01,-30.0,-3.42,99.49,1.0,1.0,0.7057,-1.0,-1.0,0.5887,1.0,0.0958,-1.0,0.1668,-1.0,1.0,1.0,1.0,-0.5715,-1.0,-1.0,1.0,0.006,0.0,0.013,0.006,0.019,0.013,0.006,0.026,0.006,0.019,0.0,0.019,0.013,0.019,0.026,0.026,0.0,0.189,-0.3022,-0.8498,0.3758,0.0537,-1.2072,0.5952,0.6044,-1.2057,0.9511,-0.3712,-0.5123,-0.0752,-0.2761,-0.4725,0.0107,-0.3191,-0.1703,0.1181,-0.3038,0.2986,-0.3043,0.2862,-0.1002,0.2868,0.2181,0.2862,0.0056,-0.2999,0.0895,-0.0698,0.3024,0.018,0.1761,-0.2982,-0.2764,0.3015,0.3543,-0.2268,0.2108,0.2319,-0.2519,1.0,1.0,0.0137,-1.0,-1.0,1.0,1.0,1.0,-1.0,-0.9358,-1.0,1.0,1.0,1.0,0.974,-1.0,-1.0,1.0,0.0,0.0,0.0,0.0,0.0,0.0,0.0,0.0,0.0,0.3333,0.0,0.3333,0.0,0
4.72,run,6.18,1.05,11.62,3.86,-13.39,0.0,0.05,0.0,0.643,-20.04,-26.98,98.0,4.57,-55.11,115.66,34.63,-47.2,132.28,-24.08,-12.83,76.46,-13.1,-6.42,82.27,-21.09,5.1,88.24,-19.41,-15.6,92.95,-2.0,-62.71,120.74,35.0,-35.8,119.95,-23.5,-23.36,86.43,-6.5,5.13,81.51,-31.5,-4.92,100.99,1.0,1.0,1.0,-1.0,-1.0,-0.543,1.0,-0.1206,-1.0,1.0,-1.0,1.0,1.0,1.0,-1.0,-1.0,-1.0,0.8383,0.006,0.0,0.013,0.006,0.019,0.013,0.006,0.026,0.006,0.019,0.0,0.019,0.013,0.019,0.026,0.026,0.0,0.189,-0.3283,-0.8253,0.3497,0.069,-1.2303,0.6213,0.6105,-1.1827,0.9373,-0.3958,-0.5123,-0.0614,-0.2516,-0.4587,0.0337,-0.3436,-0.1917,0.1442,-0.3102,0.3008,-0.3105,0.2577,-0.1562,0.2983,0.1756,0.2864,-0.0477,-0.3017,0.0627,0.0028,0.3035,0.0642,0.2093,-0.3005,-0.2738,0.3086,0.4012,-0.201,0.2438,0.1229,-0.2825,1.0,1.0,0.7057,-1.0,-1.0,0.5887,1.0,0.0958,-1.0,0.1668,-1.0,1.0,1.0,1.0,-0.5715,-1.0,-1.0,1.0,0.0,0.0,0.0,0.0,0.0,0.0,0.0,0.0,0.0,0.3333,0.0,0.3333,0.0,0
4.76,run,6.71,1.45,13.78,10.44,-6.1,0.0,0.05,0.0,0.643,-21.09,-25.58,96.59,4.75,-56.6,117.07,34.72,-45.79,130.78,-25.14,-13.54,77.87,-11.78,-5.01,83.06,-22.59,3.69,89.82,-17.91,-14.1,94.45,-3.5,-64.21,119.24,35.0,-34.3,118.45,-22.0,-24.86,87.93,-5.0,6.63,80.01,-33.0,-6.42,99.49,1.0,1.0,1.0,-1.0,-1.0,-1.0,1.0,-0.1058,-1.0,1.0,-1.0,1.0,0.2229,1.0,-1.0,-1.0,-1.0,-1.0,0.0,0.013,0.006,0.0,0.019,0.006,0.006,0.039,0.026,0.006,0.033,0.013,0.026,0.058,0.026,0.026,0.0,0.143,-0.3513,-0.8007,0.3237,0.0813,-1.2548,0.6458,0.6105,-1.1597,0.9219,-0.4203,-0.5231,-0.043,-0.227,-0.4372,0.0552,-0.3682,-0.2178,0.1703,-0.3035,0.3027,-0.3152,0.2265,-0.2015,0.3009,0.1229,0.2869,-0.091,-0.3033,0.0036,0.0711,0.3046,0.1256,0.2271,-0.3025,-0.2895,0.3139,0.4404,-0.1872,0.2028,0.0674,-0.2336,1.0,1.0,1.0,-1.0,-1.0,-0.543,1.0,-0.1206,-1.0,1.0,-1.0,1.0,1.0,1.0,-1.0,-1.0,-1.0,0.8383,0.0,0.0,0.0,0.0,0.0,0.0,0.0,0.0,0.0,0.3333,0.0,0.3333,0.0,0
4.8,run,7.33,2.21,16.12,17.38,0.74,0.0,0.05,0.0,0.643,-21.88,-24.17,95.1,4.75,-58.01,118.39,34.72,-44.38,129.46,-25.84,-15.12,79.37,-10.37,-3.78,83.67,-23.99,2.29,91.32,-16.41,-15.6,95.95,-5.0,-65.71,117.74,35.0,-35.8,116.95,-20.5,-26.36,89.43,-6.5,8.13,78.51,-34.5,-7.92,97.99,1.0,-0.1336,1.0,-1.0,-1.0,-1.0,1.0,-1.0,-1.0,1.0,-1.0,1.0,-1.0,1.0,-1.0,-1.0,-1.0,-1.0,0.0,0.013,0.006,0.0,0.019,0.006,0.006,0.039,0.026,0.006,0.033,0.013,0.026,0.058,0.026,0.026,0.0,0.143,-0.3697,-0.7762,0.2991,0.0844,-1.2809,0.6703,0.6121,-1.1351,0.8958,-0.4387,-0.5354,-0.0184,-0.204,-0.4126,0.069,-0.3942,-0.2424,0.1979,-0.2818,0.3043,-0.3131,0.1701,-0.2393,0.3031,0.0918,0.2933,-0.1619,-0.2817,-0.0437,0.1422,0.2999,0.1804,0.211,-0.31,-0.2951,0.3237,0.4864,-0.1526,0.2405,0.1822,-0.1064,1.0,1.0,1.0,-1.0,-1.0,-1.0,1.0,-0.1058,-1.0,1.0,-1.0,1.0,0.2229,1.0,-1.0,-1.0,-1.0,-1.0,0.0,0.0,0.0,0.0,0.0,0.0,0.0,0.0,0.0,0.3333,0.0,0.3333,0.0,0
4.84,run,7.94,2.89,16.63,17.43,-0.76,0.0,0.05,0.0,0.643,-22.24,-23.47,94.22,4.57,-59.41,119.44,34.72,-42.89,128.06,-26.37,-16.44,80.86,-9.05,-2.37,83.94,-25.22,0.97,92.9,-14.91,-17.1,97.45,-6.5,-67.21,116.24,35.0,-37.3,115.45,-19.0,-27.86,90.93,-8.0,9.63,77.01,-33.0,-9.42,96.49,1.0,-0.5714,1.0,-1.0,-1.0,-1.0,1.0,-1.0,-1.0,1.0,-1.0,1.0,-1.0,1.0,-1.0,-0.4385,-1.0,-1.0,0.0,0.013,0.006,0.0,0.019,0.006,0.006,0.039,0.026,0.006,0.033,0.013,0.026,0.058,0.026,0.026,0.0,0.143,-0.3835,-0.7517,0.273,0.0844,-1.3054,0.6934,0.6121,-1.1106,0.8728,-0.451,-0.563,0.0077,-0.1795,-0.3912,0.0798,-0.4188,-0.2669,0.224,-0.2487,0.3046,-0.3164,0.1191,-0.259,0.298,0.0643,0.2968,-0.1991,-0.2429,-0.1336,0.1968,0.3014,0.2063,0.1877,-0.3085,-0.2981,0.3239,0.5408,-0.0866,0.2814,0.3033,0.0128,1.0,-0.1336,1.0,-1.0,-1.0,-1.0,1.0,-1.0,-1.0,1.0,-1.0,1.0,-1.0,1.0,-1.0,-1.0,-1.0,-1.0,0.0,0.0,0.0,0.0,0.0,0.0,0.0,0.0,0.0,0.3333,0.0,0.3333,0.0,0
4.88,run,8.54,2.91,14.86,-0.64,-6.46,0.0,0.05,0.0,0.643,-22.24,-21.71,93.6,3.78,-60.82,120.15,34.72,-41.48,126.65,-26.46,-17.84,82.27,-7.91,-1.05,83.94,-26.81,-0.35,94.22,-13.41,-18.6,98.95,-8.0,-68.71,114.74,33.5,-38.8,113.95,-17.5,-29.36,92.43,-9.5,11.13,75.51,-31.5,-10.92,94.99,1.0,-0.7174,1.0,-1.0,-1.0,-1.0,0.674,-1.0,-1.0,1.0,-1.0,1.0,-1.0,1.0,-1.0,0.3924,-1.0,-1.0,0.0,0.013,0.0,0.013,0.019,0.0,0.0,0.019,0.033,0.006,0.019,0.013,0.019,0.078,0.006,0.026,0.0,0.065,-0.3896,-0.7394,0.2577,0.0813,-1.33,0.7118,0.6121,-1.0845,0.8483,-0.4602,-0.586,0.0337,-0.1565,-0.3666,0.0844,-0.4403,-0.2899,0.2516,-0.1971,0.2592,-0.2791,0.0718,-0.2734,0.2776,0.045,0.3056,-0.2315,-0.2046,-0.1798,0.2356,0.2973,0.2365,0.1487,-0.2965,-0.295,0.3303,0.5937,-0.0274,0.2903,0.3042,-0.0133,1.0,-0.5714,1.0,-1.0,-1.0,-1.0,1.0,-1.0,-1.0,1.0,-1.0,1.0,-1.0,1.0,-1.0,-0.4385,-1.0,-1.0,0.0,0.0,0.0,0.0,0.0,0.0,0.0,0.0,0.0,0.3333,0.0,0.3333,0.0,0
4.92,run,8.94,3.28,10.73,10.34,-4.0,0.0,0.05,0.0,0.643,-21.97,-20.39,93.16,2.37,-62.23,120.59,34.72,-40.17,125.24,-26.28,-19.16,83.76,-7.21,0.26,83.41,-28.3,-1.58,95.36,-11.91,-20.1,100.45,-9.5,-70.21,113.24,32.0,-40.3,112.45,-16.0,-30.86,93.93,-11.0,12.63,74.01,-30.0,-12.42,93.49,1.0,-1.0,1.0,-1.0,-1.0,-1.0,0.0812,-1.0,-1.0,1.0,-1.0,1.0,-1.0,1.0,-1.0,1.0,-1.0,-1.0,0.0,0.013,0.0,0.013,0.019,0.0,0.0,0.019,0.033,0.006,0.019,0.013,0.019,0.078,0.006,0.026,0.0,0.065,-0.3896,-0.7087,0.247,0.0675,-1.3545,0.724,0.6121,-1.06,0.8237,-0.4617,-0.6105,0.0583,-0.1365,-0.3436,0.0844,-0.4679,-0.3129,0.2746,-0.138,0.2961,-0.2355,-0.0013,-0.2831,0.2402,0.0315,0.3056,-0.2537,-0.1489,-0.2176,0.2566,0.2826,0.2515,0.1041,-0.3107,-0.2925,0.3172,0.6462,-0.0256,0.2593,-0.0111,-0.1127,1.0,-0.7174,1.0,-1.0,-1.0,-1.0,0.674,-1.0,-1.0,1.0,-1.0,1.0,-1.0,1.0,-1.0,0.3924,-1.0,-1.0,0.0,0.0,0.0,0.0,0.0,0.0,0.0,0.0,0.0,0.3333,0.0,0.3333,0.0,0
4.96,run,9.26,3.46,7.85,5.74,-2.34,0.0,0.05,0.0,0.643,-21.18,-19.42,93.16,0.97,-63.63,120.5,34.63,-39.11,123.84,-25.05,-20.65,85.08,-6.86,1.67,82.44,-29.44,-2.9,96.15,-10.41,-21.6,101.95,-11.0,-71.71,111.74,30.5,-41.8,110.95,-14.5,-32.36,95.43,-12.5,14.13,72.51,-28.5,-13.92,91.99,1.0,-1.0,1.0,-1.0,-1.0,-1.0,-0.1986,-1.0,-1.0,1.0,-1.0,1.0,-1.0,1.0,-1.0,1.0,-0.9927,-1.0,0.0,0.013,0.0,0.013,0.019,0.0,0.0,0.019,0.033,0.006,0.019,0.013,0.019,0.078,0.006,0.026,0.0,0.065,-0.385,-0.6857,0.2393,0.043,-1.379,0.7317,0.6121,-1.037,0.7992,-0.4587,-0.6335,0.0844,-0.1243,-0.3206,0.0752,-0.4939,-0.3344,0.2945,-0.0793,0.2939,-0.1937,-0.0933,-0.2905,0.197,0.022,0.3006,-0.27,-0.0927,-0.2389,0.2778,0.244,0.2627,0.0382,-0.3157,-0.2856,0.2971,0.6808,0.0073,0.1872,0.1805,-0.0698,1.0,-1.0,1.0,-1.0,-1.0,-1.0,0.0812,-1.0,-1.0,1.0,-1.0,1.0,-1.0,1.0,-1.0,1.0,-1.0,-1.0,0.0,0.0,0.0,0.0,0.0,0.0,0.0,0.0,0.0,0.3333,0.0,0.3333,0.0,0
5.0,run,9.48,3.48,4.92,-0.84,0.99,0.0,0.05,0.0,0.643,-20.21,-18.72,93.34,-0.44,-65.13,120.06,34.01,-38.41,122.52,-24.26,-22.06,86.57,-6.68,3.08,81.3,-30.32,-4.22,96.77,-8.91,-23.1,103.45,-12.5,-70.21,110.24,29.0,-43.3,109.45,-13.0,-33.86,96.93,-14.0,15.63,71.01,-27.0,-15.42,90.49,1.0,-1.0,1.0,-1.0,-0.3337,-1.0,-0.5572,-1.0,-1.0,1.0,-1.0,1.0,-1.0,1.0,-1.0,1.0,-1.0,-1.0,0.019,0.026,0.019,0.019,0.019,0.019,0.013,0.006,0.026,0.026,0.019,0.013,0.0,0.117,0.006,0.013,0.0,0.019,-0.3712,-0.6688,0.2393,0.0184,-1.4036,0.7302,0.6105,-1.0186,0.7747,-0.4372,-0.6596,0.1074,-0.1181,-0.2961,0.0583,-0.5139,-0.3574,0.3083,-0.0034,0.2694,-0.1356,-0.158,-0.296,0.1321,0.0096,0.2799,-0.2817,0.0162,-0.2657,0.2813,0.194,0.2765,-0.0369,-0.2963,-0.2868,0.2601,0.7091,0.0228,0.137,0.1001,-0.0409,1.0,-1.0,1.0,-1.0,-1.0,-1.0,-0.1986,-1.0,-1.0,1.0,-1.0,1.0,-1.0,1.0,-1.0,1.0,-0.9927,-1.0,0.0,0.0,0.0,0.0,0.0,0.0,0.0,0.0,0.0,0.3333,0.0,0.3333,0.0,0
5.04,run,9.85,3.64,10.66,2.81,8.19,0.0,0.048,0.0,0.643,-18.98,-18.37,94.04,-1.85,-66.53,119.09,32.78,-37.88,120.94,-22.85,-23.47,87.98,-6.86,4.39,79.89,-30.94,-5.45,96.86,-7.41,-24.6,104.95,-14.0,-68.71,108.74,27.5,-44.8,107.95,-11.5,-35.36,98.43,-15.5,17.13,69.51,-25.5,-16.92,88.99,1.0,-1.0,1.0,-1.0,0.3517,-1.0,-1.0,-0.4192,-1.0,1.0,-1.0,1.0,-1.0,1.0,-1.0,1.0,-1.0,-1.0,0.019,0.026,0.019,0.019,0.019,0.019,0.013,0.006,0.026,0.026,0.019,0.013,0.0,0.117,0.006,0.013,0.0,0.019,-0.3543,-0.6565,0.2424,-0.0061,-1.4297,0.7225,0.5998,-1.0063,0.7517,-0.4234,-0.6842,0.1335,-0.115,-0.2715,0.0383,-0.5292,-0.3804,0.3191,0.0607,0.2345,-0.0834,-0.2023,-0.3047,0.0638,-0.0334,0.2418,-0.2832,0.0629,-0.2778,0.2944,0.1473,0.2853,-0.1004,-0.2647,-0.2868,0.2222,0.7283,0.0241,0.0859,-0.0146,0.0174,1.0,-1.0,1.0,-1.0,-0.3337,-1.0,-0.5572,-1.0,-1.0,1.0,-1.0,1.0,-1.0,1.0,-1.0,1.0,-1.0,-1.0,0.0,0.0,0.0,0.0,0.0,0.0,0.0,0.0,0.0,0.32,0.0,0.32,0.0,0
5.08,run,10.13,3.77,6.54,4.1,8.38,0.0,0.046,0.0,0.643,-17.75,-18.19,95.01,-3.25,-67.68,118.12,31.46,-37.88,119.62,-21.45,-24.87,89.38,-7.29,5.8,78.49,-31.29,-6.77,96.86,-5.91,-26.1,106.45,-15.5,-67.21,107.24,26.0,-46.3,106.45,-10.0,-36.86,99.93,-17.0,18.63,68.01,-24.0,-18.42,87.49,1.0,-1.0,1.0,-1.0,0.8445,-1.0,-1.0,-1.0,-1.0,1.0,-1.0,1.0,-1.0,1.0,-1.0,1.0,-0.8279,-1.0,0.019,0.026,0.019,0.019,0.019,0.019,0.013,0.006,0.026,0.026,0.019,0.013,0.0,0.117,0.006,0.013,0.0,0.019,-0.3329,-0.6504,0.2546,-0.0307,-1.4542,0.7056,0.5783,-0.9971,0.724,-0.3988,-0.7087,0.158,-0.1181,-0.2485,0.0138,-0.54,-0.4019,0.3206,0.1227,0.1871,-0.0126,-0.2333,-0.305,-0.0184,-0.1036,0.2036,-0.3014,0.1358,-0.2861,0.2978,0.0916,0.2857,-0.162,-0.2254,-0.281,0.1613,0.7609,0.0389,0.1861,0.0491,0.143,1.0,-1.0,1.0,-1.0,0.3517,-1.0,-1.0,-0.4192,-1.0,1.0,-1.0,1.0,-1.0,1.0,-1.0,1.0,-1.0,-1.0,0.0,0.0,0.0,0.0,0.0,0.0,0.0,0.0,0.0,0.3067,0.0,0.3067,0.0,0
5.12,run,10.34,3.85,5.92,2.22,7.65,0.0,0.044,0.0,0.643,-16.44,-18.19,96.24,-4.66,-68.73,116.72,30.06,-38.14,118.12,-20.13,-26.28,90.79,-8.44,7.12,77.08,-31.03,-8.0,96.33,-4.41,-27.6,107.95,-17.0,-65.71,105.74,24.5,-47.8,104.95,-8.5,-38.36,101.43,-18.5,20.13,66.51,-22.5,-19.92,85.99,0.892,-1.0,1.0,-1.0,1.0,-1.0,-1.0,-0.6822,-1.0,1.0,-1.0,1.0,-1.0,1.0,-1.0,1.0,-0.569,-1.0,0.039,0.0,0.045,0.013,0.013,0.013,0.013,0.019,0.019,0.013,0.019,0.006,0.006,0.156,0.0,0.006,0.019,0.013,-0.3114,-0.6473,0.2715,-0.0552,-1.4742,0.6888,0.5553,-0.9971,0.701,-0.3743,-0.7332,0.1825,-0.1258,-0.224,-0.0107,-0.5461,-0.4249,0.3206,0.1671,0.1425,0.055,-0.2561,-0.2888,-0.0766,-0.1595,0.1426,-0.2979,0.1878,-0.293,0.3012,0.0352,0.2927,-0.2061,-0.181,-0.2836,0.1129,0.7849,0.0497,0.1142,0.0716,0.1462,1.0,-1.0,1.0,-1.0,0.8445,-1.0,-1.0,-1.0,-1.0,1.0,-1.0,1.0,-1.0,1.0,-1.0,1.0,-0.8279,-1.0,0.0,0.0,0.0,0.0,0.0,0.0,0.0,0.0,0.0,0.2933,0.0,0.2933,0.0,0
