t_s,phase,roll_deg,pitch_deg,gyro_x_dps,gyro_y_dps,gyro_z_dps,height_ref_mm,vx_ref_mps,vy_ref_mps,max_cur_a,q0_deg,q1_deg,q2_deg,q3_deg,q4_deg,q5_deg,q6_deg,q7_deg,q8_deg,q9_deg,q10_deg,q11_deg,q12_deg,q13_deg,q14_deg,q15_deg,q16_deg,q17_deg,cmd0_deg,cmd1_deg,cmd2_deg,cmd3_deg,cmd4_deg,cmd5_deg,cmd6_deg,cmd7_deg,cmd8_deg,cmd9_deg,cmd10_deg,cmd11_deg,cmd12_deg,cmd13_deg,cmd14_deg,cmd15_deg,cmd16_deg,cmd17_deg,act0,act1,act2,act3,act4,act5,act6,act7,act8,act9,act10,act11,act12,act13,act14,act15,act16,act17,cur0_a,cur1_a,cur2_a,cur3_a,cur4_a,cur5_a,cur6_a,cur7_a,cur8_a,cur9_a,cur10_a,cur11_a,cur12_a,cur13_a,cur14_a,cur15_a,cur16_a,cur17_a,obs0,obs1,obs2,obs3,obs4,obs5,obs6,obs7,obs8,obs9,obs10,obs11,obs12,obs13,obs14,obs15,obs16,obs17,obs18,obs19,obs20,obs21,obs22,obs23,obs24,obs25,obs26,obs27,obs28,obs29,obs30,obs31,obs32,obs33,obs34,obs35,obs36,obs37,obs38,obs39,obs40,obs41,obs42,obs43,obs44,obs45,obs46,obs47,obs48,obs49,obs50,obs51,obs52,obs53,obs54,obs55,obs56,obs57,obs58,obs59,obs60,obs61,obs62,obs63,obs64,obs65,obs66,obs67,obs68,obs69,obs70,obs71,rot60_k
0.0,run,1.3,4.22,-0.76,-0.23,4.54,0.0,0.0,0.0,0.045,-0.26,16.88,78.93,0.09,14.41,77.52,0.35,15.73,78.13,0.26,14.85,78.22,-0.26,15.64,78.13,0.26,15.21,76.99,-1.76,15.81,77.69,-1.41,13.44,79.55,1.85,15.11,80.07,1.76,13.88,80.16,1.24,14.94,77.16,-1.32,14.23,78.84,-1.0,-1.0,-0.3668,-1.0,-1.0,1.0,1.0,-1.0,1.0,1.0,-1.0,1.0,0.1288,-1.0,-0.1108,-1.0,-1.0,1.0,0.013,0.0,0.0,0.006,0.0,0.045,0.006,0.039,0.019,0.013,0.0,0.039,0.013,0.019,0.0,0.019,0.0,0.019,0.0,0.0,-0.0031,0.0,0.0,-0.0092,0.0,0.0,-0.0077,0.0,0.0,-0.0077,0.0,0.0,-0.0092,0.0015,0.0,-0.0061,0.0,0.0,-0.0063,0.0,0.0,-0.0213,0.0,0.0,-0.0188,0.0031,0.0,-0.0163,0.0,0.0,-0.0226,0.0038,0.0,-0.015,0.0,0.0,0.0031,-0.0047,0.0058,0.0,0.0,0.0,0.0,0.0,0.0,0.0,0.0,0.0,0.0,0.0,0.0,0.0,0.0,0.0,0.0,0.0,0.0,0.0,0.0,0.0,0.0,0.0,0.0,0.0,0.0,0.0,0.0,0.0,0.0,0.0,0
0.04,run,1.34,4.24,2.08,0.59,-3.41,0.0,0.0,0.0,0.045,-0.44,16.52,78.66,0.0,14.15,77.61,0.44,15.38,78.13,0.26,14.59,78.31,-0.09,15.56,77.87,-0.09,14.85,76.99,-3.26,17.31,79.19,-2.91,11.94,81.05,0.35,13.61,78.57,3.26,12.38,81.66,-0.26,13.44,78.66,-2.82,12.73,80.34,-1.0,1.0,1.0,-1.0,-1.0,1.0,-1.0,-1.0,-0.8485,1.0,-1.0,1.0,-1.0,0.123,1.0,-1.0,-1.0,1.0,0.013,0.0,0.0,0.006,0.0,0.045,0.006,0.039,0.019,0.013,0.0,0.039,0.013,0.019,0.0,0.019,0.0,0.019,0.0,-0.0077,-0.0046,0.0,-0.0092,-0.0092,0.0,-0.0153,-0.0077,0.0,-0.0092,-0.0077,0.0,-0.0138,-0.0092,0.0015,-0.0092,-0.0061,0.0,-0.0126,-0.0069,0.0,-0.0151,-0.0149,0.0,-0.0252,-0.0132,0.0022,-0.0151,-0.0114,0.0,-0.0226,-0.0158,0.0026,-0.0151,-0.0105,-0.0055,0.0004,-0.0132,-0.0041,0.0793,-1.0,-1.0,-0.3668,-1.0,-1.0,1.0,1.0,-1.0,1.0,1.0,-1.0,1.0,0.1288,-1.0,-0.1108,-1.0,-1.0,1.0,0.0,0.0,0.0,0.0,0.0,0.0,0.0,0.0,0.0,0.0,0.0,0.0,0.0,0
0.08,run,0.97,4.26,-7.43,-0.48,5.35,0.0,0.0,0.0,0.045,-1.32,16.0,78.22,-0.26,13.54,78.22,0.7,14.68,78.22,1.23,13.97,78.66,0.26,14.59,77.34,-0.62,14.15,77.17,-4.76,18.81,80.69,-4.41,10.44,82.55,-1.15,15.11,80.07,4.76,10.88,83.16,-1.76,14.94,80.16,-4.32,11.23,81.84,-0.3646,1.0,0.3948,-1.0,-1.0,1.0,-1.0,1.0,1.0,1.0,-1.0,1.0,-1.0,1.0,1.0,-1.0,-1.0,1.0,0.013,0.0,0.0,0.006,0.0,0.045,0.006,0.039,0.019,0.013,0.0,0.039,0.013,0.019,0.0,0.019,0.0,0.019,-0.0031,-0.0138,-0.0092,-0.0015,-0.0138,-0.0077,0.0015,-0.0215,-0.0077,0.0,-0.0138,-0.0061,0.0031,-0.0153,-0.0138,-0.0046,-0.0153,-0.0061,-0.0115,-0.0317,-0.022,-0.0057,-0.0278,-0.0047,0.0057,-0.0405,-0.0092,0.0015,-0.0278,-0.0023,0.0115,-0.0216,-0.0283,-0.0211,-0.0335,-0.0074,-0.0016,0.0023,0.0362,0.0103,-0.0595,-1.0,1.0,1.0,-1.0,-1.0,1.0,-1.0,-1.0,-0.8485,1.0,-1.0,1.0,-1.0,0.123,1.0,-1.0,-1.0,1.0,0.0,0.0,0.0,0.0,0.0,0.0,0.0,0.0,0.0,0.0,0.0,0.0,0.0,0
0.12,run,0.87,4.29,-2.27,-1.16,-3.4,0.0,0.0,0.0,0.136,-2.2,15.91,78.05,-1.23,12.66,79.19,0.88,13.89,78.57,2.11,13.1,79.63,0.44,13.97,77.26,-1.58,13.36,77.87,-6.26,20.31,79.19,-5.91,8.94,84.05,-2.65,16.61,81.57,6.26,9.38,84.66,-0.26,13.44,78.66,-5.82,9.73,83.34,-1.0,1.0,0.1518,-1.0,-1.0,1.0,-1.0,1.0,1.0,1.0,-1.0,1.0,1.0,-0.0806,-1.0,-1.0,-1.0,1.0,0.026,0.013,0.006,0.019,0.0,0.058,0.0,0.019,0.045,0.033,0.0,0.136,0.0,0.013,0.033,0.033,0.0,0.084,-0.0184,-0.023,-0.0169,-0.0061,-0.0245,0.0031,0.0061,-0.0337,-0.0061,0.0169,-0.0245,0.0,0.0092,-0.0322,-0.023,-0.0138,-0.0276,-0.0031,-0.0657,-0.0568,-0.0442,-0.0213,-0.0598,0.037,0.0213,-0.0745,-0.0007,0.0645,-0.0598,0.0215,0.0311,-0.0785,-0.0544,-0.0493,-0.0696,0.0064,-0.0341,0.004,-0.1296,-0.0085,0.0933,-0.3646,1.0,0.3948,-1.0,-1.0,1.0,-1.0,1.0,1.0,1.0,-1.0,1.0,-1.0,1.0,1.0,-1.0,-1.0,1.0,0.0,0.0,0.0,0.0,0.0,0.0,0.0,0.0,0.0,0.0,0.0,0.0,0.0,0
0.16,run,0.63,4.48,-6.34,5.16,-11.54,0.0,0.0,0.0,0.136,-3.34,15.82,78.05,-2.37,11.51,80.42,0.97,13.45,79.1,3.16,11.95,80.95,0.09,13.36,77.26,-2.9,12.13,78.93,-7.76,21.81,80.69,-7.41,7.44,85.55,-3.0,15.11,80.07,7.76,7.88,86.16,1.24,14.94,80.16,-7.32,8.23,84.84,-1.0,1.0,0.2067,-1.0,-0.3527,1.0,-0.0858,0.4642,-0.5307,1.0,-1.0,1.0,1.0,1.0,1.0,-1.0,-1.0,1.0,0.026,0.013,0.006,0.019,0.0,0.058,0.0,0.019,0.045,0.033,0.0,0.136,0.0,0.013,0.033,0.033,0.0,0.084,-0.0337,-0.0245,-0.0199,-0.023,-0.0399,0.0199,0.0092,-0.0476,0.0,0.0322,-0.0399,0.0169,0.0123,-0.043,-0.0245,-0.0307,-0.0414,0.0092,-0.1032,-0.0455,-0.0424,-0.0779,-0.0991,0.0889,0.0264,-0.1037,0.0224,0.1024,-0.0991,0.078,0.0332,-0.095,-0.0438,-0.0975,-0.1002,0.0503,-0.0429,0.0064,-0.0396,-0.0202,-0.0594,-1.0,1.0,0.1518,-1.0,-1.0,1.0,-1.0,1.0,1.0,1.0,-1.0,1.0,1.0,-0.0806,-1.0,-1.0,-1.0,1.0,0.0,0.0,0.0,0.0,0.0,0.0,0.0,0.0,0.0,0.0,0.0,0.0,0.0,0
0.2,run,0.48,4.7,-5.01,6.35,-5.47,0.0,0.0,0.0,0.136,-4.66,15.82,78.13,-3.6,10.37,81.74,0.97,13.36,79.89,4.39,10.63,82.18,-0.09,12.92,77.78,-4.13,10.9,80.07,-9.26,23.31,82.19,-8.91,5.94,87.05,-4.5,16.61,81.57,9.26,6.38,87.66,2.74,13.44,81.66,-8.82,6.73,86.34,-1.0,1.0,0.7486,-1.0,-1.0,1.0,-1.0,1.0,1.0,1.0,-1.0,1.0,1.0,-0.3884,1.0,-1.0,-1.0,1.0,0.026,0.013,0.006,0.019,0.0,0.058,0.0,0.019,0.045,0.033,0.0,0.136,0.0,0.013,0.033,0.033,0.0,0.084,-0.0537,-0.0261,-0.0199,-0.043,-0.0598,0.0414,0.0107,-0.0552,0.0092,0.0506,-0.0598,0.0399,0.0061,-0.0537,-0.0245,-0.0537,-0.0629,0.0276,-0.1478,-0.0376,-0.0297,-0.13,-0.1449,0.1436,0.0243,-0.1016,0.0505,0.1414,-0.1449,0.1417,0.0,-0.1072,-0.0306,-0.1554,-0.1515,0.1049,-0.064,0.023,-0.1106,0.09,-0.2014,-1.0,1.0,0.2067,-1.0,-0.3527,1.0,-0.0858,0.4642,-0.5307,1.0,-1.0,1.0,1.0,1.0,1.0,-1.0,-1.0,1.0,0.0,0.0,0.0,0.0,0.0,0.0,0.0,0.0,0.0,0.0,0.0,0.0,0.0,0
0.24,run,0.5,4.68,-1.5,0.87,-10.74,0.0,0.0,0.0,0.182,-5.98,16.17,78.84,-4.92,9.14,83.14,0.18,13.36,80.42,5.71,9.4,83.67,-0.09,12.74,78.49,-5.45,9.58,81.47,-7.76,24.81,83.69,-10.41,7.32,88.55,-6.0,15.11,80.07,10.76,4.88,89.16,4.24,11.94,83.16,-10.32,5.23,87.84,-0.1592,1.0,0.4064,-1.0,0.5876,1.0,-0.2133,-0.4468,0.1161,1.0,-1.0,1.0,0.4782,-0.433,1.0,-1.0,-1.0,1.0,0.019,0.182,0.058,0.026,0.0,0.065,0.026,0.149,0.019,0.033,0.0,0.071,0.006,0.019,0.149,0.019,0.0,0.078,-0.0767,-0.0261,-0.0184,-0.0644,-0.0798,0.0644,0.0107,-0.0568,0.023,0.0721,-0.0828,0.0614,0.0031,-0.0614,-0.0153,-0.0752,-0.0844,0.0476,-0.1893,-0.0264,-0.0151,-0.1711,-0.1758,0.1863,0.017,-0.0768,0.0869,0.1791,-0.1872,0.1793,-0.0114,-0.1036,0.0129,-0.1889,-0.1861,0.1478,-0.0768,0.0419,-0.0875,0.1108,-0.0955,-1.0,1.0,0.7486,-1.0,-1.0,1.0,-1.0,1.0,1.0,1.0,-1.0,1.0,1.0,-0.3884,1.0,-1.0,-1.0,1.0,0.0,0.0,0.0,0.0,0.0,0.0,0.0,0.0,0.0,0.0,0.0,0.0,0.0,0
0.28,run,0.59,4.65,1.86,0.47,-12.72,0.0,0.0,0.0,0.182,-7.12,16.88,79.72,-6.33,7.91,84.73,-0.88,13.36,80.68,7.03,8.09,85.17,0.0,12.48,79.54,-6.94,8.17,82.88,-6.26,26.31,85.19,-11.91,5.82,87.05,-7.5,13.61,78.57,12.26,3.38,90.66,5.74,11.68,84.66,-11.82,3.73,89.34,0.0868,1.0,0.3186,-1.0,-1.0,-1.0,-1.0,-0.0379,-0.3524,1.0,-1.0,1.0,0.7251,0.6669,1.0,-1.0,-1.0,1.0,0.019,0.182,0.058,0.026,0.0,0.065,0.026,0.149,0.019,0.033,0.0,0.071,0.006,0.019,0.149,0.019,0.0,0.078,-0.0997,-0.0199,-0.0061,-0.0874,-0.1012,0.089,-0.0031,-0.0568,0.0322,0.0951,-0.1043,0.0874,0.0031,-0.0644,-0.0031,-0.0982,-0.1074,0.0721,-0.2192,0.0047,0.0357,-0.2065,-0.204,0.2229,-0.0401,-0.0538,0.0955,0.212,-0.212,0.2237,-0.008,-0.0841,0.0552,-0.2189,-0.217,0.1959,-0.0749,0.0405,-0.0262,0.0153,-0.1874,-0.1592,1.0,0.4064,-1.0,0.5876,1.0,-0.2133,-0.4468,0.1161,1.0,-1.0,1.0,0.4782,-0.433,1.0,-1.0,-1.0,1.0,0.0,0.0,0.0,0.0,0.0,0.0,0.0,0.0,0.0,0.0,0.0,0.0,0.0,0
0.32,run,0.6,4.59,-0.25,-1.06,-7.13,0.0,0.0,0.0,0.182,-8.0,17.93,80.77,-7.73,6.94,85.96,-2.11,13.36,80.68,8.35,6.86,86.66,0.44,11.87,80.77,-8.26,7.03,84.29,-7.76,24.81,86.69,-13.41,4.32,88.55,-9.0,15.11,80.07,13.76,1.88,92.16,4.24,13.18,86.16,-13.32,2.23,90.84,-1.0,0.0905,0.5943,-1.0,-1.0,0.7297,-1.0,1.0,1.0,1.0,-1.0,1.0,-0.2317,1.0,0.3237,-1.0,-1.0,1.0,0.019,0.182,0.058,0.026,0.0,0.065,0.026,0.149,0.019,0.033,0.0,0.071,0.006,0.019,0.149,0.019,0.0,0.078,-0.1197,-0.0077,0.0092,-0.112,-0.1227,0.1166,-0.0215,-0.0568,0.0368,0.1181,-0.1273,0.1135,0.0046,-0.069,0.0153,-0.1243,-0.1319,0.0966,-0.2283,0.0493,0.0826,-0.2367,-0.2234,0.2597,-0.0972,-0.0377,0.0841,0.2348,-0.2348,0.2545,0.0002,-0.0761,0.1078,-0.2511,-0.244,0.2293,-0.0674,0.0383,0.0325,0.0082,-0.2221,0.0868,1.0,0.3186,-1.0,-1.0,-1.0,-1.0,-0.0379,-0.3524,1.0,-1.0,1.0,0.7251,0.6669,1.0,-1.0,-1.0,1.0,0.0,0.0,0.0,0.0,0.0,0.0,0.0,0.0,0.0,0.0,0.0,0.0,0.0,0
0.36,run,0.58,4.5,-0.71,-2.47,-9.13,0.0,0.0,0.0,0.319,-8.53,18.98,81.83,-9.05,6.06,86.92,-3.43,13.36,80.33,9.76,5.54,88.15,1.23,11.25,82.18,-9.67,5.71,85.78,-9.26,23.31,85.19,-14.91,2.82,90.05,-10.5,13.61,81.57,15.26,0.38,93.66,2.74,11.68,84.66,-14.82,0.73,92.34,-1.0,0.1216,-0.0756,-1.0,-0.5181,1.0,-1.0,0.604,1.0,1.0,-1.0,1.0,-0.197,0.6596,-0.4731,-1.0,-1.0,1.0,0.019,0.319,0.111,0.033,0.0,0.039,0.058,0.149,0.0,0.052,0.0,0.039,0.065,0.026,0.065,0.033,0.0,0.052,-0.135,0.0107,0.0276,-0.1365,-0.1396,0.1381,-0.043,-0.0568,0.0368,0.1411,-0.1488,0.1396,0.0123,-0.0798,0.0368,-0.1473,-0.1519,0.1212,-0.217,0.1032,0.1265,-0.2573,-0.2193,0.2619,-0.1482,-0.0264,0.0589,0.2502,-0.2445,0.2755,0.0287,-0.0934,0.1556,-0.2617,-0.2452,0.2521,-0.0664,0.0324,-0.0044,-0.0186,-0.1245,-1.0,0.0905,0.5943,-1.0,-1.0,0.7297,-1.0,1.0,1.0,1.0,-1.0,1.0,-0.2317,1.0,0.3237,-1.0,-1.0,1.0,0.0,0.0,0.0,0.0,0.0,0.0,0.0,0.0,0.0,0.0,0.0,0.0,0.0,0
0.4,run,0.65,4.47,1.41,-1.62,-6.56,0.0,0.0,0.0,0.319,-8.88,19.78,82.79,-10.46,5.1,87.8,-4.66,13.36,80.07,11.16,4.13,89.56,2.2,10.99,83.41,-11.07,4.31,87.28,-10.76,21.81,86.69,-16.41,1.32,91.55,-12.0,12.11,80.07,16.76,-1.12,95.16,1.24,13.18,86.16,-16.32,-0.77,93.84,-1.0,-0.2528,0.3025,-1.0,-0.2585,1.0,-1.0,0.1881,-0.1606,1.0,-1.0,1.0,-1.0,0.7921,1.0,-1.0,-1.0,1.0,0.019,0.319,0.111,0.033,0.0,0.039,0.058,0.149,0.0,0.052,0.0,0.039,0.065,0.026,0.065,0.033,0.0,0.052,-0.1442,0.0291,0.046,-0.1595,-0.1549,0.1549,-0.066,-0.0568,0.0307,0.1657,-0.1718,0.1657,0.0261,-0.0905,0.0614,-0.1718,-0.1749,0.1473,-0.1863,0.1411,0.1574,-0.2661,-0.2109,0.2464,-0.1898,-0.0185,0.0183,0.2669,-0.2572,0.2904,0.0717,-0.1055,0.2007,-0.2749,-0.2577,0.274,-0.0679,0.0251,-0.0124,-0.0431,-0.1593,-1.0,0.1216,-0.0756,-1.0,-0.5181,1.0,-1.0,0.604,1.0,1.0,-1.0,1.0,-0.197,0.6596,-0.4731,-1.0,-1.0,1.0,0.0,0.0,0.0,0.0,0.0,0.0,0.0,0.0,0.0,0.0,0.0,0.0,0.0,0
0.44,run,0.89,4.35,4.26,-1.88,-7.64,0.0,0.0,0.0,0.319,-9.14,20.74,83.85,-12.57,3.43,89.38,-6.68,13.27,80.07,13.36,2.11,91.76,2.9,10.99,84.73,-13.18,2.37,89.56,-12.26,20.31,85.19,-17.91,-0.18,90.05,-13.5,13.61,81.57,18.26,-2.62,96.66,-0.26,11.68,87.66,-17.82,-2.27,95.34,-1.0,-1.0,0.1029,-1.0,-1.0,-0.8676,-1.0,1.0,1.0,1.0,-1.0,1.0,-1.0,0.3938,1.0,-1.0,-1.0,1.0,0.019,0.319,0.111,0.033,0.0,0.039,0.058,0.149,0.0,0.052,0.0,0.039,0.065,0.026,0.065,0.033,0.0,0.052,-0.1503,0.043,0.0629,-0.1841,-0.1718,0.1703,-0.0874,-0.0568,0.0261,0.1902,-0.1963,0.1902,0.043,-0.0951,0.0828,-0.1963,-0.1994,0.1733,-0.1536,0.1509,0.1739,-0.279,-0.2114,0.2304,-0.214,-0.0129,-0.0046,0.2796,-0.2727,0.296,0.1139,-0.0912,0.2216,-0.2852,-0.2731,0.2903,-0.0622,0.0222,0.0247,-0.0283,-0.1145,-1.0,-0.2528,0.3025,-1.0,-0.2585,1.0,-1.0,0.1881,-0.1606,1.0,-1.0,1.0,-1.0,0.7921,1.0,-1.0,-1.0,1.0,0.0,0.0,0.0,0.0,0.0,0.0,0.0,0.0,0.0,0.0,0.0,0.0,0.0,0
0.48,run,0.93,4.21,1.67,-4.77,-5.88,0.0,0.0,0.0,0.319,-9.84,21.09,84.2,-13.62,2.46,90.18,-7.82,12.57,79.98,14.5,1.05,92.9,3.16,10.99,85.17,-14.33,1.32,90.7,-13.76,18.81,86.69,-19.41,-1.68,91.55,-15.0,12.11,83.07,19.76,-4.12,98.16,-1.76,10.18,86.16,-19.32,-3.77,96.84,-1.0,-1.0,0.3878,-1.0,-0.5682,1.0,-1.0,0.2957,1.0,1.0,-1.0,1.0,-1.0,0.4216,-0.15,-1.0,-1.0,0.7341,0.033,0.26,0.163,0.026,0.0,0.019,0.078,0.026,0.013,0.039,0.0,0.026,0.026,0.234,0.058,0.033,0.0,0.039,-0.1549,0.0598,0.0813,-0.2209,-0.201,0.1979,-0.1227,-0.0583,0.0261,0.2286,-0.2316,0.2286,0.0552,-0.0951,0.1058,-0.2332,-0.2332,0.2132,-0.119,0.1477,0.1676,-0.287,-0.2205,0.2301,-0.2376,-0.0129,-0.0032,0.2912,-0.2788,0.3027,0.1103,-0.0639,0.2124,-0.2913,-0.2752,0.3025,-0.041,0.0116,0.0744,-0.0328,-0.1333,-1.0,-1.0,0.1029,-1.0,-1.0,-0.8676,-1.0,1.0,1.0,1.0,-1.0,1.0,-1.0,0.3938,1.0,-1.0,-1.0,1.0,0.0,0.0,0.0,0.0,0.0,0.0,0.0,0.0,0.0,0.0,0.0,0.0,0.0,0
0.52,run,1.13,4.22,5.21,-1.0,-7.76,0.0,0.0,0.0,0.319,-10.63,21.18,84.38,-15.03,1.41,90.79,-9.14,11.87,80.07,15.82,-0.26,94.31,3.16,10.99,85.69,-15.73,0.0,92.2,-15.26,17.31,85.19,-20.91,-3.18,90.05,-16.5,10.61,84.57,21.26,-5.62,99.66,-3.26,8.68,87.66,-20.82,-5.27,95.34,-1.0,-1.0,-0.4591,-1.0,-0.2035,0.2543,-1.0,0.2936,1.0,1.0,-1.0,1.0,-1.0,-0.0202,1.0,-1.0,-1.0,-0.4892,0.033,0.26,0.163,0.026,0.0,0.019,0.078,0.026,0.013,0.039,0.0,0.026,0.026,0.234,0.058,0.033,0.0,0.039,-0.1672,0.066,0.0874,-0.2393,-0.2178,0.2117,-0.1427,-0.0706,0.0245,0.2485,-0.25,0.2485,0.0598,-0.0951,0.1135,-0.2531,-0.2516,0.2332,-0.1378,0.1306,0.1445,-0.2826,-0.2293,0.2223,-0.2549,-0.0635,-0.0091,0.2924,-0.2769,0.3004,0.0977,-0.0447,0.1827,-0.2924,-0.2744,0.3003,-0.0372,-0.0009,0.0292,-0.0833,-0.1025,-1.0,-1.0,0.3878,-1.0,-0.5682,1.0,-1.0,0.2957,1.0,1.0,-1.0,1.0,-1.0,0.4216,-0.15,-1.0,-1.0,0.7341,0.0,0.0,0.0,0.0,0.0,0.0,0.0,0.0,0.0,0.0,0.0,0.0,0.0,0
0.56,run,1.36,4.21,6.34,-0.42,-13.51,0.0,0.0,0.0,0.319,-11.69,21.18,84.38,-16.44,0.18,91.14,-10.55,11.34,80.42,17.31,-1.58,95.8,2.81,10.99,86.13,-17.23,-1.23,93.6,-16.76,15.81,83.69,-22.41,-4.68,88.55,-18.0,9.11,86.07,22.76,-7.12,101.16,-4.76,7.18,89.16,-22.32,-6.77,93.84,-1.0,-1.0,-0.1072,-1.0,-1.0,-0.3581,-1.0,-0.4954,1.0,1.0,-1.0,1.0,-1.0,-0.1337,1.0,-1.0,-1.0,-1.0,0.033,0.26,0.163,0.026,0.0,0.019,0.078,0.026,0.013,0.039,0.0,0.026,0.026,0.234,0.058,0.033,0.0,0.039,-0.181,0.0675,0.0905,-0.2638,-0.2362,0.2224,-0.1657,-0.0828,0.0261,0.2715,-0.273,0.273,0.0598,-0.0951,0.1227,-0.2777,-0.2746,0.2592,-0.1481,0.0972,0.1127,-0.2897,-0.2294,0.1958,-0.2645,-0.0904,-0.0006,0.2908,-0.2799,0.3021,0.0684,-0.0313,0.1624,-0.2966,-0.2782,0.3078,-0.0204,0.0002,0.091,-0.0174,-0.1355,-1.0,-1.0,-0.4591,-1.0,-0.2035,0.2543,-1.0,0.2936,1.0,1.0,-1.0,1.0,-1.0,-0.0202,1.0,-1.0,-1.0,-0.4892,0.0,0.0,0.0,0.0,0.0,0.0,0.0,0.0,0.0,0.0,0.0,0.0,0.0,0
0.6,run,1.6,4.02,6.13,-4.93,-16.68,0.0,0.0,0.0,0.319,-13.1,21.18,84.38,-17.93,-1.05,90.79,-12.04,10.46,81.12,18.81,-2.9,97.29,1.93,10.99,86.84,-18.72,-2.55,94.75,-18.26,14.31,82.19,-23.91,-6.18,90.05,-19.5,7.61,87.57,24.26,-8.62,102.66,-6.26,8.68,90.66,-20.82,-8.27,92.34,-1.0,-1.0,-0.0191,-1.0,-1.0,0.5225,-1.0,0.0879,1.0,1.0,-0.3228,0.9529,-1.0,0.694,1.0,1.0,-1.0,-1.0,0.013,0.013,0.006,0.0,0.0,0.0,0.026,0.052,0.052,0.013,0.0,0.006,0.0,0.052,0.026,0.0,0.006,0.0,-0.1994,0.0675,0.0905,-0.2884,-0.2577,0.2286,-0.1902,-0.092,0.0322,0.2976,-0.2961,0.2991,0.0537,-0.0951,0.1304,-0.3037,-0.2961,0.2838,-0.1727,0.068,0.0789,-0.2949,-0.2412,0.1601,-0.2773,-0.0978,0.0226,0.3014,-0.2823,0.3093,0.0248,-0.0219,0.1424,-0.3054,-0.2753,0.3076,0.0003,-0.0006,0.1106,-0.0073,-0.2358,-1.0,-1.0,-0.1072,-1.0,-1.0,-0.3581,-1.0,-0.4954,1.0,1.0,-1.0,1.0,-1.0,-0.1337,1.0,-1.0,-1.0,-1.0,0.0,0.0,0.0,0.0,0.0,0.0,0.0,0.0,0.0,0.0,0.0,0.0,0.0,0
0.64,run,1.6,4.16,-0.01,0.07,-0.19,0.0,0.0,0.0,0.319,-18.02,13.71,81.83,-23.82,-6.06,90.09,-18.54,6.77,86.22,24.08,-8.61,102.48,-6.33,7.73,90.18,-20.92,-8.0,92.46,-19.76,12.81,83.69,-25.41,-7.68,88.55,-21.0,9.11,89.07,25.76,-10.12,104.16,-7.76,7.18,92.16,-19.32,-9.77,90.84,-1.0,-1.0,0.548,-1.0,-0.9179,0.267,-1.0,1.0,1.0,1.0,-0.4711,0.5241,-1.0,-0.2442,0.469,1.0,-1.0,-1.0,0.026,0.006,0.006,0.0,0.0,0.013,0.026,0.111,0.058,0.013,0.0,0.013,0.0,0.033,0.026,0.006,0.006,0.006,-0.224,0.0675,0.0905,-0.3145,-0.2792,0.2224,-0.2163,-0.1074,0.0445,0.3237,-0.3191,0.3252,0.0383,-0.0951,0.1427,-0.3298,-0.3191,0.3037,-0.213,0.0476,0.0552,-0.3042,-0.2493,0.0891,-0.2919,-0.126,0.0618,0.3088,-0.2839,0.3143,-0.0401,-0.0153,0.1457,-0.3116,-0.279,0.2901,0.0214,-0.0168,0.107,-0.0861,-0.2911,-1.0,-1.0,-0.0191,-1.0,-1.0,0.5225,-1.0,0.0879,1.0,1.0,-0.3228,0.9529,-1.0,0.694,1.0,1.0,-1.0,-1.0,0.0,0.0,0.0,0.0,0.0,0.0,0.0,0.0,0.0,0.0,0.0,0.0,0.0,0
0.68,run,1.61,4.19,-0.07,0.38,0.36,0.0,0.0,0.0,0.319,-18.02,13.71,81.83,-23.82,-6.15,89.91,-18.63,6.77,86.22,24.08,-8.61,102.48,-6.33,7.73,90.18,-20.92,-8.0,92.46,-21.26,11.31,85.19,-26.91,-9.18,90.05,-22.5,7.61,90.57,27.26,-8.62,102.66,-9.26,5.68,93.66,-17.82,-11.27,89.34,-1.0,-1.0,0.8129,-1.0,-0.1075,0.825,-1.0,-0.6434,1.0,1.0,0.6334,0.0612,-1.0,-0.6683,0.5255,1.0,-1.0,-1.0,0.026,0.006,0.006,0.0,0.0,0.013,0.026,0.111,0.058,0.013,0.0,0.013,0.0,0.033,0.026,0.006,0.006,0.006,-0.3099,-0.0629,0.046,-0.4172,-0.3666,0.2102,-0.3298,-0.1718,0.1335,0.4157,-0.4188,0.4157,-0.1058,-0.1519,0.201,-0.3682,-0.4142,0.2638,-0.213,0.0476,0.0552,-0.3042,-0.2493,0.0891,-0.2919,-0.126,0.0618,0.3088,-0.2839,0.3143,-0.0401,-0.0153,0.1457,-0.3116,-0.279,0.2901,0.0209,-0.0051,-0.0001,0.0013,-0.0033,-1.0,-1.0,0.548,-1.0,-0.9179,0.267,-1.0,1.0,1.0,1.0,-0.4711,0.5241,-1.0,-0.2442,0.469,1.0,-1.0,-1.0,0.0,0.0,0.0,0.0,0.0,0.0,0.0,0.0,0.0,0.0,0.0,0.0,0.0,0
0.72,run,1.58,4.29,-1.38,1.8,1.56,0.0,0.0,0.0,0.319,-18.02,13.71,81.83,-23.82,-6.15,89.47,-18.63,6.77,86.22,23.99,-8.61,102.3,-6.24,7.65,90.18,-20.21,-8.0,91.93,-19.76,9.81,86.69,-28.41,-10.68,88.55,-24.0,6.11,92.07,28.76,-7.12,101.16,-10.76,4.18,95.16,-16.32,-12.77,87.84,1.0,-1.0,1.0,-1.0,-0.1651,0.1341,-1.0,-1.0,1.0,1.0,1.0,-1.0,-1.0,-0.262,1.0,1.0,-1.0,-1.0,0.026,0.006,0.006,0.0,0.0,0.013,0.026,0.111,0.058,0.013,0.0,0.013,0.0,0.033,0.026,0.006,0.006,0.006,-0.3099,-0.0629,0.046,-0.4172,-0.3682,0.2071,-0.3313,-0.1718,0.1335,0.4157,-0.4188,0.4157,-0.1058,-0.1519,0.201,-0.3682,-0.4142,0.2638,-0.1491,0.0333,0.0386,-0.2129,-0.181,0.0495,-0.2107,-0.0882,0.0433,0.2161,-0.1987,0.22,-0.0281,-0.0107,0.102,-0.2181,-0.1953,0.203,0.0221,-0.0021,-0.0012,0.0066,0.0063,-1.0,-1.0,0.8129,-1.0,-0.1075,0.825,-1.0,-0.6434,1.0,1.0,0.6334,0.0612,-1.0,-0.6683,0.5255,1.0,-1.0,-1.0,0.0,0.0,0.0,0.0,0.0,0.0,0.0,0.0,0.0,0.0,0.0,0.0,0.0,0
0.76,run,1.39,4.4,-4.86,2.47,-2.91,0.0,0.0,0.0,0.319,-18.02,13.62,81.83,-23.82,-6.15,88.77,-18.72,6.77,86.31,24.08,-8.44,102.22,-6.24,7.65,90.18,-19.34,-8.0,91.14,-18.26,8.31,88.19,-29.91,-12.18,87.05,-22.5,4.61,93.57,30.26,-5.62,99.66,-12.26,2.68,93.66,-14.82,-11.27,86.34,1.0,-1.0,1.0,-1.0,-1.0,-0.1506,1.0,-0.9571,1.0,1.0,1.0,-1.0,-1.0,0.1963,0.2882,1.0,0.4561,-1.0,0.026,0.0,0.019,0.013,0.013,0.006,0.052,0.123,0.058,0.019,0.013,0.019,0.019,0.013,0.084,0.019,0.019,0.019,-0.3099,-0.0629,0.046,-0.4172,-0.3682,0.1994,-0.3313,-0.1718,0.1335,0.4142,-0.4188,0.4126,-0.1043,-0.1534,0.201,-0.3559,-0.4142,0.2546,-0.1043,0.0233,0.027,-0.1491,-0.1267,0.0062,-0.1475,-0.0617,0.0303,0.1456,-0.1391,0.1427,-0.014,-0.0132,0.0714,-0.1072,-0.1367,0.108,0.0197,0.0069,-0.0241,0.0314,0.0272,1.0,-1.0,1.0,-1.0,-0.1651,0.1341,-1.0,-1.0,1.0,1.0,1.0,-1.0,-1.0,-0.262,1.0,1.0,-1.0,-1.0,0.0,0.0,0.0,0.0,0.0,0.0,0.0,0.0,0.0,0.0,0.0,0.0,0.0,0
0.8,run,1.38,4.81,0.24,8.3,-3.65,0.0,0.0,0.0,0.319,-18.37,13.1,81.83,-24.26,-6.59,88.33,-19.16,6.77,86.66,24.7,-8.09,101.78,-6.86,7.29,90.62,-18.19,-8.35,90.09,-16.76,6.81,89.69,-31.41,-13.68,85.55,-21.0,3.11,95.07,31.76,-4.12,98.16,-13.76,1.18,92.16,-13.32,-9.77,84.84,-0.0418,-1.0,1.0,-1.0,-1.0,-1.0,1.0,0.0306,1.0,1.0,1.0,0.3112,-1.0,-1.0,-1.0,1.0,1.0,-1.0,0.026,0.0,0.019,0.013,0.013,0.006,0.052,0.123,0.058,0.019,0.013,0.019,0.019,0.013,0.084,0.019,0.019,0.019,-0.3099,-0.0644,0.046,-0.4172,-0.3682,0.1871,-0.3329,-0.1718,0.135,0.4157,-0.4157,0.4111,-0.1043,-0.1534,0.201,-0.3405,-0.4142,0.2408,-0.073,0.0105,0.0189,-0.1043,-0.0887,-0.042,-0.1091,-0.0432,0.027,0.1077,-0.0858,0.0941,-0.0098,-0.0092,0.05,-0.0172,-0.0957,0.0235,0.0031,0.0165,-0.0849,0.0431,-0.0508,1.0,-1.0,1.0,-1.0,-1.0,-0.1506,1.0,-0.9571,1.0,1.0,1.0,-1.0,-1.0,0.1963,0.2882,1.0,0.4561,-1.0,0.0,0.0,0.0,0.0,0.0,0.0,0.0,0.0,0.0,0.0,0.0,0.0,0.0,0
0.84,run,1.42,5.18,0.38,8.36,-6.16,0.0,0.0,0.0,0.319,-18.28,12.22,82.27,-25.05,-7.21,87.36,-19.86,6.68,87.36,25.49,-7.21,100.72,-7.82,6.24,91.41,-16.79,-9.05,88.86,-18.26,5.31,91.19,-32.91,-15.18,84.05,-19.5,1.61,96.57,33.26,-2.62,96.66,-15.26,-0.32,90.66,-11.82,-8.27,83.34,-1.0,-1.0,1.0,-1.0,-0.6457,-1.0,0.1746,-1.0,1.0,1.0,1.0,0.0281,-1.0,-0.9021,0.1889,1.0,1.0,-1.0,0.026,0.0,0.019,0.013,0.013,0.006,0.052,0.123,0.058,0.019,0.013,0.019,0.019,0.013,0.084,0.019,0.019,0.019,-0.316,-0.0736,0.046,-0.4249,-0.3758,0.1795,-0.3405,-0.1718,0.1411,0.4264,-0.4096,0.4034,-0.115,-0.1595,0.2086,-0.3206,-0.4203,0.2224,-0.0741,-0.027,0.0133,-0.1017,-0.0908,-0.0581,-0.105,-0.0302,0.0419,0.1156,-0.0371,0.0372,-0.047,-0.0294,0.0637,0.0626,-0.0899,-0.0524,0.0023,0.0517,0.0041,0.1449,-0.0636,-0.0418,-1.0,1.0,-1.0,-1.0,-1.0,1.0,0.0306,1.0,1.0,1.0,0.3112,-1.0,-1.0,-1.0,1.0,1.0,-1.0,0.0,0.0,0.0,0.0,0.0,0.0,0.0,0.0,0.0,0.0,0.0,0.0,0.0,0
0.88,run,1.8,5.46,10.05,6.97,-3.92,0.0,0.0,0.0,0.319,-18.02,11.16,83.14,-25.93,-8.26,86.31,-20.39,5.62,88.42,26.72,-6.24,99.58,-8.79,5.1,91.85,-15.38,-9.58,87.54,-19.76,3.81,92.69,-34.41,-13.68,85.55,-18.0,0.11,98.07,34.76,-1.12,95.16,-16.76,-1.82,92.16,-10.32,-6.77,81.84,-1.0,-0.797,1.0,-1.0,0.5951,0.4148,0.6324,-1.0,1.0,1.0,1.0,-0.8396,-1.0,-1.0,1.0,1.0,1.0,-1.0,0.006,0.0,0.091,0.026,0.013,0.006,0.019,0.033,0.084,0.019,0.026,0.013,0.033,0.013,0.039,0.013,0.006,0.013,-0.3145,-0.089,0.0537,-0.4387,-0.3866,0.1626,-0.3528,-0.1733,0.1534,0.4403,-0.3942,0.385,-0.1319,-0.1779,0.2224,-0.2961,-0.4326,0.201,-0.0461,-0.0762,0.0379,-0.1228,-0.1036,-0.1037,-0.1193,-0.0269,0.0751,0.1325,0.0313,-0.0427,-0.0959,-0.0893,0.0961,0.1355,-0.1088,-0.1169,0.0058,0.0843,0.0067,0.1458,-0.1075,-1.0,-1.0,1.0,-1.0,-0.6457,-1.0,0.1746,-1.0,1.0,1.0,1.0,0.0281,-1.0,-0.9021,0.1889,1.0,1.0,-1.0,0.0,0.0,0.0,0.0,0.0,0.0,0.0,0.0,0.0,0.0,0.0,0.0,0.0,0
0.92,run,1.98,5.89,5.97,10.71,-4.67,0.0,0.0,0.0,0.319,-18.02,9.58,84.38,-26.98,-9.49,85.17,-20.65,4.22,89.74,28.04,-5.19,98.26,-10.02,3.69,91.85,-13.97,-9.76,86.04,-18.26,2.31,94.19,-35.0,-12.18,84.05,-16.5,-1.39,99.57,33.26,0.38,96.66,-18.26,-0.32,93.66,-8.82,-5.27,80.34,1.0,-1.0,1.0,-1.0,0.3792,-1.0,1.0,-1.0,1.0,0.3945,0.8394,1.0,-1.0,0.9567,1.0,1.0,1.0,-1.0,0.006,0.0,0.091,0.026,0.013,0.006,0.019,0.033,0.084,0.019,0.026,0.013,0.033,0.013,0.039,0.013,0.006,0.013,-0.3099,-0.1074,0.069,-0.4541,-0.405,0.1442,-0.362,-0.1917,0.1718,0.4617,-0.3774,0.3651,-0.1488,-0.1979,0.2301,-0.2715,-0.4418,0.1779,-0.0149,-0.1228,0.0844,-0.1438,-0.142,-0.142,-0.1183,-0.0883,0.122,0.1737,0.0856,-0.1051,-0.1308,-0.1377,0.0962,0.1874,-0.1109,-0.1686,0.0384,0.1087,0.1753,0.1216,-0.0684,-1.0,-0.797,1.0,-1.0,0.5951,0.4148,0.6324,-1.0,1.0,1.0,1.0,-0.8396,-1.0,-1.0,1.0,1.0,1.0,-1.0,0.0,0.0,0.0,0.0,0.0,0.0,0.0,0.0,0.0,0.0,0.0,0.0,0.0,0
0.96,run,2.06,6.02,2.36,4.52,-2.64,0.0,0.0,0.0,0.319,-18.72,8.0,85.87,-28.83,-10.72,84.46,-20.74,2.81,91.41,29.62,-3.87,96.86,-11.51,2.2,91.85,-12.39,-9.67,84.46,-19.76,0.81,95.69,-35.0,-10.68,82.55,-15.0,-2.89,101.07,31.76,1.88,98.16,-19.76,1.18,92.16,-7.32,-3.77,78.84,-1.0,-0.7586,1.0,-1.0,1.0,-1.0,1.0,-1.0,1.0,-0.1542,1.0,0.5285,-1.0,1.0,-1.0,1.0,1.0,-1.0,0.006,0.0,0.091,0.026,0.013,0.006,0.019,0.033,0.084,0.019,0.026,0.013,0.033,0.013,0.039,0.013,0.006,0.013,-0.3099,-0.135,0.0905,-0.4725,-0.4264,0.1243,-0.3666,-0.2163,0.1948,0.4847,-0.359,0.3421,-0.1703,-0.2224,0.2301,-0.247,-0.4449,0.1519,-0.0105,-0.1889,0.1392,-0.1693,-0.1795,-0.1737,-0.0999,-0.1533,0.1712,0.2074,0.1285,-0.1594,-0.1716,-0.1879,0.0674,0.2227,-0.089,-0.2152,0.0541,0.1458,0.1042,0.187,-0.0815,1.0,-1.0,1.0,-1.0,0.3792,-1.0,1.0,-1.0,1.0,0.3945,0.8394,1.0,-1.0,0.9567,1.0,1.0,1.0,-1.0,0.0,0.0,0.0,0.0,0.0,0.0,0.0,0.0,0.0,0.0,0.0,0.0,0.0,0
1.0,run,2.14,6.07,3.21,1.55,-2.79,0.0,0.0,0.0,0.319,-19.07,6.77,87.1,-30.06,-11.69,83.85,-20.48,1.49,92.64,30.59,-2.9,96.06,-12.74,1.14,91.85,-11.25,-9.32,83.23,-21.26,-0.69,97.19,-35.0,-9.18,81.05,-13.5,-4.39,102.57,30.26,3.38,96.66,-21.26,-0.32,93.66,-5.82,-2.27,77.34,-1.0,-1.0,1.0,-1.0,1.0,-1.0,1.0,-1.0,1.0,-1.0,0.8986,-0.2178,-1.0,0.0147,1.0,1.0,1.0,-1.0,0.019,0.0,0.084,0.019,0.006,0.006,0.013,0.013,0.065,0.033,0.071,0.0,0.033,0.006,0.019,0.019,0.019,0.013,-0.3221,-0.1626,0.1166,-0.5047,-0.4479,0.112,-0.3682,-0.2408,0.224,0.5123,-0.3359,0.3175,-0.1963,-0.2485,0.2301,-0.2194,-0.4433,0.1243,-0.0473,-0.2223,0.1825,-0.2236,-0.1957,-0.1616,-0.075,-0.1873,0.2149,0.2352,0.165,-0.1916,-0.2052,-0.2166,0.0471,0.2459,-0.0573,-0.2407,0.061,0.1578,0.0412,0.0789,-0.0461,-1.0,-0.7586,1.0,-1.0,1.0,-1.0,1.0,-1.0,1.0,-0.1542,1.0,0.5285,-1.0,1.0,-1.0,1.0,1.0,-1.0,0.0,0.0,0.0,0.0,0.0,0.0,0.0,0.0,0.0,0.0,0.0,0.0,0.0,0
1.04,run,2.34,6.4,3.8,6.74,0.12,0.0,0.002,0.0,0.319,-19.6,5.27,88.59,-31.46,-12.57,82.97,-20.21,0.18,94.13,31.46,-1.76,95.36,-14.24,0.35,91.85,-9.76,-9.05,81.83,-19.76,-2.19,98.69,-35.0,-7.68,82.55,-12.0,-5.89,104.07,28.76,1.88,98.16,-22.76,-1.82,95.16,-4.32,-0.77,75.84,0.4882,-1.0,1.0,-1.0,1.0,0.9196,1.0,-1.0,1.0,-1.0,-0.4959,1.0,-1.0,-0.9212,0.8317,1.0,1.0,-1.0,0.019,0.0,0.084,0.019,0.006,0.006,0.013,0.013,0.065,0.033,0.071,0.0,0.033,0.006,0.019,0.019,0.019,0.013,-0.3283,-0.1841,0.1381,-0.5262,-0.4648,0.1012,-0.3636,-0.2638,0.2454,0.5292,-0.3191,0.3037,-0.2178,-0.2669,0.2301,-0.1994,-0.4372,0.1028,-0.0602,-0.2504,0.2226,-0.2513,-0.2115,-0.1606,-0.0321,-0.2328,0.2453,0.2392,0.19,-0.1951,-0.2385,-0.2329,0.033,0.2602,-0.013,-0.2634,0.0685,0.1615,0.0561,0.0271,-0.0487,-1.0,-1.0,1.0,-1.0,1.0,-1.0,1.0,-1.0,1.0,-1.0,0.8986,-0.2178,-1.0,0.0147,1.0,1.0,1.0,-1.0,0.0,0.0,0.0,0.0,0.0,0.0,0.0,0.0,0.0,0.0133,0.0,0.0133,0.0,0
1.08,run,2.75,6.58,8.53,2.97,2.09,0.0,0.004,0.0,0.319,-20.39,4.04,90.0,-32.78,-13.01,82.0,-18.72,-1.32,95.62,32.08,-0.62,95.01,-15.73,-0.35,92.11,-8.44,-7.56,80.07,-18.26,-3.69,100.19,-35.0,-6.18,84.05,-10.5,-7.39,105.57,27.26,0.38,99.66,-24.26,-0.32,96.66,-2.82,0.73,77.34,1.0,0.1502,1.0,-1.0,1.0,0.7443,1.0,-1.0,1.0,-1.0,-1.0,1.0,-1.0,0.8285,1.0,1.0,1.0,0.5656,0.019,0.0,0.084,0.019,0.006,0.006,0.013,0.013,0.065,0.033,0.071,0.0,0.033,0.006,0.019,0.019,0.019,0.013,-0.3375,-0.2102,0.1641,-0.5507,-0.4801,0.0859,-0.359,-0.2869,0.2715,0.5446,-0.2991,0.2915,-0.2439,-0.2807,0.2301,-0.1733,-0.4326,0.0782,-0.0768,-0.2734,0.2539,-0.2682,-0.2057,-0.1701,-0.0052,-0.2495,0.2698,0.2251,0.208,-0.1827,-0.265,-0.215,0.0231,0.2802,0.0082,-0.2767,0.0854,0.191,0.0664,0.1177,0.002,0.4882,-1.0,1.0,-1.0,1.0,0.9196,1.0,-1.0,1.0,-1.0,-0.4959,1.0,-1.0,-0.9212,0.8317,1.0,1.0,-1.0,0.0,0.0,0.0,0.0,0.0,0.0,0.0,0.0,0.0,0.0267,0.0,0.0267,0.0,0
1.12,run,3.16,6.7,8.16,2.69,-0.17,0.0,0.006,0.0,0.319,-20.92,2.46,91.41,-33.66,-13.18,81.39,-17.4,-2.64,97.21,32.61,0.26,95.19,-17.23,-1.32,93.25,-7.03,-6.24,78.93,-16.76,-5.19,101.69,-35.0,-4.68,85.55,-9.0,-8.89,107.07,25.76,-1.12,101.16,-25.76,1.18,98.16,-4.32,2.23,78.84,1.0,-0.7748,1.0,-1.0,1.0,0.8165,1.0,-1.0,1.0,-1.0,-1.0,1.0,-1.0,0.6836,1.0,-0.4233,1.0,1.0,0.006,0.0,0.111,0.006,0.0,0.0,0.026,0.0,0.045,0.013,0.104,0.026,0.026,0.006,0.039,0.033,0.033,0.013,-0.3513,-0.2316,0.1887,-0.5737,-0.4878,0.069,-0.3329,-0.3129,0.2976,0.5553,-0.2792,0.2853,-0.27,-0.293,0.2347,-0.1503,-0.4065,0.0476,-0.1053,-0.2716,0.2694,-0.2737,-0.1727,-0.1821,0.0937,-0.272,0.2862,0.1977,0.2201,-0.1508,-0.2829,-0.1963,0.0334,0.2821,0.1031,-0.3082,0.121,0.2067,0.149,0.0518,0.0364,1.0,0.1502,1.0,-1.0,1.0,0.7443,1.0,-1.0,1.0,-1.0,-1.0,1.0,-1.0,0.8285,1.0,1.0,1.0,0.5656,0.0,0.0,0.0,0.0,0.0,0.0,0.0,0.0,0.0,0.04,0.0,0.04,0.0,0
1.16,run,3.78,6.9,12.99,5.75,3.75,0.0,0.008,0.0,0.319,-21.09,1.05,92.72,-34.28,-13.8,81.12,-16.08,-4.22,98.79,32.7,0.97,95.71,-18.72,-1.67,94.48,-5.71,-4.92,77.7,-15.26,-6.69,103.19,-35.0,-3.18,87.05,-7.5,-10.39,108.57,24.26,-2.62,102.66,-27.26,-0.32,99.66,-5.82,3.73,80.34,1.0,-0.1839,1.0,-1.0,1.0,1.0,1.0,-1.0,1.0,-1.0,-1.0,1.0,-1.0,-0.4458,0.7731,-1.0,1.0,1.0,0.006,0.0,0.111,0.006,0.0,0.0,0.026,0.0,0.045,0.013,0.104,0.026,0.026,0.006,0.039,0.033,0.033,0.013,-0.3605,-0.2592,0.2132,-0.589,-0.4909,0.0583,-0.3099,-0.3359,0.3252,0.5645,-0.2638,0.2884,-0.2961,-0.3099,0.2546,-0.1258,-0.3835,0.0276,-0.1082,-0.2937,0.2806,-0.2491,-0.1324,-0.1677,0.1519,-0.2767,0.3039,0.1729,0.2116,-0.0941,-0.2958,-0.2007,0.0981,0.2895,0.1585,-0.2906,0.1576,0.2169,0.1424,0.047,-0.0029,1.0,-0.7748,1.0,-1.0,1.0,0.8165,1.0,-1.0,1.0,-1.0,-1.0,1.0,-1.0,0.6836,1.0,-0.4233,1.0,1.0,0.0,0.0,0.0,0.0,0.0,0.0,0.0,0.0,0.0,0.0533,0.0,0.0533,0.0,0
1.2,run,3.88,6.65,1.28,-5.45,8.51,0.0,0.01,0.0,0.319,-20.74,-0.35,94.04,-34.45,-13.01,81.04,-14.85,-5.54,100.11,32.34,1.32,96.5,-20.13,-2.11,95.8,-4.83,-3.69,76.99,-13.76,-8.19,104.69,-35.0,-1.68,88.55,-6.0,-11.89,110.07,22.76,-4.12,101.16,-28.76,-1.82,101.16,-7.32,5.23,81.84,1.0,0.023,1.0,-1.0,1.0,1.0,1.0,-1.0,1.0,-1.0,-1.0,0.0764,-1.0,-0.1299,1.0,-1.0,1.0,1.0,0.006,0.0,0.111,0.006,0.0,0.0,0.026,0.0,0.045,0.013,0.104,0.026,0.026,0.006,0.039,0.033,0.033,0.013,-0.3636,-0.2838,0.2362,-0.5998,-0.5016,0.0537,-0.2869,-0.3636,0.3528,0.566,-0.2516,0.2976,-0.3221,-0.316,0.2761,-0.1028,-0.3605,0.0061,-0.0866,-0.2925,0.2779,-0.2124,-0.1307,-0.1337,0.1878,-0.2915,0.3105,0.1265,0.1916,-0.0333,-0.2994,-0.1622,0.1447,0.2841,0.1924,-0.2794,0.2113,0.234,0.2268,0.1004,0.0655,1.0,-0.1839,1.0,-1.0,1.0,1.0,1.0,-1.0,1.0,-1.0,-1.0,1.0,-1.0,-0.4458,0.7731,-1.0,1.0,1.0,0.0,0.0,0.0,0.0,0.0,0.0,0.0,0.0,0.0,0.0667,0.0,0.0667,0.0,0
1.24,run,4.32,6.17,9.77,-7.65,13.54,0.0,0.012,0.0,0.319,-20.04,-1.76,95.45,-34.45,-12.13,81.74,-13.54,-7.03,101.34,31.82,1.32,97.56,-21.53,-2.11,97.21,-4.13,-2.64,76.46,-12.26,-9.69,106.19,-35.0,-0.18,90.05,-4.5,-13.39,111.57,21.26,-5.62,99.66,-30.26,-3.32,99.66,-8.82,6.73,83.34,1.0,-1.0,1.0,-1.0,1.0,1.0,1.0,-1.0,1.0,-1.0,-0.9342,-0.73,-1.0,-1.0,-1.0,-1.0,1.0,1.0,0.0,0.0,0.123,0.006,0.052,0.026,0.045,0.0,0.084,0.019,0.039,0.084,0.019,0.0,0.033,0.026,0.084,0.006,-0.3574,-0.3083,0.2592,-0.6029,-0.4878,0.0522,-0.2654,-0.3866,0.3758,0.5599,-0.2454,0.3114,-0.3467,-0.3237,0.2991,-0.0874,-0.339,-0.0061,-0.0378,-0.296,0.2801,-0.1601,-0.0401,-0.0993,0.2114,-0.2896,0.303,0.0657,0.1569,0.0281,-0.3009,-0.1421,0.1869,0.256,0.2146,-0.2413,0.2196,0.2126,0.0224,-0.0951,0.1486,1.0,0.023,1.0,-1.0,1.0,1.0,1.0,-1.0,1.0,-1.0,-1.0,0.0764,-1.0,-0.1299,1.0,-1.0,1.0,1.0,0.0,0.0,0.0,0.0,0.0,0.0,0.0,0.0,0.0,0.08,0.0,0.08,0.0,0
1.28,run,4.67,5.45,9.38,-20.39,9.78,0.0,0.014,0.0,0.319,-19.16,-3.16,96.86,-34.54,-11.16,82.53,-12.13,-8.44,102.48,30.5,1.32,98.53,-22.94,-2.55,98.53,-3.69,-1.23,76.38,-10.76,-11.19,104.69,-35.0,-1.68,91.55,-3.0,-14.89,113.07,19.76,-4.12,98.16,-31.76,-4.82,98.16,-10.32,8.23,84.84,0.133,-1.0,-0.2566,-1.0,-0.5476,1.0,1.0,-1.0,1.0,-1.0,1.0,-0.5786,-1.0,-1.0,-1.0,-1.0,1.0,1.0,0.0,0.0,0.123,0.006,0.052,0.026,0.045,0.0,0.084,0.019,0.039,0.084,0.019,0.0,0.033,0.026,0.084,0.006,-0.3451,-0.3329,0.2838,-0.6029,-0.4725,0.0644,-0.2424,-0.4126,0.3973,0.5507,-0.2454,0.3298,-0.3712,-0.3237,0.3237,-0.0752,-0.3206,-0.0153,0.0198,-0.2998,0.2887,-0.1121,0.0298,-0.0232,0.2347,-0.3011,0.2931,0.0113,0.1098,0.0891,-0.3032,-0.0995,0.2234,0.2255,0.2196,-0.2036,0.2584,0.1708,0.1705,-0.1336,0.2363,1.0,-1.0,1.0,-1.0,1.0,1.0,1.0,-1.0,1.0,-1.0,-0.9342,-0.73,-1.0,-1.0,-1.0,-1.0,1.0,1.0,0.0,0.0,0.0,0.0,0.0,0.0,0.0,0.0,0.0,0.0933,0.0,0.0933,0.0,0
1.32,run,4.47,4.36,-2.31,-18.45,-8.95,0.0,0.016,0.0,0.319,-17.05,-5.1,99.32,-34.45,-9.4,84.2,-9.84,-10.72,104.41,28.39,0.26,99.67,-25.14,-3.69,99.93,-3.87,0.97,76.73,-12.26,-12.69,103.19,-33.5,-3.18,93.05,-1.5,-16.39,114.57,18.26,-2.62,96.66,-33.26,-6.32,96.66,-11.82,9.73,86.34,-1.0,-1.0,-0.2422,1.0,-1.0,1.0,1.0,-1.0,1.0,-1.0,0.9672,-1.0,-1.0,-1.0,-0.6757,-1.0,1.0,1.0,0.013,0.0,0.065,0.0,0.123,0.084,0.052,0.0,0.117,0.019,0.0,0.065,0.026,0.0,0.026,0.006,0.111,0.026,-0.3298,-0.3574,0.3083,-0.6044,-0.4556,0.0782,-0.2178,-0.4372,0.4172,0.5277,-0.2454,0.3467,-0.3958,-0.3313,0.3467,-0.0675,-0.2961,-0.0169,0.0714,-0.3019,0.2941,-0.0842,0.0841,0.0355,0.2564,-0.3028,0.2799,-0.0784,0.0769,0.1256,-0.3043,-0.0984,0.2427,0.1866,0.2458,-0.1483,0.2889,0.1078,0.1638,-0.3559,0.1707,0.133,-1.0,-0.2566,-1.0,-0.5476,1.0,1.0,-1.0,1.0,-1.0,1.0,-0.5786,-1.0,-1.0,-1.0,-1.0,1.0,1.0,0.0,0.0,0.0,0.0,0.0,0.0,0.0,0.0,0.0,0.1067,0.0,0.1067,0.0,0
1.36,run,4.17,4.12,-6.34,-8.32,-3.74,0.0,0.018,0.0,0.319,-15.73,-6.42,100.63,-34.19,-8.26,85.43,-8.44,-12.04,105.82,27.07,-0.7,100.11,-26.63,-4.75,100.37,-4.57,2.2,77.43,-13.76,-14.19,101.69,-32.0,-4.68,94.55,-0.0,-17.89,116.07,16.76,-4.12,95.16,-34.76,-7.82,95.16,-13.32,8.23,87.84,-1.0,-1.0,-0.4078,1.0,-1.0,1.0,1.0,-0.6888,1.0,-1.0,-0.5709,-1.0,-1.0,-1.0,-1.0,-1.0,0.1094,1.0,0.013,0.0,0.065,0.0,0.123,0.084,0.052,0.0,0.117,0.019,0.0,0.065,0.026,0.0,0.026,0.006,0.111,0.026,-0.293,-0.3912,0.3513,-0.6029,-0.4249,0.1074,-0.1779,-0.4771,0.451,0.4909,-0.2638,0.3666,-0.4341,-0.3513,0.3712,-0.0706,-0.2577,-0.0107,0.1369,-0.291,0.3073,-0.0553,0.1313,0.0937,0.2736,-0.3061,0.2756,-0.1418,0.0104,0.135,-0.3035,-0.1159,0.2278,0.1234,0.2626,-0.0893,0.2719,0.0122,-0.0404,-0.3219,-0.1562,-1.0,-1.0,-0.2422,1.0,-1.0,1.0,1.0,-1.0,1.0,-1.0,0.9672,-1.0,-1.0,-1.0,-0.6757,-1.0,1.0,1.0,0.0,0.0,0.0,0.0,0.0,0.0,0.0,0.0,0.0,0.12,0.0,0.12,0.0,0
1.4,run,3.9,3.57,-5.85,-14.0,-4.08,0.0,0.02,0.0,0.319,-14.5,-7.73,101.69,-33.84,-7.29,86.75,-7.03,-13.45,107.31,25.75,-1.76,100.11,-28.04,-5.71,100.46,-5.54,3.34,78.4,-15.26,-15.69,100.19,-30.5,-6.18,96.05,1.5,-19.39,117.57,15.26,-5.62,93.66,-35.0,-9.32,93.66,-14.82,6.73,89.34,-1.0,-1.0,-1.0,1.0,-1.0,1.0,1.0,-1.0,1.0,-1.0,-0.5268,-0.7288,-1.0,-1.0,-0.3087,-1.0,-1.0,1.0,0.013,0.0,0.065,0.0,0.123,0.084,0.052,0.0,0.117,0.019,0.0,0.065,0.026,0.0,0.026,0.006,0.111,0.026,-0.27,-0.4142,0.3743,-0.5983,-0.405,0.1289,-0.1534,-0.5001,0.4755,0.4679,-0.2807,0.3743,-0.4602,-0.3697,0.3789,-0.0828,-0.2362,0.0015,0.1836,-0.2914,0.3028,-0.0212,0.168,0.1475,0.2851,-0.302,0.2865,-0.187,-0.0571,0.1238,-0.3119,-0.1514,0.1887,0.0396,0.2657,-0.0157,0.2451,-0.0087,-0.1106,-0.1453,-0.0652,-1.0,-1.0,-0.4078,1.0,-1.0,1.0,1.0,-0.6888,1.0,-1.0,-0.5709,-1.0,-1.0,-1.0,-1.0,-1.0,0.1094,1.0,0.0,0.0,0.0,0.0,0.0,0.0,0.0,0.0,0.0,0.1333,0.0,0.1333,0.0,0
1.44,run,3.54,3.04,-9.02,-11.58,-4.69,0.0,0.022,0.0,0.319,-13.62,-9.05,102.48,-33.13,-6.5,88.07,-5.62,-14.94,108.72,24.43,-3.08,100.11,-29.36,-6.94,100.37,-6.77,4.39,79.54,-16.76,-17.19,98.69,-29.0,-7.68,97.55,3.0,-20.89,119.07,13.76,-7.12,95.16,-33.5,-10.82,92.16,-16.32,5.23,90.84,-1.0,-1.0,-0.9999,1.0,-1.0,1.0,1.0,-1.0,1.0,-1.0,0.0732,0.5272,-0.7092,-1.0,0.1294,-1.0,-1.0,1.0,0.013,0.0,0.026,0.013,0.169,0.169,0.058,0.0,0.111,0.039,0.0,0.0,0.026,0.0,0.0,0.006,0.136,0.078,-0.2485,-0.4372,0.3927,-0.5921,-0.3881,0.1519,-0.1289,-0.5246,0.5016,0.4449,-0.2991,0.3743,-0.4847,-0.3866,0.3804,-0.0997,-0.2163,0.0184,0.2088,-0.29,0.2808,0.0081,0.1807,0.1892,0.2913,-0.3032,0.2981,-0.2169,-0.1088,0.0866,-0.3101,-0.169,0.1378,-0.0354,0.2605,0.0521,0.2217,-0.0561,-0.102,-0.2444,-0.0712,-1.0,-1.0,-1.0,1.0,-1.0,1.0,1.0,-1.0,1.0,-1.0,-0.5268,-0.7288,-1.0,-1.0,-0.3087,-1.0,-1.0,1.0,0.0,0.0,0.0,0.0,0.0,0.0,0.0,0.0,0.0,0.1467,0.0,0.1467,0.0,0
1.48,run,3.16,2.5,-9.96,-11.81,-5.2,0.0,0.024,0.0,0.319,-13.01,-10.28,102.92,-32.08,-6.06,89.47,-4.22,-16.26,110.13,23.12,-4.57,99.23,-30.67,-8.35,99.76,-8.26,5.1,80.68,-18.26,-18.69,97.19,-27.5,-9.18,99.05,4.5,-22.39,120.57,12.26,-8.62,93.66,-32.0,-12.32,93.66,-17.82,3.73,92.34,-1.0,-0.7707,-1.0,1.0,-1.0,1.0,1.0,-1.0,1.0,-1.0,-0.1604,-0.8012,-0.7067,-1.0,0.6795,-1.0,-1.0,1.0,0.013,0.0,0.026,0.013,0.169,0.169,0.058,0.0,0.111,0.039,0.0,0.0,0.026,0.0,0.0,0.006,0.136,0.078,-0.2332,-0.4602,0.4065,-0.5798,-0.3743,0.1749,-0.1043,-0.5507,0.5262,0.4218,-0.3221,0.3743,-0.5077,-0.408,0.3789,-0.1212,-0.1979,0.0383,0.2027,-0.2879,0.2475,0.0509,0.1774,0.2173,0.2945,-0.3084,0.2992,-0.2367,-0.161,0.0606,-0.3019,-0.1975,0.0908,-0.104,0.2503,0.11,0.1907,-0.1022,-0.1575,-0.2022,-0.0819,-1.0,-1.0,-0.9999,1.0,-1.0,1.0,1.0,-1.0,1.0,-1.0,0.0732,0.5272,-0.7092,-1.0,0.1294,-1.0,-1.0,1.0,0.0,0.0,0.0,0.0,0.0,0.0,0.0,0.0,0.0,0.16,0.0,0.16,0.0,0
1.52,run,2.66,1.87,-12.7,-15.53,-0.63,0.0,0.026,0.0,0.319,-12.66,-11.6,103.01,-30.94,-5.89,90.97,-2.64,-17.67,111.53,21.71,-5.8,98.26,-31.82,-9.58,98.79,-9.58,5.54,82.09,-19.76,-20.19,95.69,-26.0,-10.68,100.55,6.0,-23.89,122.07,10.76,-7.12,95.16,-30.5,-13.82,95.16,-19.32,2.23,93.84,-1.0,-1.0,-1.0,1.0,-1.0,1.0,1.0,-1.0,1.0,-1.0,0.4711,0.7469,0.4684,-1.0,0.7686,-1.0,-1.0,1.0,0.013,0.0,0.026,0.013,0.169,0.169,0.058,0.0,0.111,0.039,0.0,0.0,0.026,0.0,0.0,0.006,0.136,0.078,-0.2224,-0.4817,0.4142,-0.5614,-0.3666,0.1994,-0.0798,-0.5737,0.5507,0.3988,-0.3482,0.359,-0.5308,-0.4326,0.3682,-0.1473,-0.1856,0.0583,0.1824,-0.2825,0.2021,0.105,0.1531,0.2447,0.2986,-0.3026,0.3019,-0.2524,-0.211,-0.0154,-0.2981,-0.2308,0.0231,-0.1711,0.2214,0.1522,0.1569,-0.1496,-0.1739,-0.206,-0.0907,-1.0,-0.7707,-1.0,1.0,-1.0,1.0,1.0,-1.0,1.0,-1.0,-0.1604,-0.8012,-0.7067,-1.0,0.6795,-1.0,-1.0,1.0,0.0,0.0,0.0,0.0,0.0,0.0,0.0,0.0,0.0,0.1733,0.0,0.1733,0.0,0
1.56,run,2.15,1.52,-13.08,-9.51,0.93,0.0,0.028,0.0,0.319,-12.74,-12.83,102.92,-29.71,-5.89,92.46,-1.05,-19.07,113.03,20.39,-7.03,96.86,-32.7,-10.81,97.56,-11.07,5.54,83.41,-21.26,-21.69,94.19,-24.5,-12.18,102.05,7.5,-25.39,123.57,9.26,-5.62,93.66,-29.0,-15.32,96.66,-20.82,0.73,95.34,-1.0,-0.8046,-1.0,1.0,-1.0,1.0,1.0,-1.0,1.0,-1.0,0.94,-1.0,1.0,-1.0,1.0,-1.0,-1.0,1.0,0.0,0.019,0.006,0.013,0.058,0.084,0.033,0.0,0.104,0.052,0.0,0.0,0.006,0.0,0.006,0.006,0.143,0.111,-0.2163,-0.5047,0.4157,-0.5415,-0.3636,0.2255,-0.0522,-0.5983,0.5752,0.3743,-0.3697,0.3421,-0.5507,-0.4541,0.3513,-0.1703,-0.1779,0.0828,0.1506,-0.2836,0.1472,0.148,0.1186,0.2686,0.3121,-0.3034,0.303,-0.2683,-0.2279,-0.0737,-0.2831,-0.2417,-0.0468,-0.2056,0.1836,0.1981,0.1133,-0.2043,-0.2217,-0.2711,-0.011,-1.0,-1.0,-1.0,1.0,-1.0,1.0,1.0,-1.0,1.0,-1.0,0.4711,0.7469,0.4684,-1.0,0.7686,-1.0,-1.0,1.0,0.0,0.0,0.0,0.0,0.0,0.0,0.0,0.0,0.0,0.1867,0.0,0.1867,0.0,0
1.6,run,1.76,1.03,-10.62,-13.94,-0.01,0.0,0.03,0.0,0.319,-13.27,-14.06,102.3,-28.48,-5.89,93.87,0.44,-20.39,114.52,18.98,-7.91,95.8,-33.31,-12.22,96.59,-12.39,5.54,84.73,-22.76,-23.19,92.69,-23.0,-13.68,103.55,9.0,-26.89,125.07,7.76,-4.12,92.16,-27.5,-16.82,98.16,-22.32,-0.77,96.84,-1.0,-1.0,-1.0,1.0,-1.0,1.0,1.0,-1.0,1.0,-1.0,1.0,-0.2683,1.0,-1.0,1.0,-1.0,-1.0,1.0,0.0,0.019,0.006,0.013,0.058,0.084,0.033,0.0,0.104,0.052,0.0,0.0,0.006,0.0,0.006,0.006,0.143,0.111,-0.2178,-0.5262,0.4142,-0.52,-0.3636,0.2516,-0.0245,-0.6228,0.6013,0.3513,-0.3912,0.3175,-0.566,-0.4755,0.3298,-0.1963,-0.1779,0.1058,0.0996,-0.2792,0.0973,0.1842,0.083,0.2859,0.3221,-0.3045,0.31,-0.2742,-0.2401,-0.1438,-0.2558,-0.2498,-0.1134,-0.2418,0.1285,0.2251,0.0689,-0.2356,-0.2282,-0.1661,0.0163,-1.0,-0.8046,-1.0,1.0,-1.0,1.0,1.0,-1.0,1.0,-1.0,0.94,-1.0,1.0,-1.0,1.0,-1.0,-1.0,1.0,0.0,0.0,0.0,0.0,0.0,0.0,0.0,0.0,0.0,0.2,0.0,0.2,0.0,0
1.64,run,1.26,0.5,-13.57,-14.69,-4.59,0.0,0.032,0.0,0.319,-14.15,-15.03,101.25,-27.6,-5.98,95.36,1.85,-21.71,115.93,17.67,-8.61,94.57,-33.66,-13.45,95.54,-13.8,5.54,86.13,-24.26,-24.69,91.19,-21.5,-15.18,105.05,10.5,-28.39,126.57,6.26,-2.62,90.66,-26.0,-18.32,99.66,-23.82,-2.27,98.34,-1.0,-0.8985,-1.0,1.0,-1.0,1.0,1.0,-0.7457,1.0,-1.0,1.0,-0.6021,1.0,-1.0,1.0,-1.0,-1.0,1.0,0.0,0.019,0.006,0.013,0.058,0.084,0.033,0.0,0.104,0.052,0.0,0.0,0.006,0.0,0.006,0.006,0.143,0.111,-0.227,-0.5476,0.4034,-0.4985,-0.3636,0.2761,0.0015,-0.6458,0.6274,0.3267,-0.4065,0.2991,-0.5768,-0.5001,0.3129,-0.2194,-0.1779,0.1289,0.0352,-0.276,0.0278,0.2095,0.0581,0.2922,0.3234,-0.2995,0.3148,-0.284,-0.2257,-0.1697,-0.2193,-0.267,-0.1427,-0.2556,0.09,0.2439,0.0352,-0.2784,-0.1853,-0.2433,-0.0002,-1.0,-1.0,-1.0,1.0,-1.0,1.0,1.0,-1.0,1.0,-1.0,1.0,-0.2683,1.0,-1.0,1.0,-1.0,-1.0,1.0,0.0,0.0,0.0,0.0,0.0,0.0,0.0,0.0,0.0,0.2133,0.0,0.2133,0.0,0
1.68,run,1.62,0.29,8.48,-6.87,-5.22,0.0,0.034,0.0,0.319,-15.03,-16.7,100.37,-25.93,-7.12,96.86,3.16,-23.29,117.33,16.26,-8.96,93.16,-32.96,-14.59,95.45,-15.12,5.45,87.45,-25.76,-26.19,89.69,-20.0,-16.68,106.55,12.0,-29.89,128.07,4.76,-1.12,89.16,-24.5,-19.82,101.16,-25.32,-3.77,99.84,-1.0,-0.8827,-1.0,1.0,-1.0,1.0,1.0,-0.1061,1.0,-1.0,1.0,-0.6125,1.0,-1.0,1.0,-1.0,-1.0,1.0,0.013,0.013,0.026,0.026,0.0,0.078,0.039,0.0,0.156,0.071,0.019,0.0,0.006,0.013,0.0,0.019,0.0,0.156,-0.2424,-0.5645,0.385,-0.4832,-0.3651,0.3022,0.0261,-0.6688,0.6519,0.3037,-0.4188,0.2777,-0.5829,-0.5216,0.2945,-0.2439,-0.1779,0.1534,-0.0328,-0.2564,-0.0495,0.2041,0.0349,0.3022,0.3182,-0.2958,0.3123,-0.285,-0.2039,-0.1992,-0.1765,-0.2673,-0.1688,-0.2708,0.063,0.2626,-0.0086,-0.3241,-0.2369,-0.2564,-0.0802,-1.0,-0.8985,-1.0,1.0,-1.0,1.0,1.0,-0.7457,1.0,-1.0,1.0,-0.6021,1.0,-1.0,1.0,-1.0,-1.0,1.0,0.0,0.0,0.0,0.0,0.0,0.0,0.0,0.0,0.0,0.2267,0.0,0.2267,0.0,0
1.72,run,1.21,0.27,-11.22,-2.16,-6.51,0.0,0.036,0.0,0.319,-16.52,-18.19,98.79,-24.61,-8.35,98.35,4.48,-24.61,118.65,14.85,-8.96,91.85,-32.43,-16.17,95.19,-16.61,4.31,88.86,-27.26,-27.69,88.19,-18.5,-18.18,108.05,13.5,-30.94,129.57,3.26,0.38,87.66,-23.0,-21.32,102.66,-26.82,-5.27,101.34,-1.0,-0.3645,-1.0,1.0,-1.0,1.0,1.0,-0.108,1.0,-1.0,1.0,0.2138,1.0,-1.0,1.0,-1.0,-1.0,1.0,0.013,0.013,0.026,0.026,0.0,0.078,0.039,0.0,0.156,0.071,0.019,0.0,0.006,0.013,0.0,0.019,0.0,0.156,-0.2577,-0.5937,0.3697,-0.4541,-0.385,0.3283,0.0491,-0.6964,0.6765,0.2792,-0.4249,0.2531,-0.5706,-0.5415,0.293,-0.2669,-0.1795,0.1764,-0.0804,-0.2886,-0.0921,0.252,-0.0502,0.3092,0.3089,-0.3105,0.3105,-0.2914,-0.1657,-0.2313,-0.0776,-0.2618,-0.1239,-0.2757,0.0383,0.27,0.0231,-0.3427,0.148,-0.1198,-0.0911,-1.0,-0.8827,-1.0,1.0,-1.0,1.0,1.0,-0.1061,1.0,-1.0,1.0,-0.6125,1.0,-1.0,1.0,-1.0,-1.0,1.0,0.0,0.0,0.0,0.0,0.0,0.0,0.0,0.0,0.0,0.24,0.0,0.24,0.0,0
1.76,run,1.36,0.42,3.22,3.82,-6.45,0.0,0.038,0.0,0.319,-18.19,-19.6,97.21,-23.2,-9.76,99.76,5.89,-25.93,120.06,13.45,-8.96,90.44,-31.38,-17.67,95.62,-18.02,3.08,90.35,-28.76,-26.19,86.69,-17.0,-19.68,109.55,15.0,-29.44,131.07,1.76,-1.12,86.16,-21.5,-22.82,104.16,-28.32,-6.77,102.84,-1.0,0.2917,-1.0,1.0,-0.9328,1.0,1.0,0.5434,1.0,-1.0,0.0542,-1.0,1.0,-1.0,1.0,-1.0,-1.0,1.0,0.013,0.013,0.026,0.026,0.0,0.078,0.039,0.0,0.156,0.071,0.019,0.0,0.006,0.013,0.0,0.019,0.0,0.156,-0.2838,-0.6197,0.3421,-0.431,-0.4065,0.3543,0.0721,-0.7194,0.6995,0.2546,-0.4249,0.2301,-0.5614,-0.5691,0.2884,-0.293,-0.1994,0.201,-0.1552,-0.3009,-0.1692,0.2637,-0.1166,0.3154,0.3035,-0.3046,0.3046,-0.2971,-0.116,-0.2492,-0.0194,-0.288,-0.1042,-0.2919,-0.0488,0.2821,-0.0133,-0.3441,-0.1958,-0.0376,-0.1136,-1.0,-0.3645,-1.0,1.0,-1.0,1.0,1.0,-0.108,1.0,-1.0,1.0,0.2138,1.0,-1.0,1.0,-1.0,-1.0,1.0,0.0,0.0,0.0,0.0,0.0,0.0,0.0,0.0,0.0,0.2533,0.0,0.2533,0.0,0
1.8,run,0.99,0.33,-9.44,-1.95,-6.04,0.0,0.04,0.0,0.319,-19.34,-21.01,95.8,-21.88,-11.16,101.34,7.21,-27.51,121.64,12.04,-8.88,88.95,-30.06,-19.07,96.42,-19.42,1.58,91.85,-30.26,-24.69,85.19,-15.5,-21.18,111.05,16.5,-27.94,132.57,0.26,-2.62,84.66,-20.0,-24.32,105.66,-29.82,-8.27,104.34,-1.0,0.6376,-1.0,1.0,-1.0,1.0,1.0,1.0,1.0,-1.0,-0.0662,0.0276,1.0,-0.8096,1.0,-1.0,-1.0,1.0,0.006,0.026,0.019,0.058,0.0,0.052,0.039,0.0,0.123,0.084,0.208,0.0,0.019,0.013,0.026,0.026,0.006,0.104,-0.3129,-0.6443,0.3145,-0.4065,-0.431,0.3789,0.0966,-0.7424,0.724,0.2301,-0.4249,0.2056,-0.543,-0.5952,0.2961,-0.3175,-0.2209,0.227,-0.2168,-0.3018,-0.2209,0.2757,-0.1727,0.3118,0.3036,-0.2986,0.3043,-0.299,-0.0812,-0.2656,0.0547,-0.2984,-0.0445,-0.2955,-0.1139,0.2943,-0.0001,-0.3313,0.0562,0.0667,-0.1125,-1.0,0.2917,-1.0,1.0,-0.9328,1.0,1.0,0.5434,1.0,-1.0,0.0542,-1.0,1.0,-1.0,1.0,-1.0,-1.0,1.0,0.0,0.0,0.0,0.0,0.0,0.0,0.0,0.0,0.0,0.2667,0.0,0.2667,0.0,0
1.84,run,1.36,0.41,7.6,1.97,-2.58,0.0,0.042,0.0,0.319,-21.18,-22.59,93.96,-20.3,-12.83,103.18,8.96,-28.83,123.22,10.46,-7.91,87.1,-28.3,-20.74,97.73,-21.09,-0.09,93.6,-31.76,-23.19,83.69,-14.0,-22.68,112.55,18.0,-26.44,134.07,-1.24,-4.12,83.16,-18.5,-25.82,107.16,-31.32,-9.77,105.84,-1.0,1.0,-1.0,1.0,-1.0,1.0,1.0,1.0,1.0,-1.0,-1.0,-1.0,1.0,-1.0,1.0,-1.0,-1.0,1.0,0.006,0.026,0.019,0.058,0.0,0.052,0.039,0.0,0.123,0.084,0.208,0.0,0.019,0.013,0.026,0.026,0.006,0.104,-0.3329,-0.6688,0.2899,-0.3835,-0.4556,0.4065,0.1197,-0.7701,0.7517,0.2056,-0.4234,0.1795,-0.52,-0.6197,0.3099,-0.3421,-0.247,0.2531,-0.2235,-0.2995,-0.2429,0.2757,-0.2091,0.3176,0.2952,-0.3083,0.3123,-0.2976,-0.0513,-0.2796,0.121,-0.2971,0.0185,-0.2951,-0.1735,0.2997,-0.0322,-0.3395,-0.1648,-0.034,-0.1055,-1.0,0.6376,-1.0,1.0,-1.0,1.0,1.0,1.0,1.0,-1.0,-0.0662,0.0276,1.0,-0.8096,1.0,-1.0,-1.0,1.0,0.0,0.0,0.0,0.0,0.0,0.0,0.0,0.0,0.0,0.28,0.0,0.28,0.0,0
1.88,run,1.42,0.79,0.03,9.9,-6.99,0.0,0.044,0.0,0.319,-22.68,-23.64,92.55,-19.16,-14.24,104.59,10.37,-29.36,124.54,9.14,-6.86,85.96,-26.98,-22.06,99.14,-22.41,-1.49,95.1,-33.26,-21.69,82.19,-12.5,-24.18,114.05,19.5,-24.94,135.57,-2.74,-5.62,81.66,-17.0,-24.32,108.66,-32.82,-11.27,107.34,-1.0,1.0,-1.0,1.0,-1.0,1.0,1.0,1.0,1.0,-1.0,-1.0,0.1874,1.0,0.648,1.0,-1.0,-1.0,1.0,0.006,0.026,0.019,0.058,0.0,0.052,0.039,0.0,0.123,0.084,0.208,0.0,0.019,0.013,0.026,0.026,0.006,0.104,-0.3651,-0.6964,0.2577,-0.3559,-0.4847,0.4387,0.1503,-0.7931,0.7793,0.1779,-0.4065,0.1473,-0.4893,-0.6489,0.3329,-0.3712,-0.2761,0.2838,-0.2557,-0.2948,-0.2693,0.2781,-0.2363,0.3216,0.3012,-0.2868,0.3037,-0.2934,0.0161,-0.2951,0.1793,-0.2978,0.0839,-0.2964,-0.2113,0.3044,0.0,-0.3322,0.1327,0.0344,-0.045,-1.0,1.0,-1.0,1.0,-1.0,1.0,1.0,1.0,1.0,-1.0,-1.0,-1.0,1.0,-1.0,1.0,-1.0,-1.0,1.0,0.0,0.0,0.0,0.0,0.0,0.0,0.0,0.0,0.0,0.2933,0.0,0.2933,0.0,0
1.92,run,1.64,1.22,5.35,10.48,-8.89,0.0,0.046,0.0,0.319,-24.08,-24.26,91.14,-17.93,-15.64,106.0,11.78,-29.71,125.86,7.65,-5.89,84.46,-25.4,-23.38,100.63,-23.91,-2.99,96.5,-34.76,-20.19,80.69,-11.0,-25.68,115.55,21.0,-23.44,134.07,-4.24,-7.12,80.16,-15.5,-22.82,110.16,-34.32,-12.77,108.84,-1.0,1.0,-1.0,1.0,-1.0,1.0,1.0,1.0,0.6975,-1.0,-1.0,-1.0,1.0,0.4669,1.0,-1.0,-1.0,1.0,0.006,0.013,0.013,0.104,0.0,0.052,0.045,0.019,0.163,0.143,0.143,0.0,0.019,0.013,0.013,0.026,0.0,0.104,-0.3912,-0.7148,0.2332,-0.3359,-0.5093,0.4633,0.1749,-0.8023,0.8023,0.1549,-0.3881,0.1273,-0.4663,-0.6719,0.3574,-0.3942,-0.3007,0.3099,-0.2759,-0.2747,-0.2797,0.2688,-0.2566,0.3163,0.3021,-0.2349,0.2981,-0.2909,0.0797,-0.2806,0.211,-0.294,0.1499,-0.293,-0.2391,0.31,0.0052,-0.2985,0.0005,0.1727,-0.122,-1.0,1.0,-1.0,1.0,-1.0,1.0,1.0,1.0,1.0,-1.0,-1.0,0.1874,1.0,0.648,1.0,-1.0,-1.0,1.0,0.0,0.0,0.0,0.0,0.0,0.0,0.0,0.0,0.0,0.3067,0.0,0.3067,0.0,0
1.96,run,1.74,1.45,3.28,6.23,-3.52,0.0,0.048,0.0,0.319,-25.4,-24.79,89.74,-16.7,-17.14,107.4,13.27,-29.88,127.18,6.15,-5.19,83.06,-23.99,-24.35,102.04,-25.22,-4.39,98.09,-35.0,-18.69,79.19,-9.5,-27.18,117.05,22.5,-21.94,132.57,-5.74,-8.62,78.66,-14.0,-21.32,111.66,-35.0,-14.27,110.34,-1.0,1.0,-1.0,1.0,-1.0,1.0,1.0,1.0,0.4116,-1.0,-1.0,-0.1157,1.0,1.0,1.0,-1.0,-1.0,1.0,0.006,0.013,0.013,0.104,0.0,0.052,0.045,0.019,0.163,0.143,0.143,0.0,0.019,0.013,0.013,0.026,0.0,0.104,-0.4157,-0.7256,0.2086,-0.3145,-0.5338,0.4878,0.1994,-0.8084,0.8253,0.1289,-0.3712,0.1012,-0.4387,-0.6949,0.3835,-0.4203,-0.3267,0.3344,-0.2845,-0.2323,-0.2871,0.2681,-0.2709,0.3127,0.3028,-0.1873,0.2943,-0.3007,0.1186,-0.2935,0.2505,-0.2914,0.202,-0.3021,-0.2644,0.3083,0.0247,-0.2615,0.0934,0.1829,-0.1552,-1.0,1.0,-1.0,1.0,-1.0,1.0,1.0,1.0,0.6975,-1.0,-1.0,-1.0,1.0,0.4669,1.0,-1.0,-1.0,1.0,0.0,0.0,0.0,0.0,0.0,0.0,0.0,0.0,0.0,0.32,0.0,0.32,0.0,0
2.0,run,1.72,1.82,0.65,8.35,3.12,0.0,0.05,0.0,0.319,-26.89,-24.87,88.24,-15.38,-18.37,108.72,14.77,-29.88,128.5,4.57,-4.75,81.65,-22.59,-25.05,103.45,-26.63,-5.8,99.58,-35.0,-17.19,77.69,-8.0,-28.68,118.55,24.0,-20.44,131.07,-7.24,-10.12,77.16,-12.5,-19.82,113.16,-35.0,-15.77,111.84,-1.0,1.0,-1.0,1.0,-1.0,1.0,1.0,1.0,-0.4928,-1.0,-1.0,-0.2892,1.0,1.0,1.0,-1.0,-1.0,1.0,0.006,0.013,0.013,0.104,0.0,0.052,0.045,0.019,0.163,0.143,0.143,0.0,0.019,0.013,0.013,0.026,0.0,0.104,-0.4387,-0.7348,0.1841,-0.293,-0.5599,0.5123,0.2255,-0.8115,0.8483,0.1028,-0.359,0.0767,-0.4142,-0.7118,0.408,-0.4433,-0.3513,0.362,-0.2855,-0.1971,-0.2932,0.2683,-0.2876,0.3111,0.3099,-0.1426,0.2924,-0.3084,0.1291,-0.2976,0.2675,-0.2673,0.2336,-0.2979,-0.2773,0.3195,0.0331,-0.2409,0.0572,0.1088,-0.0615,-1.0,1.0,-1.0,1.0,-1.0,1.0,1.0,1.0,0.4116,-1.0,-1.0,-0.1157,1.0,1.0,1.0,-1.0,-1.0,1.0,0.0,0.0,0.0,0.0,0.0,0.0,0.0,0.0,0.0,0.3333,0.0,0.3333,0.0,0
2.04,run,1.71,2.75,2.11,22.35,-3.1,0.0,0.05,0.0,0.319,-28.39,-24.87,86.84,-13.71,-19.78,109.95,16.17,-29.79,129.73,2.9,-4.66,80.24,-21.27,-25.49,104.85,-28.04,-7.21,101.07,-35.0,-15.69,76.19,-6.5,-30.18,120.05,25.5,-18.94,129.57,-8.74,-11.62,75.66,-11.0,-18.32,114.66,-35.0,-17.27,113.34,-1.0,1.0,-1.0,1.0,-1.0,1.0,1.0,1.0,-1.0,-1.0,-1.0,0.1218,1.0,1.0,1.0,-1.0,-1.0,1.0,0.006,0.013,0.013,0.065,0.0,0.117,0.033,0.234,0.143,0.026,0.026,0.0,0.013,0.006,0.013,0.039,0.0,0.084,-0.4648,-0.7363,0.158,-0.27,-0.5814,0.5354,0.2516,-0.8115,0.8713,0.0752,-0.3513,0.0522,-0.3896,-0.724,0.4326,-0.4679,-0.3758,0.3881,-0.2981,-0.1438,-0.3035,0.2745,-0.2822,0.3044,0.3151,-0.0998,0.2914,-0.3199,0.1192,-0.3008,0.2797,-0.2334,0.256,-0.301,-0.2865,0.3219,0.0314,-0.2087,0.0113,0.1457,0.0545,-1.0,1.0,-1.0,1.0,-1.0,1.0,1.0,1.0,-0.4928,-1.0,-1.0,-0.2892,1.0,1.0,1.0,-1.0,-1.0,1.0,0.0,0.0,0.0,0.0,0.0,0.0,0.0,0.0,0.0,0.3333,0.0,0.3333,0.0,0
2.08,run,1.77,3.5,1.89,17.39,-2.33,0.0,0.05,0.0,0.319,-29.71,-24.08,85.43,-12.22,-21.18,111.45,17.67,-28.92,130.69,1.41,-4.57,78.93,-19.86,-25.66,106.17,-29.53,-8.79,102.39,-35.0,-14.19,74.69,-5.0,-31.68,121.55,27.0,-17.44,128.07,-10.24,-13.12,74.16,-9.5,-16.82,116.16,-35.0,-18.77,114.84,-1.0,1.0,-1.0,1.0,-1.0,1.0,1.0,1.0,-1.0,-1.0,-1.0,-0.1402,1.0,1.0,1.0,-1.0,-0.3909,1.0,0.006,0.013,0.013,0.065,0.0,0.117,0.033,0.234,0.143,0.026,0.026,0.0,0.013,0.006,0.013,0.039,0.0,0.084,-0.4909,-0.7363,0.1335,-0.2408,-0.6059,0.5568,0.2761,-0.8099,0.8928,0.046,-0.3497,0.0276,-0.3666,-0.7317,0.4571,-0.4924,-0.4004,0.4142,-0.3061,-0.1006,-0.3041,0.301,-0.2892,0.2933,0.3123,-0.0642,0.2842,-0.3328,0.0892,-0.3022,0.2818,-0.192,0.2709,-0.3024,-0.2923,0.3227,0.0308,-0.1276,0.0368,0.39,-0.0542,-1.0,1.0,-1.0,1.0,-1.0,1.0,1.0,1.0,-1.0,-1.0,-1.0,0.1218,1.0,1.0,1.0,-1.0,-1.0,1.0,0.0,0.0,0.0,0.0,0.0,0.0,0.0,0.0,0.0,0.3333,0.0,0.3333,0.0,0
2.12,run,1.61,4.17,-6.67,17.78,-1.03,0.0,0.05,0.0,0.319,-31.11,-23.12,84.02,-10.81,-22.59,112.94,19.16,-27.86,131.22,-0.18,-4.75,77.61,-18.46,-25.31,107.49,-30.85,-10.02,103.62,-35.0,-12.69,73.19,-6.5,-33.18,123.05,28.5,-15.94,126.57,-11.74,-14.62,75.66,-8.0,-15.32,114.66,-35.0,-20.27,116.34,-1.0,1.0,-0.938,-0.276,-1.0,1.0,1.0,1.0,-1.0,-1.0,-1.0,0.4638,1.0,1.0,-0.4498,-1.0,-0.2406,1.0,0.006,0.013,0.013,0.065,0.0,0.117,0.033,0.234,0.143,0.026,0.026,0.0,0.013,0.006,0.013,0.039,0.0,0.084,-0.5139,-0.7225,0.1089,-0.2148,-0.6305,0.5829,0.3022,-0.7946,0.9097,0.0199,-0.3482,0.0046,-0.3421,-0.7348,0.4801,-0.5185,-0.428,0.4372,-0.3009,-0.0185,-0.3053,0.3089,-0.2949,0.3035,0.3168,0.0128,0.2625,-0.3311,0.0682,-0.2982,0.2896,-0.146,0.2762,-0.3098,-0.3085,0.3125,0.0361,-0.0628,0.0331,0.3036,-0.0406,-1.0,1.0,-1.0,1.0,-1.0,1.0,1.0,1.0,-1.0,-1.0,-1.0,-0.1402,1.0,1.0,1.0,-1.0,-0.3909,1.0,0.0,0.0,0.0,0.0,0.0,0.0,0.0,0.0,0.0,0.3333,0.0,0.3333,0.0,0
2.16,run,1.69,5.12,0.26,23.25,18.7,0.0,0.05,0.0,0.52,-32.43,-21.88,82.62,-9.49,-23.91,114.35,20.57,-26.81,131.4,-1.58,-5.71,76.38,-17.05,-24.61,108.72,-32.26,-11.51,104.85,-33.5,-11.19,74.69,-8.0,-34.68,124.55,30.0,-14.44,125.07,-13.24,-16.12,77.16,-6.5,-13.82,113.16,-35.0,-21.77,117.84,-0.2165,1.0,0.3343,-1.0,-1.0,1.0,1.0,0.9432,-1.0,-0.6688,-1.0,0.9576,1.0,1.0,-1.0,-1.0,-0.5493,1.0,0.006,0.019,0.013,0.058,0.0,0.136,0.019,0.52,0.071,0.026,0.013,0.0,0.019,0.045,0.039,0.019,0.0,0.123,-0.5384,-0.7056,0.0844,-0.1902,-0.655,0.609,0.3283,-0.7762,0.9189,-0.0077,-0.3513,-0.0184,-0.3175,-0.7286,0.5031,-0.5415,-0.4495,0.4587,-0.3021,0.05,-0.3052,0.3077,-0.2979,0.3097,0.319,0.0776,0.218,-0.3348,0.0363,-0.2945,0.2943,-0.0793,0.2792,-0.3027,-0.296,0.2989,0.0221,-0.0038,-0.1164,0.3102,-0.0179,-1.0,1.0,-0.938,-0.276,-1.0,1.0,1.0,1.0,-1.0,-1.0,-1.0,0.4638,1.0,1.0,-0.4498,-1.0,-0.2406,1.0,0.0,0.0,0.0,0.0,0.0,0.0,0.0,0.0,0.0,0.3333,0.0,0.3333,0.0,0
2.2,run,1.82,5.62,4.48,9.48,20.83,0.0,0.05,0.0,0.52,-33.57,-20.3,80.6,-8.26,-25.4,115.66,22.15,-25.4,131.48,-3.16,-6.77,75.5,-15.64,-23.82,110.13,-33.22,-12.92,106.17,-32.0,-9.69,76.19,-9.5,-36.18,126.05,31.5,-15.94,123.57,-11.74,-17.62,78.66,-5.0,-12.32,111.66,-35.0,-23.27,119.34,1.0,1.0,1.0,-1.0,-1.0,1.0,1.0,-1.0,-1.0,0.4564,-1.0,1.0,1.0,1.0,-1.0,-1.0,-0.4911,1.0,0.006,0.019,0.013,0.058,0.0,0.136,0.019,0.52,0.071,0.026,0.013,0.0,0.019,0.045,0.039,0.019,0.0,0.123,-0.5614,-0.6842,0.0598,-0.1672,-0.678,0.6335,0.3528,-0.7578,0.9219,-0.0322,-0.3682,-0.0399,-0.293,-0.7164,0.5246,-0.566,-0.4755,0.4801,-0.298,0.1157,-0.3059,0.3019,-0.295,0.309,0.3155,0.1235,0.1642,-0.3265,-0.038,-0.2869,0.2982,-0.0094,0.2761,-0.3041,-0.3052,0.2899,0.0288,0.0792,0.0045,0.4058,0.3263,-0.2165,1.0,0.3343,-1.0,-1.0,1.0,1.0,0.9432,-1.0,-0.6688,-1.0,0.9576,1.0,1.0,-1.0,-1.0,-0.5493,1.0,0.0,0.0,0.0,0.0,0.0,0.0,0.0,0.0,0.0,0.3333,0.0,0.3333,0.0,0
2.24,run,1.93,6.14,0.79,9.47,11.65,0.0,0.05,0.0,0.52,-34.37,-18.9,79.63,-7.21,-26.72,116.98,23.55,-23.99,131.48,-4.75,-7.73,75.06,-14.15,-22.59,111.18,-33.93,-14.33,107.58,-30.5,-8.19,77.69,-11.0,-37.68,127.55,33.0,-17.44,122.07,-10.24,-19.12,80.16,-3.5,-10.82,110.16,-35.0,-24.77,117.84,1.0,1.0,1.0,-1.0,-1.0,0.8375,1.0,-1.0,-1.0,1.0,-1.0,1.0,1.0,1.0,-1.0,-1.0,-1.0,0.0785,0.006,0.019,0.013,0.058,0.0,0.136,0.019,0.52,0.071,0.026,0.013,0.0,0.019,0.045,0.039,0.019,0.0,0.123,-0.5814,-0.6565,0.0245,-0.1457,-0.7041,0.6565,0.3804,-0.7332,0.9235,-0.0598,-0.3866,-0.0552,-0.2684,-0.7026,0.5492,-0.5829,-0.5001,0.5031,-0.2814,0.1818,-0.3429,0.2897,-0.3017,0.3003,0.3217,0.1761,0.1205,-0.3294,-0.0938,-0.2568,0.2984,0.0438,0.2829,-0.2745,-0.3033,0.2869,0.0402,0.1229,0.0782,0.1654,0.3636,1.0,1.0,1.0,-1.0,-1.0,1.0,1.0,-1.0,-1.0,0.4564,-1.0,1.0,1.0,1.0,-1.0,-1.0,-0.4911,1.0,0.0,0.0,0.0,0.0,0.0,0.0,0.0,0.0,0.0,0.3333,0.0,0.3333,0.0,0
2.28,run,2.28,6.78,7.8,12.97,7.06,0.0,0.05,0.0,0.52,-34.8,-17.58,78.13,-6.42,-28.39,118.65,25.14,-22.41,130.69,-6.33,-9.67,74.44,-12.66,-21.09,111.97,-34.45,-15.82,109.25,-29.0,-6.69,79.19,-12.5,-39.18,126.05,34.5,-18.94,120.57,-8.74,-20.62,81.66,-2.0,-9.32,108.66,-35.0,-26.27,116.34,1.0,1.0,1.0,-1.0,-1.0,-1.0,1.0,-1.0,-1.0,1.0,-1.0,1.0,0.9416,1.0,-1.0,-1.0,-1.0,-1.0,0.006,0.045,0.006,0.006,0.0,0.163,0.033,0.396,0.0,0.006,0.019,0.006,0.019,0.104,0.026,0.013,0.0,0.143,-0.5952,-0.632,0.0077,-0.1273,-0.7271,0.6796,0.405,-0.7087,0.9235,-0.0874,-0.4034,-0.0629,-0.2424,-0.6811,0.5676,-0.5952,-0.5246,0.5277,-0.2479,0.2179,-0.3024,0.2708,-0.2962,0.2952,0.3158,0.2139,0.0844,-0.3325,-0.128,-0.2081,0.3051,0.11,0.266,-0.2375,-0.3029,0.2915,0.0497,0.1677,0.0137,0.1653,0.2034,1.0,1.0,1.0,-1.0,-1.0,0.8375,1.0,-1.0,-1.0,1.0,-1.0,1.0,1.0,1.0,-1.0,-1.0,-1.0,0.0785,0.0,0.0,0.0,0.0,0.0,0.0,0.0,0.0,0.0,0.3333,0.0,0.3333,0.0,0
2.32,run,2.47,7.14,5.98,6.61,10.98,0.0,0.05,0.0,0.52,-34.89,-16.61,77.43,-6.24,-29.62,120.06,26.28,-21.36,129.81,-7.56,-10.81,74.53,-11.34,-19.95,112.32,-34.63,-17.05,110.57,-27.5,-5.19,80.69,-14.0,-40.68,124.55,35.0,-20.44,119.07,-7.24,-22.12,83.16,-3.5,-7.82,107.16,-35.0,-27.77,114.84,1.0,1.0,1.0,-1.0,-1.0,-1.0,1.0,-1.0,-1.0,1.0,-1.0,1.0,-0.2165,1.0,-1.0,-1.0,-0.6815,-1.0,0.006,0.045,0.006,0.006,0.0,0.163,0.033,0.396,0.0,0.006,0.019,0.006,0.019,0.104,0.026,0.013,0.0,0.143,-0.6029,-0.609,-0.0184,-0.1135,-0.7563,0.7087,0.4326,-0.6811,0.9097,-0.115,-0.4372,-0.0736,-0.2163,-0.655,0.5814,-0.6044,-0.5507,0.5568,-0.1983,0.2269,-0.2959,0.2342,-0.3015,0.3008,0.3103,0.2389,0.0144,-0.322,-0.1986,-0.1804,0.2979,0.1613,0.2308,-0.196,-0.2963,0.2982,0.0801,0.2238,0.1362,0.2263,0.1232,1.0,1.0,1.0,-1.0,-1.0,-1.0,1.0,-1.0,-1.0,1.0,-1.0,1.0,0.9416,1.0,-1.0,-1.0,-1.0,-1.0,0.0,0.0,0.0,0.0,0.0,0.0,0.0,0.0,0.0,0.3333,0.0,0.3333,0.0,0
2.36,run,2.73,7.72,6.43,13.0,11.39,0.0,0.05,0.0,0.52,-34.37,-15.21,76.64,-6.15,-31.03,121.2,27.6,-20.3,128.85,-8.53,-12.22,75.15,-10.28,-19.07,112.5,-34.63,-18.19,112.06,-26.0,-3.69,82.19,-15.5,-42.18,123.05,35.0,-21.94,117.57,-5.74,-23.62,84.66,-5.0,-6.32,105.66,-33.5,-29.27,113.34,1.0,1.0,1.0,-1.0,-1.0,-1.0,1.0,-1.0,-1.0,1.0,-1.0,1.0,-1.0,1.0,-1.0,-0.927,-0.7434,-1.0,0.006,0.045,0.006,0.006,0.0,0.163,0.033,0.396,0.0,0.006,0.019,0.006,0.019,0.104,0.026,0.013,0.0,0.143,-0.6044,-0.5921,-0.0307,-0.1104,-0.7777,0.7332,0.4525,-0.6627,0.8943,-0.1365,-0.4571,-0.0721,-0.1933,-0.6351,0.5875,-0.6075,-0.5722,0.5798,-0.1452,0.2291,-0.2583,0.1767,-0.3005,0.3128,0.3003,0.2439,-0.0538,-0.3149,-0.2221,-0.1199,0.3044,0.1959,0.1871,-0.1499,-0.2969,0.3046,0.0968,0.2549,0.1043,0.1155,0.1916,1.0,1.0,1.0,-1.0,-1.0,-1.0,1.0,-1.0,-1.0,1.0,-1.0,1.0,-0.2165,1.0,-1.0,-1.0,-0.6815,-1.0,0.0,0.0,0.0,0.0,0.0,0.0,0.0,0.0,0.0,0.3333,0.0,0.3333,0.0,0
2.4,run,2.99,8.12,5.77,10.19,11.03,0.0,0.05,0.0,0.52,-33.57,-14.06,76.29,-6.15,-32.43,122.26,29.0,-19.34,127.97,-9.23,-13.54,75.94,-8.96,-17.93,112.15,-34.37,-19.51,113.2,-24.5,-2.19,83.69,-17.0,-43.68,121.55,35.0,-23.44,116.07,-4.24,-25.12,86.16,-6.5,-4.82,104.16,-32.0,-30.77,111.84,1.0,1.0,1.0,-1.0,-1.0,-1.0,1.0,-1.0,-1.0,1.0,-1.0,1.0,-1.0,1.0,-1.0,0.3451,-0.7865,-1.0,0.006,0.026,0.0,0.0,0.0,0.084,0.026,0.357,0.0,0.006,0.019,0.013,0.013,0.156,0.0,0.0,0.0,0.058,-0.5952,-0.5676,-0.0445,-0.1089,-0.8023,0.7532,0.4755,-0.6443,0.8774,-0.1534,-0.4817,-0.0614,-0.1749,-0.6197,0.5906,-0.6075,-0.5921,0.6059,-0.0674,0.2517,-0.2322,0.1294,-0.3017,0.2932,0.2958,0.2393,-0.1004,-0.2832,-0.2468,-0.0439,0.2816,0.1942,0.1424,-0.105,-0.282,0.3103,0.12,0.306,0.1122,0.2268,0.1988,1.0,1.0,1.0,-1.0,-1.0,-1.0,1.0,-1.0,-1.0,1.0,-1.0,1.0,-1.0,1.0,-1.0,-0.927,-0.7434,-1.0,0.0,0.0,0.0,0.0,0.0,0.0,0.0,0.0,0.0,0.3333,0.0,0.3333,0.0,0
2.44,run,3.18,8.42,4.3,8.56,12.34,0.0,0.05,0.0,0.52,-32.7,-13.18,76.29,-6.15,-33.57,123.05,30.23,-18.37,127.09,-9.58,-14.85,76.99,-7.91,-17.05,111.36,-33.84,-20.65,113.99,-23.0,-0.69,85.19,-18.5,-45.18,120.05,35.0,-24.94,114.57,-2.74,-26.62,87.66,-8.0,-3.32,102.66,-30.5,-32.27,110.34,1.0,0.7642,1.0,-1.0,-1.0,-1.0,1.0,-1.0,-1.0,1.0,-1.0,1.0,-1.0,1.0,-1.0,1.0,-0.5547,-1.0,0.006,0.026,0.0,0.0,0.0,0.084,0.026,0.357,0.0,0.006,0.019,0.013,0.013,0.156,0.0,0.0,0.0,0.058,-0.5814,-0.5476,-0.0506,-0.1089,-0.8268,0.7716,0.5001,-0.6274,0.8621,-0.1657,-0.5047,-0.0476,-0.1519,-0.5998,0.5844,-0.6029,-0.6151,0.6259,0.0018,0.2469,-0.1843,0.0906,-0.2982,0.2705,0.2941,0.2273,-0.1247,-0.2417,-0.2543,0.0182,0.2786,0.2067,0.0779,-0.0572,-0.279,0.2879,0.1422,0.3406,0.1007,0.1778,0.1926,1.0,1.0,1.0,-1.0,-1.0,-1.0,1.0,-1.0,-1.0,1.0,-1.0,1.0,-1.0,1.0,-1.0,0.3451,-0.7865,-1.0,0.0,0.0,0.0,0.0,0.0,0.0,0.0,0.0,0.0,0.3333,0.0,0.3333,0.0,0
2.48,run,3.5,8.8,6.24,11.68,12.04,0.0,0.05,0.0,0.52,-31.73,-12.3,76.55,-6.06,-34.63,123.57,31.46,-17.31,126.04,-9.58,-15.91,78.05,-6.94,-16.0,110.48,-32.87,-21.71,114.61,-21.5,-0.72,86.69,-20.0,-46.68,118.55,35.0,-26.44,113.07,-1.24,-28.12,89.16,-9.5,-1.82,101.16,-29.0,-33.77,108.84,1.0,0.4415,1.0,-1.0,-1.0,-1.0,1.0,-1.0,-1.0,1.0,-1.0,1.0,-1.0,1.0,-1.0,1.0,-0.3712,-1.0,0.006,0.026,0.0,0.0,0.0,0.084,0.026,0.357,0.0,0.006,0.019,0.013,0.013,0.156,0.0,0.0,0.0,0.058,-0.566,-0.5323,-0.0506,-0.1089,-0.8468,0.7854,0.5216,-0.6105,0.8468,-0.1718,-0.5277,-0.0291,-0.1335,-0.5844,0.5706,-0.5937,-0.6351,0.6397,0.0625,0.234,-0.129,0.0634,-0.2883,0.2444,0.2916,0.2265,-0.1485,-0.1937,-0.2699,0.0862,0.2685,0.2059,-0.0006,-0.0033,-0.2749,0.2566,0.1591,0.3672,0.075,0.1494,0.2153,1.0,0.7642,1.0,-1.0,-1.0,-1.0,1.0,-1.0,-1.0,1.0,-1.0,1.0,-1.0,1.0,-1.0,1.0,-0.5547,-1.0,0.0,0.0,0.0,0.0,0.0,0.0,0.0,0.0,0.0,0.3333,0.0,0.3333,0.0,0
2.52,run,3.79,9.0,6.6,5.89,15.06,0.0,0.05,0.0,0.52,-30.41,-11.43,77.26,-5.62,-35.86,123.66,32.61,-16.52,124.98,-9.14,-17.31,79.28,-6.15,-14.77,109.16,-31.73,-22.94,114.7,-20.0,-1.7,88.19,-21.5,-48.18,117.05,35.0,-27.94,111.57,0.26,-29.62,90.66,-11.0,-0.32,99.66,-27.5,-32.27,107.34,1.0,0.4237,1.0,-1.0,-1.0,-1.0,1.0,-1.0,-1.0,1.0,-1.0,1.0,-1.0,1.0,-1.0,1.0,-0.0638,-1.0,0.006,0.078,0.033,0.026,0.0,0.0,0.013,0.286,0.013,0.013,0.019,0.013,0.0,0.189,0.0,0.019,0.0,0.006,-0.5492,-0.517,-0.046,-0.1074,-0.8652,0.7946,0.543,-0.5921,0.8283,-0.1718,-0.5461,-0.0107,-0.1166,-0.566,0.5553,-0.5768,-0.6535,0.6504,0.1067,0.2211,-0.0731,0.0501,-0.2706,0.2055,0.2843,0.2272,-0.1727,-0.1356,-0.2576,0.1291,0.251,0.2129,-0.0577,0.0607,-0.2611,0.2197,0.1871,0.4003,0.109,0.2039,0.2102,1.0,0.4415,1.0,-1.0,-1.0,-1.0,1.0,-1.0,-1.0,1.0,-1.0,1.0,-1.0,1.0,-1.0,1.0,-0.3712,-1.0,0.0,0.0,0.0,0.0,0.0,0.0,0.0,0.0,0.0,0.3333,0.0,0.3333,0.0,0
2.56,run,3.94,9.3,2.36,6.98,5.58,0.0,0.05,0.0,0.52,-29.27,-10.46,78.22,-5.8,-37.18,123.57,33.49,-15.82,123.84,-8.09,-18.63,80.68,-5.54,-13.54,108.11,-30.67,-24.17,114.7,-18.5,-3.2,89.69,-23.0,-49.68,115.55,33.5,-29.44,110.07,1.76,-31.12,92.16,-12.5,1.18,98.16,-26.0,-30.77,105.84,0.6555,-0.2688,1.0,-1.0,-1.0,-1.0,0.5574,-1.0,-1.0,1.0,-1.0,1.0,-1.0,1.0,-1.0,1.0,0.1382,-1.0,0.006,0.078,0.033,0.026,0.0,0.0,0.013,0.286,0.013,0.013,0.019,0.013,0.0,0.189,0.0,0.019,0.0,0.006,-0.5262,-0.5016,-0.0337,-0.0997,-0.8866,0.7961,0.563,-0.5783,0.8099,-0.1641,-0.5706,0.0107,-0.1028,-0.5446,0.5323,-0.5568,-0.675,0.6519,0.1618,0.2128,-0.0047,0.0641,-0.2707,0.1496,0.2745,0.2113,-0.1906,-0.0659,-0.2733,0.1716,0.2279,0.2303,-0.1275,0.118,-0.2641,0.1596,0.2123,0.4175,0.1153,0.1028,0.2629,1.0,0.4237,1.0,-1.0,-1.0,-1.0,1.0,-1.0,-1.0,1.0,-1.0,1.0,-1.0,1.0,-1.0,1.0,-0.0638,-1.0,0.0,0.0,0.0,0.0,0.0,0.0,0.0,0.0,0.0,0.3333,0.0,0.3333,0.0,0
2.6,run,4.23,9.56,6.53,5.22,2.36,0.0,0.05,0.0,0.52,-28.3,-9.58,79.19,-6.33,-38.41,122.78,34.01,-15.21,123.05,-7.12,-19.95,81.91,-4.83,-12.57,106.96,-29.53,-25.31,114.35,-17.0,-4.7,91.19,-24.5,-51.18,114.05,32.0,-30.94,108.57,3.26,-32.62,93.66,-14.0,2.68,96.66,-24.5,-29.27,104.34,0.4013,-0.3314,1.0,-1.0,-1.0,-1.0,-0.6808,-1.0,-1.0,1.0,-1.0,1.0,-1.0,1.0,-1.0,1.0,0.3455,-1.0,0.006,0.078,0.033,0.026,0.0,0.0,0.013,0.286,0.013,0.013,0.019,0.013,0.0,0.189,0.0,0.019,0.0,0.006,-0.5062,-0.4847,-0.0169,-0.1028,-0.9097,0.7946,0.5783,-0.566,0.79,-0.1457,-0.5937,0.0353,-0.092,-0.5231,0.5139,-0.5384,-0.6964,0.6519,0.1877,0.212,0.0597,0.0334,-0.2754,0.099,0.2494,0.1937,-0.2078,0.0226,-0.2772,0.2117,0.1996,0.2414,-0.1579,0.1513,-0.265,0.1117,0.225,0.4439,0.0412,0.1218,0.0973,0.6555,-0.2688,1.0,-1.0,-1.0,-1.0,0.5574,-1.0,-1.0,1.0,-1.0,1.0,-1.0,1.0,-1.0,1.0,0.1382,-1.0,0.0,0.0,0.0,0.0,0.0,0.0,0.0,0.0,0.0,0.3333,0.0,0.3333,0.0,0
2.64,run,4.58,9.86,8.18,7.41,3.62,0.0,0.05,0.0,0.52,-27.07,-8.7,80.24,-6.77,-39.73,121.99,34.19,-14.5,121.82,-5.8,-21.27,83.32,-4.39,-11.43,105.91,-28.39,-26.46,113.47,-15.5,-6.2,92.69,-26.0,-49.68,112.55,30.5,-32.44,107.07,4.76,-34.12,95.16,-15.5,4.18,95.16,-23.0,-27.77,102.84,1.0,-0.5732,1.0,-1.0,-0.2883,-1.0,-1.0,-1.0,-1.0,1.0,-1.0,1.0,-1.0,1.0,-1.0,1.0,0.0416,-1.0,0.019,0.136,0.071,0.026,0.0,0.013,0.0,0.286,0.013,0.0,0.019,0.0,0.006,0.201,0.006,0.013,0.006,0.006,-0.4893,-0.4694,0.0,-0.112,-0.9311,0.7808,0.5875,-0.5553,0.7762,-0.1289,-0.6167,0.0568,-0.0798,-0.5062,0.4939,-0.5185,-0.7164,0.6458,0.1944,0.2056,0.1048,-0.011,-0.2729,0.0178,0.2089,0.1757,-0.197,0.0788,-0.2799,0.2284,0.1856,0.2319,-0.185,0.1804,-0.26,0.0553,0.2504,0.466,0.1139,0.0911,0.0412,0.4013,-0.3314,1.0,-1.0,-1.0,-1.0,-0.6808,-1.0,-1.0,1.0,-1.0,1.0,-1.0,1.0,-1.0,1.0,0.3455,-1.0,0.0,0.0,0.0,0.0,0.0,0.0,0.0,0.0,0.0,0.3333,0.0,0.3333,0.0,0
2.68,run,5.39,10.14,19.1,7.92,11.44,0.0,0.05,0.0,0.52,-26.02,-8.0,81.47,-7.56,-40.96,120.76,34.19,-14.15,120.67,-4.48,-22.68,84.64,-3.96,-10.28,104.68,-27.07,-26.98,112.41,-14.0,-7.7,94.19,-27.5,-48.18,111.05,29.0,-33.94,105.57,6.26,-35.62,96.66,-17.0,5.68,93.66,-21.5,-26.27,101.34,0.8302,-0.2809,0.7577,-1.0,0.2201,-1.0,-1.0,-1.0,-1.0,1.0,-1.0,1.0,-1.0,1.0,-1.0,1.0,0.3876,-1.0,0.019,0.136,0.071,0.026,0.0,0.013,0.0,0.286,0.013,0.0,0.019,0.0,0.006,0.201,0.006,0.013,0.006,0.006,-0.4679,-0.4541,0.0184,-0.1197,-0.9541,0.767,0.5906,-0.543,0.7547,-0.1058,-0.6397,0.0813,-0.0721,-0.4863,0.4755,-0.4985,-0.7363,0.6305,0.2168,0.2016,0.1425,-0.0365,-0.2775,-0.0394,0.1578,0.1691,-0.2186,0.1416,-0.2824,0.2521,0.1587,0.2373,-0.1987,0.2012,-0.2569,-0.0189,0.2811,0.4929,0.1428,0.1293,0.0632,1.0,-0.5732,1.0,-1.0,-0.2883,-1.0,-1.0,-1.0,-1.0,1.0,-1.0,1.0,-1.0,1.0,-1.0,1.0,0.0416,-1.0,0.0,0.0,0.0,0.0,0.0,0.0,0.0,0.0,0.0,0.3333,0.0,0.3333,0.0,0
2.72,run,7.19,8.65,12.73,-9.98,12.66,0.0,0.05,0.0,0.52,-22.06,-6.33,85.87,-10.63,-44.3,116.28,31.82,-13.54,116.98,-0.26,-27.42,89.38,-4.13,-5.54,100.46,-22.59,-28.74,108.46,-12.5,-9.2,95.69,-29.0,-46.68,109.55,27.5,-35.44,104.07,7.76,-37.12,98.16,-18.5,7.18,92.16,-20.0,-24.77,99.84,1.0,-0.481,0.4734,-1.0,0.027,-1.0,-1.0,-1.0,-1.0,1.0,-1.0,1.0,-1.0,1.0,-1.0,1.0,0.7506,-1.0,0.058,0.208,0.104,0.019,0.006,0.006,0.039,0.0,0.058,0.006,0.019,0.006,0.019,0.078,0.0,0.013,0.006,0.006,-0.4495,-0.4418,0.0399,-0.1335,-0.9756,0.7455,0.5906,-0.5369,0.7348,-0.0828,-0.6642,0.1043,-0.0644,-0.4663,0.4541,-0.4755,-0.7455,0.6121,0.221,0.1873,0.1805,-0.0775,-0.2751,-0.1084,0.1104,0.1415,-0.228,0.1857,-0.29,0.263,0.14,0.2411,-0.2199,0.2274,-0.2145,-0.0825,0.3516,0.517,0.3334,0.1382,0.1996,0.8302,-0.2809,0.7577,-1.0,0.2201,-1.0,-1.0,-1.0,-1.0,1.0,-1.0,1.0,-1.0,1.0,-1.0,1.0,0.3876,-1.0,0.0,0.0,0.0,0.0,0.0,0.0,0.0,0.0,0.0,0.3333,0.0,0.3333,0.0,0
2.76,run,7.94,7.84,14.01,-12.77,18.98,0.0,0.05,0.0,0.52,-20.48,-6.33,87.71,-12.48,-45.7,114.61,30.41,-14.15,115.31,1.58,-29.27,91.14,-5.1,-3.6,98.61,-21.18,-28.39,106.61,-11.0,-10.7,97.19,-30.5,-45.18,108.05,26.0,-36.94,102.57,9.26,-35.62,99.66,-20.0,8.68,90.66,-18.5,-23.27,98.34,0.0341,-1.0,0.909,-1.0,0.7633,-1.0,-1.0,-1.0,-1.0,1.0,-0.1778,1.0,-1.0,1.0,-1.0,1.0,1.0,-1.0,0.058,0.208,0.104,0.019,0.006,0.006,0.039,0.0,0.058,0.006,0.019,0.006,0.019,0.078,0.0,0.013,0.006,0.006,-0.3804,-0.4126,0.1166,-0.1871,-1.0339,0.6673,0.5492,-0.5262,0.6703,-0.0092,-0.747,0.1871,-0.0675,-0.3835,0.3804,-0.3973,-0.7762,0.543,0.2292,0.1626,0.2092,-0.1122,-0.2555,-0.1603,0.0326,0.1106,-0.2292,0.2095,-0.2924,0.2736,0.0947,0.2582,-0.2334,0.2436,-0.1832,-0.1323,0.5088,0.3872,0.2222,-0.1742,0.2209,1.0,-0.481,0.4734,-1.0,0.027,-1.0,-1.0,-1.0,-1.0,1.0,-1.0,1.0,-1.0,1.0,-1.0,1.0,0.7506,-1.0,0.0,0.0,0.0,0.0,0.0,0.0,0.0,0.0,0.0,0.3333,0.0,0.3333,0.0,0
2.8,run,8.28,7.59,7.53,-5.59,20.96,0.0,0.05,0.0,0.52,-19.25,-6.33,88.95,-13.8,-46.14,113.64,29.53,-14.85,114.17,2.64,-30.5,92.29,-5.8,-2.46,97.82,-20.13,-27.69,105.47,-9.5,-12.2,98.69,-32.0,-43.68,106.55,24.5,-38.44,101.07,10.76,-34.12,101.16,-21.5,10.18,89.16,-17.0,-21.77,96.84,-0.1295,-1.0,1.0,-1.0,1.0,-1.0,-1.0,-1.0,-1.0,1.0,1.0,1.0,-1.0,1.0,-1.0,1.0,1.0,-1.0,0.058,0.208,0.104,0.019,0.006,0.006,0.039,0.0,0.058,0.006,0.019,0.006,0.019,0.078,0.0,0.013,0.006,0.006,-0.3528,-0.4126,0.1488,-0.2194,-1.0584,0.6381,0.5246,-0.5369,0.6412,0.023,-0.7793,0.2178,-0.0844,-0.3497,0.3482,-0.3728,-0.7701,0.5108,0.2387,0.1138,0.2377,-0.1698,-0.2484,-0.1948,-0.0467,0.047,-0.243,0.2379,-0.296,0.2784,0.0184,0.2764,-0.2547,0.2401,-0.1109,-0.1839,0.5748,0.3164,0.2445,-0.223,0.3313,0.0341,-1.0,0.909,-1.0,0.7633,-1.0,-1.0,-1.0,-1.0,1.0,-0.1778,1.0,-1.0,1.0,-1.0,1.0,1.0,-1.0,0.0,0.0,0.0,0.0,0.0,0.0,0.0,0.0,0.0,0.3333,0.0,0.3333,0.0,0
2.84,run,8.77,7.31,10.74,-7.26,14.78,0.0,0.05,0.0,0.52,-17.93,-6.33,90.26,-15.03,-46.23,112.15,28.56,-15.82,112.59,4.04,-31.64,93.78,-6.77,-1.14,96.33,-19.07,-26.28,104.15,-11.0,-13.7,100.19,-33.5,-42.18,105.05,23.0,-39.94,99.57,12.26,-32.62,102.66,-23.0,11.68,87.66,-15.5,-20.27,95.34,-0.5943,-1.0,1.0,-1.0,1.0,-1.0,-1.0,-1.0,-1.0,1.0,1.0,1.0,-1.0,1.0,-1.0,1.0,1.0,-1.0,0.065,0.123,0.084,0.026,0.006,0.006,0.084,0.013,0.039,0.013,0.013,0.013,0.006,0.084,0.006,0.013,0.006,0.013,-0.3313,-0.4126,0.1703,-0.2424,-1.0661,0.6213,0.5093,-0.5492,0.6213,0.0414,-0.8007,0.2378,-0.0966,-0.3298,0.3344,-0.3543,-0.7578,0.4909,0.2465,0.0797,0.2458,-0.204,-0.2022,-0.1988,-0.0895,-0.0125,-0.2439,0.2346,-0.2866,0.2687,-0.0325,0.2672,-0.2293,0.2362,-0.0322,-0.2025,0.6041,0.2942,0.1315,-0.0976,0.3659,-0.1295,-1.0,1.0,-1.0,1.0,-1.0,-1.0,-1.0,-1.0,1.0,1.0,1.0,-1.0,1.0,-1.0,1.0,1.0,-1.0,0.0,0.0,0.0,0.0,0.0,0.0,0.0,0.0,0.0,0.3333,0.0,0.3333,0.0,0
2.88,run,9.34,6.83,11.53,-11.28,8.84,0.0,0.05,0.0,0.52,-16.52,-6.33,91.49,-16.44,-46.49,110.65,27.42,-17.05,111.01,5.45,-32.61,95.19,-8.09,0.26,94.66,-17.84,-24.96,102.74,-12.5,-15.2,101.69,-35.0,-40.68,103.55,21.5,-41.44,98.07,13.76,-31.12,104.16,-24.5,13.18,86.16,-14.0,-18.77,93.84,-0.4144,-1.0,1.0,-1.0,1.0,-1.0,-1.0,-1.0,-1.0,1.0,1.0,1.0,-1.0,1.0,-0.7325,1.0,1.0,-1.0,0.065,0.123,0.084,0.026,0.006,0.006,0.084,0.013,0.039,0.013,0.013,0.013,0.006,0.084,0.006,0.013,0.006,0.013,-0.3083,-0.4126,0.1933,-0.2638,-1.0677,0.5952,0.4924,-0.566,0.5937,0.066,-0.8207,0.2638,-0.1135,-0.3068,0.3083,-0.3359,-0.7332,0.4679,0.259,0.0558,0.2586,-0.2235,-0.1473,-0.2372,-0.126,-0.0722,-0.2745,0.2565,-0.2756,0.2861,-0.0862,0.2735,-0.2585,0.2345,0.0697,-0.2282,0.6472,0.2697,0.1875,-0.1268,0.258,-0.5943,-1.0,1.0,-1.0,1.0,-1.0,-1.0,-1.0,-1.0,1.0,1.0,1.0,-1.0,1.0,-1.0,1.0,1.0,-1.0,0.0,0.0,0.0,0.0,0.0,0.0,0.0,0.0,0.0,0.3333,0.0,0.3333,0.0,0
2.92,run,9.02,5.85,-21.55,-15.94,-8.02,0.0,0.05,0.0,0.52,-15.29,-6.33,92.9,-17.75,-45.62,109.25,26.1,-18.46,108.46,6.86,-33.31,96.59,-9.4,1.49,93.34,-16.7,-23.91,101.34,-11.91,-16.7,103.19,-35.0,-39.18,102.05,20.0,-42.94,96.57,15.26,-29.62,105.66,-26.0,14.68,84.66,-12.5,-17.27,92.34,-0.3402,-1.0,1.0,-1.0,1.0,-1.0,-1.0,-1.0,-1.0,1.0,1.0,1.0,-1.0,1.0,-0.8455,1.0,1.0,-1.0,0.065,0.123,0.084,0.026,0.006,0.006,0.084,0.013,0.039,0.013,0.013,0.013,0.006,0.084,0.006,0.013,0.006,0.013,-0.2838,-0.4126,0.2148,-0.2884,-1.0723,0.5691,0.4725,-0.5875,0.566,0.0905,-0.8376,0.2884,-0.1365,-0.2823,0.2792,-0.3145,-0.7102,0.4433,0.2737,0.039,0.2618,-0.2488,-0.1204,-0.2641,-0.1632,-0.1313,-0.296,0.2719,-0.2564,0.2926,-0.1469,0.2838,-0.2906,0.2449,0.1353,-0.2521,0.6969,0.2277,0.2013,-0.1968,0.1543,-0.4144,-1.0,1.0,-1.0,1.0,-1.0,-1.0,-1.0,-1.0,1.0,1.0,1.0,-1.0,1.0,-0.7325,1.0,1.0,-1.0,0.0,0.0,0.0,0.0,0.0,0.0,0.0,0.0,0.0,0.3333,0.0,0.3333,0.0,0
2.96,run,9.61,4.64,7.12,-29.29,5.94,0.0,0.05,0.0,0.52,-14.33,-6.86,94.22,-19.25,-44.38,108.02,24.79,-19.78,107.49,8.26,-33.66,98.0,-10.81,2.81,91.93,-15.47,-22.06,99.93,-13.41,-18.2,104.69,-35.0,-37.68,100.55,18.5,-41.44,95.07,16.76,-28.12,107.16,-27.5,13.18,83.16,-11.0,-15.77,90.84,-1.0,-1.0,1.0,-1.0,1.0,-1.0,-1.0,1.0,-1.0,1.0,1.0,1.0,-1.0,-0.5529,-1.0,1.0,1.0,-1.0,0.117,0.0,0.117,0.019,0.019,0.013,0.078,0.0,0.006,0.013,0.0,0.006,0.0,0.195,0.013,0.006,0.013,0.019,-0.2623,-0.4126,0.2393,-0.3114,-1.0569,0.5446,0.4495,-0.6121,0.5216,0.115,-0.8498,0.3129,-0.1595,-0.2608,0.2562,-0.2945,-0.6918,0.4188,0.2718,0.0273,0.2749,-0.2601,-0.027,-0.2766,-0.2002,-0.1836,-0.3734,0.282,-0.2253,0.2965,-0.1887,0.2789,-0.2894,0.2459,0.1635,-0.2681,0.6682,0.1427,-0.3761,-0.2782,-0.14,-0.3402,-1.0,1.0,-1.0,1.0,-1.0,-1.0,-1.0,-1.0,1.0,1.0,1.0,-1.0,1.0,-0.8455,1.0,1.0,-1.0,0.0,0.0,0.0,0.0,0.0,0.0,0.0,0.0,0.0,0.3333,0.0,0.3333,0.0,0
3.0,run,10.1,4.61,16.81,-6.78,8.99,0.0,0.05,0.0,0.52,-13.54,-8.0,95.71,-20.65,-43.24,106.26,23.38,-21.01,106.08,9.67,-33.66,99.4,-12.13,4.31,90.53,-14.06,-20.83,98.53,-14.91,-19.7,106.19,-35.0,-36.18,99.05,17.0,-39.94,93.57,18.26,-26.62,108.66,-29.0,14.68,81.66,-9.5,-17.27,89.34,-1.0,-1.0,1.0,-1.0,1.0,-1.0,-1.0,0.2159,-1.0,1.0,1.0,1.0,-1.0,1.0,-0.9103,1.0,0.031,-1.0,0.117,0.0,0.117,0.019,0.019,0.013,0.078,0.0,0.006,0.013,0.0,0.006,0.0,0.195,0.013,0.006,0.013,0.019,-0.2454,-0.4218,0.2623,-0.3375,-1.0354,0.5231,0.4264,-0.6351,0.5047,0.1396,-0.856,0.3375,-0.1841,-0.2378,0.2316,-0.273,-0.6596,0.3942,0.2535,-0.0154,0.2788,-0.2799,0.0616,-0.2741,-0.2265,-0.2148,-0.3246,0.2895,-0.1807,0.2996,-0.2242,0.2815,-0.2946,0.2527,0.2353,-0.2798,0.7203,0.0369,0.1243,-0.5111,0.1037,-1.0,-1.0,1.0,-1.0,1.0,-1.0,-1.0,1.0,-1.0,1.0,1.0,1.0,-1.0,-0.5529,-1.0,1.0,1.0,-1.0,0.0,0.0,0.0,0.0,0.0,0.0,0.0,0.0,0.0,0.3333,0.0,0.3333,0.0,0
3.04,run,9.86,4.47,-8.35,-0.0,-1.38,0.0,0.05,0.0,0.52,-13.01,-9.23,97.12,-21.97,-41.84,104.94,21.88,-22.32,104.77,11.07,-33.4,100.81,-13.36,5.62,88.95,-12.74,-19.42,97.12,-16.41,-21.2,107.69,-35.0,-34.68,97.55,15.5,-41.44,92.07,19.76,-25.12,110.16,-30.5,16.18,80.16,-8.0,-15.77,87.84,-1.0,-1.0,1.0,-1.0,1.0,-1.0,-1.0,-0.739,-1.0,1.0,1.0,1.0,-1.0,1.0,0.0134,1.0,1.0,-1.0,0.117,0.0,0.117,0.019,0.019,0.013,0.078,0.0,0.006,0.013,0.0,0.006,0.0,0.195,0.013,0.006,0.013,0.019,-0.2316,-0.4418,0.2884,-0.362,-1.0155,0.4924,0.4019,-0.6565,0.4801,0.1641,-0.856,0.362,-0.2071,-0.2117,0.2071,-0.2485,-0.6381,0.3697,0.2295,-0.0859,0.2933,-0.2883,0.1182,-0.3074,-0.2509,-0.2312,-0.3197,0.295,-0.1265,0.3021,-0.2436,0.2953,-0.2987,0.2693,0.2456,-0.2882,0.7626,0.0342,0.2934,-0.1184,0.1569,-1.0,-1.0,1.0,-1.0,1.0,-1.0,-1.0,0.2159,-1.0,1.0,1.0,1.0,-1.0,1.0,-0.9103,1.0,0.031,-1.0,0.0,0.0,0.0,0.0,0.0,0.0,0.0,0.0,0.0,0.3333,0.0,0.3333,0.0,0
3.08,run,9.29,4.43,-13.3,-4.32,-1.65,0.0,0.05,0.0,0.52,-12.83,-10.63,98.61,-23.38,-40.43,103.54,20.21,-23.55,103.89,12.57,-32.52,102.22,-14.85,6.68,87.63,-11.43,-18.63,95.71,-17.91,-22.7,109.19,-35.0,-33.18,96.05,14.0,-39.94,93.57,21.26,-23.62,111.66,-32.0,14.68,78.66,-6.5,-14.27,86.34,-1.0,-1.0,1.0,-1.0,1.0,-1.0,-1.0,1.0,0.3388,1.0,1.0,1.0,-1.0,0.3911,-1.0,1.0,1.0,-1.0,0.013,0.0,0.111,0.019,0.019,0.006,0.045,0.006,0.026,0.013,0.013,0.006,0.019,0.357,0.006,0.013,0.026,0.019,-0.2224,-0.4633,0.3129,-0.385,-0.991,0.4694,0.3758,-0.6796,0.4571,0.1887,-0.8514,0.3866,-0.2286,-0.1887,0.1795,-0.2255,-0.6136,0.3451,0.195,-0.1403,0.297,-0.2878,0.1744,-0.3011,-0.2731,-0.2478,-0.3097,0.2982,-0.0714,0.3032,-0.2507,0.2926,-0.3122,0.2745,0.2636,-0.2934,0.742,0.0223,-0.1457,-0.0001,-0.0241,-1.0,-1.0,1.0,-1.0,1.0,-1.0,-1.0,-0.739,-1.0,1.0,1.0,1.0,-1.0,1.0,0.0134,1.0,1.0,-1.0,0.0,0.0,0.0,0.0,0.0,0.0,0.0,0.0,0.0,0.3333,0.0,0.3333,0.0,0
3.12,run,9.95,3.32,11.6,-18.61,-4.62,0.0,0.05,0.0,0.52,-13.1,-12.66,100.9,-25.58,-38.32,101.34,17.67,-25.66,101.51,14.68,-30.76,104.41,-16.79,8.53,85.25,-9.4,-16.52,93.52,-19.41,-24.2,110.69,-35.0,-31.68,94.55,12.5,-38.44,95.07,22.76,-22.12,110.16,-33.5,13.18,77.16,-5.0,-12.77,84.84,-1.0,-1.0,1.0,-1.0,1.0,-1.0,-1.0,0.1082,1.0,1.0,1.0,-0.2412,-1.0,-0.7589,-1.0,1.0,1.0,-1.0,0.013,0.0,0.111,0.019,0.019,0.006,0.045,0.006,0.026,0.013,0.013,0.006,0.019,0.357,0.006,0.013,0.026,0.019,-0.2194,-0.4878,0.339,-0.4096,-0.9664,0.4449,0.3467,-0.701,0.4418,0.2148,-0.836,0.4111,-0.2546,-0.1703,0.1565,-0.2025,-0.5998,0.3206,0.148,-0.1902,0.3057,-0.2935,0.2141,-0.3028,-0.3004,-0.254,-0.2743,0.3065,0.0075,0.3042,-0.2733,0.2738,-0.3048,0.2784,0.2362,-0.2974,0.6925,0.0188,-0.2322,-0.0755,-0.0289,-1.0,-1.0,1.0,-1.0,1.0,-1.0,-1.0,1.0,0.3388,1.0,1.0,1.0,-1.0,0.3911,-1.0,1.0,1.0,-1.0,0.0,0.0,0.0,0.0,0.0,0.0,0.0,0.0,0.0,0.3333,0.0,0.3333,0.0,0
3.16,run,10.18,2.75,5.87,-18.77,-13.74,0.0,0.05,0.0,0.52,-13.62,-13.71,102.22,-26.81,-37.18,100.11,16.52,-26.81,100.28,15.82,-29.62,105.64,-18.02,9.84,83.94,-8.44,-15.12,92.37,-17.91,-25.7,112.19,-35.0,-33.18,96.05,11.0,-36.94,96.57,22.3,-20.62,108.66,-35.0,14.68,75.66,-3.5,-11.27,83.34,0.2564,-1.0,1.0,-1.0,-0.8978,0.6437,-1.0,-0.0241,1.0,0.6371,1.0,-0.6029,-1.0,1.0,-1.0,1.0,1.0,-1.0,0.013,0.0,0.111,0.019,0.019,0.006,0.045,0.006,0.026,0.013,0.013,0.006,0.019,0.357,0.006,0.013,0.026,0.019,-0.224,-0.5231,0.3789,-0.4479,-0.9296,0.4065,0.3022,-0.7378,0.4004,0.2516,-0.8053,0.4495,-0.2884,-0.1381,0.115,-0.1672,-0.563,0.2823,0.0924,-0.2191,0.3112,-0.2989,0.2396,-0.3054,-0.3187,-0.2675,-0.2929,0.3043,0.08,0.3064,-0.2735,0.2702,-0.3143,0.2808,0.2551,-0.3016,0.7499,-0.0779,0.2025,-0.3247,-0.0807,-1.0,-1.0,1.0,-1.0,1.0,-1.0,-1.0,0.1082,1.0,1.0,1.0,-0.2412,-1.0,-0.7589,-1.0,1.0,1.0,-1.0,0.0,0.0,0.0,0.0,0.0,0.0,0.0,0.0,0.0,0.3333,0.0,0.3333,0.0,0
3.2,run,10.37,2.35,3.64,-9.17,-20.08,0.0,0.05,0.0,0.52,-14.77,-15.12,103.71,-28.21,-35.86,98.7,15.12,-28.21,98.88,17.23,-28.12,106.96,-19.34,11.07,82.53,-7.03,-14.41,90.88,-16.41,-27.2,113.69,-35.0,-34.68,97.55,12.5,-35.44,98.07,20.8,-19.12,107.16,-35.0,13.18,74.16,-2.0,-9.77,81.84,0.4787,-1.0,1.0,-1.0,-0.7755,1.0,0.8296,1.0,1.0,-0.3018,1.0,-1.0,-1.0,-0.9075,-1.0,1.0,1.0,-1.0,0.0,0.0,0.071,0.019,0.019,0.0,0.019,0.006,0.013,0.006,0.013,0.0,0.039,0.156,0.0,0.026,0.013,0.019,-0.2332,-0.5415,0.4019,-0.4694,-0.9097,0.385,0.2823,-0.7578,0.3789,0.2715,-0.7854,0.4709,-0.3099,-0.115,0.092,-0.1503,-0.5384,0.2623,0.0244,-0.234,0.3186,-0.3033,0.255,-0.3078,-0.3104,-0.2746,-0.2991,0.3003,0.1434,0.3085,-0.2855,0.2899,-0.3208,0.2705,0.286,-0.2985,0.7697,-0.1281,0.1025,-0.3277,-0.2398,0.2564,-1.0,1.0,-1.0,-0.8978,0.6437,-1.0,-0.0241,1.0,0.6371,1.0,-0.6029,-1.0,1.0,-1.0,1.0,1.0,-1.0,0.0,0.0,0.0,0.0,0.0,0.0,0.0,0.0,0.0,0.3333,0.0,0.3333,0.0,0
3.24,run,10.72,2.29,8.01,-0.91,-14.27,0.0,0.05,0.0,0.52,-15.91,-16.44,105.29,-29.62,-34.72,97.56,13.8,-29.62,97.73,18.63,-26.72,108.02,-20.74,11.87,81.12,-5.71,-13.27,89.47,-14.91,-28.7,115.19,-35.0,-33.18,99.05,14.0,-33.94,99.57,19.3,-17.62,105.66,-35.0,11.68,72.66,-0.5,-8.27,80.34,1.0,-1.0,1.0,-1.0,-0.0717,1.0,1.0,1.0,1.0,-1.0,1.0,-0.652,-1.0,-0.6101,-1.0,1.0,1.0,-1.0,0.0,0.0,0.071,0.019,0.019,0.0,0.019,0.006,0.013,0.006,0.013,0.0,0.039,0.156,0.0,0.026,0.013,0.019,-0.2531,-0.566,0.428,-0.4939,-0.8866,0.3605,0.2577,-0.7823,0.3543,0.2961,-0.7593,0.4939,-0.3329,-0.0936,0.0675,-0.1258,-0.5262,0.2362,-0.0572,-0.2552,0.3201,-0.3037,0.2643,-0.3069,-0.3087,-0.2836,-0.3008,0.3017,0.1975,0.3017,-0.2856,0.2829,-0.316,0.2808,0.2459,-0.3061,0.7866,-0.1625,0.0636,-0.1601,-0.3505,0.4787,-1.0,1.0,-1.0,-0.7755,1.0,0.8296,1.0,1.0,-0.3018,1.0,-1.0,-1.0,-0.9075,-1.0,1.0,1.0,-1.0,0.0,0.0,0.0,0.0,0.0,0.0,0.0,0.0,0.0,0.3333,0.0,0.3333,0.0,0
3.28,run,11.05,2.76,7.15,11.24,-8.2,0.0,0.05,0.0,0.52,-16.7,-17.84,106.79,-30.94,-34.01,96.68,12.74,-31.03,96.86,19.51,-25.31,108.72,-22.24,12.57,79.8,-4.48,-12.39,88.15,-13.41,-30.2,116.69,-35.0,-31.68,100.55,15.5,-35.44,101.07,17.8,-16.12,104.16,-35.0,10.18,71.16,1.0,-6.77,78.84,1.0,-0.9134,1.0,-1.0,0.7694,1.0,0.9557,-0.3999,1.0,-1.0,1.0,-1.0,-1.0,0.22,-1.0,1.0,1.0,-1.0,0.0,0.0,0.071,0.019,0.019,0.0,0.019,0.006,0.013,0.006,0.013,0.0,0.039,0.156,0.0,0.026,0.013,0.019,-0.273,-0.589,0.4556,-0.5185,-0.8667,0.3405,0.2347,-0.8069,0.3344,0.3206,-0.7348,0.5123,-0.3574,-0.0798,0.043,-0.1028,-0.5062,0.2117,-0.1153,-0.2655,0.3283,-0.3052,0.2602,-0.2901,-0.3029,-0.2912,-0.2858,0.3038,0.2309,0.2807,-0.2925,0.2502,-0.3138,0.2834,0.2474,-0.3069,0.8172,-0.1677,0.1398,-0.0159,-0.2491,1.0,-1.0,1.0,-1.0,-0.0717,1.0,1.0,1.0,1.0,-1.0,1.0,-0.652,-1.0,-0.6101,-1.0,1.0,1.0,-1.0,0.0,0.0,0.0,0.0,0.0,0.0,0.0,0.0,0.0,0.3333,0.0,0.3333,0.0,0
3.32,run,11.37,2.94,7.41,2.71,-4.63,0.0,0.05,0.0,0.52,-17.14,-19.25,108.19,-32.17,-33.4,96.15,12.04,-32.43,96.24,20.3,-23.91,109.25,-23.55,13.01,78.4,-3.25,-10.81,86.75,-11.91,-28.7,118.19,-35.0,-30.18,102.05,17.0,-36.94,102.57,16.3,-14.62,102.66,-35.0,8.68,69.66,2.5,-5.27,77.34,1.0,0.0867,1.0,-1.0,1.0,1.0,1.0,-0.9756,1.0,-1.0,1.0,-1.0,-1.0,-0.8524,-1.0,1.0,1.0,-1.0,0.006,0.0,0.052,0.019,0.033,0.006,0.006,0.013,0.006,0.006,0.006,0.0,0.039,0.071,0.0,0.104,0.019,0.019,-0.2869,-0.6136,0.4817,-0.5415,-0.8544,0.3252,0.2163,-0.8314,0.3191,0.3359,-0.7102,0.5246,-0.3835,-0.0675,0.0199,-0.0813,-0.4909,0.1887,-0.1322,-0.2774,0.3271,-0.2995,0.2279,-0.2603,-0.2807,-0.2953,-0.2573,0.2698,0.2531,0.2422,-0.302,0.2209,-0.3055,0.2784,0.2304,-0.3006,0.8458,-0.1272,0.1248,0.1962,-0.143,1.0,-0.9134,1.0,-1.0,0.7694,1.0,0.9557,-0.3999,1.0,-1.0,1.0,-1.0,-1.0,0.22,-1.0,1.0,1.0,-1.0,0.0,0.0,0.0,0.0,0.0,0.0,0.0,0.0,0.0,0.3333,0.0,0.3333,0.0,0
3.36,run,11.18,3.0,-5.31,-2.0,2.63,0.0,0.05,0.0,0.52,-17.31,-20.65,109.6,-33.22,-32.78,95.98,11.43,-33.75,96.06,20.74,-22.5,109.25,-24.96,13.1,76.9,-1.85,-9.58,85.43,-10.41,-30.2,119.69,-35.0,-28.68,103.55,18.5,-38.44,104.07,14.8,-13.12,101.16,-35.0,7.18,68.16,4.0,-3.77,75.84,1.0,-0.8997,1.0,-1.0,1.0,0.9416,1.0,-1.0,1.0,-1.0,1.0,-1.0,-1.0,-0.4553,-1.0,1.0,1.0,-1.0,0.006,0.0,0.052,0.019,0.033,0.006,0.006,0.013,0.006,0.006,0.006,0.0,0.039,0.071,0.0,0.104,0.019,0.019,-0.2945,-0.6381,0.5062,-0.563,-0.8437,0.316,0.204,-0.856,0.3083,0.3497,-0.6857,0.5338,-0.4065,-0.0598,-0.0046,-0.0598,-0.4633,0.1641,-0.1213,-0.2863,0.3211,-0.2903,0.1999,-0.2168,-0.2426,-0.2989,-0.2204,0.2407,0.2694,0.2041,-0.2978,0.1834,-0.306,0.2756,0.265,-0.3026,0.8739,-0.1111,0.1292,0.0472,-0.0808,1.0,0.0867,1.0,-1.0,1.0,1.0,1.0,-0.9756,1.0,-1.0,1.0,-1.0,-1.0,-0.8524,-1.0,1.0,1.0,-1.0,0.0,0.0,0.0,0.0,0.0,0.0,0.0,0.0,0.0,0.3333,0.0,0.3333,0.0,0
3.4,run,10.75,2.8,-10.6,-9.14,11.61,0.0,0.05,0.0,0.52,-17.14,-21.88,111.09,-33.93,-31.9,95.98,11.34,-35.07,96.06,20.65,-21.01,108.9,-26.37,13.1,75.5,-0.62,-8.35,83.94,-8.91,-31.7,121.19,-35.0,-27.18,105.05,20.0,-36.94,105.57,13.3,-11.62,99.66,-35.0,5.68,66.66,5.5,-2.27,74.34,1.0,-0.6063,1.0,-1.0,1.0,1.0,1.0,-0.1796,1.0,-1.0,1.0,-1.0,-1.0,-1.0,-1.0,1.0,1.0,-1.0,0.006,0.0,0.052,0.019,0.033,0.006,0.006,0.013,0.006,0.006,0.006,0.0,0.039,0.071,0.0,0.104,0.019,0.019,-0.2976,-0.6627,0.5308,-0.5814,-0.833,0.3129,0.1933,-0.879,0.3053,0.3574,-0.6611,0.5338,-0.431,-0.0583,-0.0307,-0.0353,-0.4418,0.1411,-0.0964,-0.2924,0.3167,-0.2721,0.1801,-0.1632,-0.21,-0.2954,-0.1658,0.1972,0.2805,0.1429,-0.3004,0.1341,-0.3119,0.2848,0.2659,-0.298,0.8572,-0.1064,-0.0927,-0.0348,0.0459,1.0,-0.8997,1.0,-1.0,1.0,0.9416,1.0,-1.0,1.0,-1.0,1.0,-1.0,-1.0,-0.4553,-1.0,1.0,1.0,-1.0,0.0,0.0,0.0,0.0,0.0,0.0,0.0,0.0,0.0,0.3333,0.0,0.3333,0.0,0
3.44,run,10.43,2.19,-8.51,-17.02,19.36,0.0,0.05,0.0,0.52,-16.35,-23.29,112.59,-34.37,-30.94,96.59,11.43,-36.21,96.42,20.48,-19.69,108.11,-27.69,12.13,74.18,0.79,-6.94,82.53,-7.41,-33.2,122.69,-35.0,-25.68,106.55,21.5,-35.44,107.07,11.8,-10.12,98.16,-35.0,4.18,65.16,7.0,-0.77,72.84,1.0,-1.0,1.0,-1.0,1.0,1.0,1.0,0.0952,1.0,-1.0,1.0,-1.0,-1.0,-1.0,-1.0,1.0,1.0,-0.6436,0.006,0.0,0.033,0.006,0.052,0.045,0.013,0.013,0.019,0.026,0.013,0.006,0.033,0.0,0.0,0.104,0.033,0.019,-0.2945,-0.6842,0.5568,-0.5937,-0.8176,0.3129,0.1917,-0.902,0.3053,0.3559,-0.6351,0.5277,-0.4556,-0.0583,-0.0552,-0.0138,-0.4203,0.115,-0.0561,-0.2843,0.3184,-0.236,0.183,-0.1143,-0.1527,-0.2921,-0.116,0.1324,0.293,0.0773,-0.3013,0.0939,-0.3093,0.279,0.2658,-0.3053,0.8196,-0.1239,-0.185,-0.1595,0.2026,1.0,-0.6063,1.0,-1.0,1.0,1.0,1.0,-0.1796,1.0,-1.0,1.0,-1.0,-1.0,-1.0,-1.0,1.0,1.0,-1.0,0.0,0.0,0.0,0.0,0.0,0.0,0.0,0.0,0.0,0.3333,0.0,0.3333,0.0,0
3.48,run,9.5,1.67,-24.54,-14.65,16.93,0.0,0.05,0.0,0.52,-15.47,-24.61,114.17,-34.45,-29.79,97.38,11.69,-37.27,96.77,19.42,-18.72,107.05,-29.09,11.07,72.6,2.29,-5.62,81.04,-5.91,-34.7,121.19,-33.5,-24.18,108.05,23.0,-33.94,108.57,10.3,-8.62,96.66,-35.0,2.68,63.66,8.5,0.73,74.34,0.2024,-1.0,0.0364,-0.0456,0.6314,1.0,1.0,0.0747,1.0,-1.0,1.0,-1.0,-1.0,-1.0,-1.0,0.8862,1.0,1.0,0.006,0.0,0.033,0.006,0.052,0.045,0.013,0.013,0.019,0.026,0.013,0.006,0.033,0.0,0.0,0.104,0.033,0.019,-0.2807,-0.7087,0.5829,-0.6013,-0.8007,0.3237,0.1933,-0.9219,0.3114,0.3528,-0.6121,0.5139,-0.4786,-0.0752,-0.0782,0.0107,-0.3958,0.0905,0.0131,-0.2922,0.3219,-0.1943,0.1921,-0.0392,-0.1011,-0.2802,-0.0579,0.081,0.2925,0.0017,-0.2983,0.0017,-0.3039,0.2885,0.2792,-0.3069,0.7919,-0.177,-0.1485,-0.297,0.3379,1.0,-1.0,1.0,-1.0,1.0,1.0,1.0,0.0952,1.0,-1.0,1.0,-1.0,-1.0,-1.0,-1.0,1.0,1.0,-0.6436,0.0,0.0,0.0,0.0,0.0,0.0,0.0,0.0,0.0,0.3333,0.0,0.3333,0.0,0
3.52,run,8.53,1.26,-27.28,-9.04,22.57,0.0,0.05,0.0,0.52,-14.15,-26.02,115.66,-34.54,-28.56,98.61,13.01,-37.88,98.17,18.46,-17.14,105.64,-30.59,9.76,71.19,3.69,-4.48,79.63,-7.41,-36.2,119.69,-32.0,-25.68,109.55,24.5,-32.44,110.07,8.8,-7.12,95.16,-35.0,1.18,65.16,7.0,2.23,75.84,-1.0,-1.0,-1.0,1.0,-0.0731,1.0,1.0,0.1767,1.0,-1.0,1.0,-1.0,-1.0,-1.0,1.0,-1.0,1.0,1.0,0.006,0.0,0.033,0.006,0.052,0.045,0.013,0.013,0.019,0.026,0.013,0.006,0.033,0.0,0.0,0.104,0.033,0.019,-0.2654,-0.7317,0.6105,-0.6029,-0.7808,0.3375,0.1979,-0.9403,0.3175,0.3344,-0.5952,0.4955,-0.5031,-0.0936,-0.1058,0.0368,-0.3728,0.0644,0.0666,-0.2906,0.3287,-0.1418,0.2091,0.0242,-0.0535,-0.265,-0.0176,-0.0122,0.2679,-0.0677,-0.3006,-0.0677,-0.3161,0.2995,0.2816,-0.3124,0.7109,-0.2225,-0.4283,-0.2557,0.2954,0.2024,-1.0,0.0364,-0.0456,0.6314,1.0,1.0,0.0747,1.0,-1.0,1.0,-1.0,-1.0,-1.0,-1.0,0.8862,1.0,1.0,0.0,0.0,0.0,0.0,0.0,0.0,0.0,0.0,0.0,0.3333,0.0,0.3333,0.0,0
3.56,run,7.68,1.11,-21.66,-2.79,23.09,0.0,0.05,0.0,0.52,-12.74,-27.33,117.16,-34.45,-27.51,100.02,14.33,-38.32,99.58,17.23,-15.91,104.06,-31.99,8.26,69.79,5.19,-3.43,77.78,-8.91,-37.7,118.19,-30.5,-27.18,108.05,26.0,-33.94,111.57,7.3,-5.62,93.66,-35.0,-0.32,66.66,5.5,0.73,77.34,-1.0,-1.0,-1.0,1.0,-1.0,-0.3707,1.0,-0.2214,1.0,-1.0,1.0,-1.0,-1.0,-1.0,1.0,-1.0,-0.2346,1.0,0.013,0.013,0.013,0.013,0.052,0.104,0.019,0.006,0.039,0.026,0.045,0.006,0.026,0.0,0.0,0.039,0.111,0.0,-0.2424,-0.7563,0.6366,-0.6044,-0.7593,0.359,0.2209,-0.9511,0.3421,0.3175,-0.5676,0.4709,-0.5292,-0.1166,-0.1304,0.0614,-0.3528,0.0399,0.1329,-0.2955,0.3278,-0.105,0.2269,0.0975,0.0488,-0.2258,0.0797,-0.0718,0.2911,-0.1394,-0.3082,-0.1337,-0.3133,0.3017,0.2719,-0.3107,0.6257,-0.2583,-0.4762,-0.1578,0.3939,-1.0,-1.0,-1.0,1.0,-0.0731,1.0,1.0,0.1767,1.0,-1.0,1.0,-1.0,-1.0,-1.0,1.0,-1.0,1.0,1.0,0.0,0.0,0.0,0.0,0.0,0.0,0.0,0.0,0.0,0.3333,0.0,0.3333,0.0,0
3.6,run,7.01,1.37,-14.87,8.08,15.91,0.0,0.05,0.0,0.52,-11.34,-28.65,118.21,-33.84,-26.63,101.34,15.64,-38.32,100.81,16.08,-14.77,102.74,-33.05,6.94,68.47,6.33,-2.46,76.99,-10.41,-39.2,116.69,-29.0,-28.68,106.55,27.5,-35.44,113.07,5.8,-4.12,92.16,-35.0,-1.82,68.16,4.0,-0.77,78.84,-1.0,-1.0,-1.0,1.0,-1.0,0.1686,1.0,-1.0,1.0,-1.0,1.0,-1.0,-1.0,-1.0,1.0,-1.0,-0.1616,1.0,0.013,0.013,0.013,0.013,0.052,0.104,0.019,0.006,0.039,0.026,0.045,0.006,0.026,0.0,0.0,0.039,0.111,0.0,-0.2178,-0.7793,0.6627,-0.6029,-0.7409,0.3835,0.2439,-0.9587,0.3666,0.2961,-0.5461,0.4433,-0.5538,-0.1427,-0.1549,0.0874,-0.3344,0.0077,0.1853,-0.2933,0.3275,-0.0677,0.228,0.1605,0.1207,-0.1869,0.1481,-0.131,0.2845,-0.2014,-0.308,-0.1916,-0.3116,0.3092,0.2595,-0.3386,0.5513,-0.2712,-0.378,-0.0487,0.4031,-1.0,-1.0,-1.0,1.0,-1.0,-0.3707,1.0,-0.2214,1.0,-1.0,1.0,-1.0,-1.0,-1.0,1.0,-1.0,-0.2346,1.0,0.0,0.0,0.0,0.0,0.0,0.0,0.0,0.0,0.0,0.3333,0.0,0.3333,0.0,0
3.64,run,6.08,2.05,-22.11,16.32,12.91,0.0,0.05,0.0,0.52,-10.28,-30.15,119.09,-32.87,-26.02,102.66,17.14,-37.79,102.22,14.68,-13.54,101.16,-34.01,5.62,67.59,7.03,-1.49,76.11,-11.91,-40.7,115.19,-27.5,-30.18,105.05,29.0,-36.94,114.57,4.3,-5.62,90.66,-35.0,-3.32,69.66,2.5,-2.27,80.34,-1.0,-1.0,-1.0,1.0,-1.0,-0.3688,1.0,-1.0,1.0,-1.0,0.1186,-1.0,-1.0,-1.0,1.0,-1.0,0.1559,1.0,0.013,0.013,0.013,0.013,0.052,0.104,0.019,0.006,0.039,0.026,0.045,0.006,0.026,0.0,0.0,0.039,0.111,0.0,-0.1933,-0.8023,0.6811,-0.5921,-0.7256,0.4065,0.2669,-0.9587,0.3881,0.2761,-0.5262,0.4203,-0.5722,-0.1657,-0.1779,0.1074,-0.3175,-0.0061,0.2217,-0.2915,0.2982,-0.0072,0.2171,0.1986,0.1707,-0.1308,0.1841,-0.1664,0.2739,-0.2272,-0.2846,-0.2203,-0.3043,0.2912,0.2449,-0.2888,0.4934,-0.2484,-0.2595,0.141,0.2777,-1.0,-1.0,-1.0,1.0,-1.0,0.1686,1.0,-1.0,1.0,-1.0,1.0,-1.0,-1.0,-1.0,1.0,-1.0,-0.1616,1.0,0.0,0.0,0.0,0.0,0.0,0.0,0.0,0.0,0.0,0.3333,0.0,0.3333,0.0,0
3.68,run,5.21,2.55,-18.56,9.79,-6.73,0.0,0.05,0.0,0.52,-9.49,-31.64,119.62,-31.9,-25.84,103.8,18.54,-37.09,103.62,13.45,-12.48,99.76,-34.54,4.22,66.88,7.47,-0.44,75.5,-13.41,-42.2,113.69,-26.0,-31.68,103.55,30.5,-38.44,116.07,2.8,-7.12,89.16,-35.0,-4.82,71.16,1.0,-3.77,81.84,-1.0,-1.0,-1.0,1.0,-1.0,0.2784,1.0,-1.0,1.0,-1.0,-1.0,-1.0,-1.0,-1.0,1.0,-1.0,-0.0722,1.0,0.006,0.006,0.0,0.039,0.045,0.091,0.013,0.0,0.039,0.058,0.136,0.0,0.013,0.0,0.006,0.013,0.071,0.006,-0.1749,-0.8283,0.6964,-0.5752,-0.7148,0.4295,0.293,-0.9495,0.4126,0.2516,-0.5047,0.3927,-0.589,-0.1887,-0.1933,0.1197,-0.3007,-0.0215,0.224,-0.3015,0.2661,0.058,0.1921,0.225,0.2169,-0.0572,0.2206,-0.2082,0.272,-0.2622,-0.2623,-0.2402,-0.2703,0.2497,0.2345,-0.2595,0.412,-0.1891,-0.3858,0.2848,0.2253,-1.0,-1.0,-1.0,1.0,-1.0,-0.3688,1.0,-1.0,1.0,-1.0,0.1186,-1.0,-1.0,-1.0,1.0,-1.0,0.1559,1.0,0.0,0.0,0.0,0.0,0.0,0.0,0.0,0.0,0.0,0.3333,0.0,0.3333,0.0,0
3.72,run,5.16,2.73,-1.52,3.25,-2.9,0.0,0.05,0.0,0.52,-9.23,-33.31,119.88,-30.41,-25.84,104.85,20.13,-36.91,105.38,11.78,-11.07,98.0,-34.8,2.72,66.71,7.47,0.09,75.32,-14.91,-43.7,112.19,-24.5,-33.18,102.05,32.0,-39.94,117.57,1.3,-8.62,87.66,-35.0,-6.32,72.66,-0.5,-5.27,83.34,-1.0,-0.5084,-1.0,1.0,-1.0,-0.4779,1.0,-1.0,1.0,-1.0,-1.0,-1.0,-1.0,-1.0,1.0,-1.0,-0.7718,1.0,0.006,0.006,0.0,0.039,0.045,0.091,0.013,0.0,0.039,0.058,0.136,0.0,0.013,0.0,0.006,0.013,0.071,0.006,-0.1611,-0.8544,0.7056,-0.5584,-0.7118,0.4495,0.3175,-0.9373,0.4372,0.2301,-0.4863,0.3682,-0.5983,-0.2132,-0.2056,0.1273,-0.2823,-0.0322,0.209,-0.3097,0.2211,0.1044,0.1461,0.2329,0.2446,0.0064,0.2472,-0.2269,0.26,-0.2764,-0.2184,-0.261,-0.2356,0.2038,0.2337,-0.2222,0.3361,-0.1457,-0.3239,0.1709,-0.1175,-1.0,-1.0,-1.0,1.0,-1.0,0.2784,1.0,-1.0,1.0,-1.0,-1.0,-1.0,-1.0,-1.0,1.0,-1.0,-0.0722,1.0,0.0,0.0,0.0,0.0,0.0,0.0,0.0,0.0,0.0,0.3333,0.0,0.3333,0.0,0
3.76,run,5.01,2.91,-5.59,3.19,1.26,0.0,0.05,0.0,0.52,-9.14,-34.28,119.79,-29.18,-25.84,105.21,21.27,-37.18,106.52,10.81,-10.37,96.86,-34.8,1.85,66.62,7.03,0.18,75.41,-16.41,-42.2,110.69,-23.0,-34.68,100.55,33.5,-41.44,119.07,-0.2,-10.12,86.16,-35.0,-7.82,74.16,-2.0,-6.77,84.84,-1.0,-0.1103,-1.0,1.0,-1.0,-0.8368,1.0,-1.0,1.0,-1.0,-0.3784,-1.0,-1.0,-1.0,1.0,-1.0,-0.6752,1.0,0.006,0.006,0.0,0.039,0.045,0.091,0.013,0.0,0.039,0.058,0.136,0.0,0.013,0.0,0.006,0.013,0.071,0.006,-0.1565,-0.8836,0.7102,-0.5323,-0.7118,0.4679,0.3451,-0.9342,0.4679,0.201,-0.4617,0.3375,-0.6029,-0.2393,-0.2086,0.1273,-0.273,-0.0353,0.1603,-0.3058,0.1688,0.1527,0.1023,0.2192,0.2556,0.0138,0.2667,-0.2479,0.2569,-0.2871,-0.1669,-0.2623,-0.1743,0.1426,0.1917,-0.1649,0.3319,-0.1295,-0.0265,0.0567,-0.0506,-1.0,-0.5084,-1.0,1.0,-1.0,-0.4779,1.0,-1.0,1.0,-1.0,-1.0,-1.0,-1.0,-1.0,1.0,-1.0,-0.7718,1.0,0.0,0.0,0.0,0.0,0.0,0.0,0.0,0.0,0.0,0.3333,0.0,0.3333,0.0,0
3.8,run,5.24,3.21,5.28,9.68,2.09,0.0,0.05,0.0,0.52,-9.58,-35.68,119.27,-27.86,-26.46,105.47,22.59,-37.97,107.93,9.58,-9.58,95.54,-34.8,0.35,67.24,6.5,0.18,75.94,-17.91,-40.7,109.19,-21.5,-36.18,99.05,35.0,-42.94,120.57,-1.7,-11.62,84.66,-35.0,-9.32,75.66,-3.5,-8.27,86.34,-1.0,-0.1213,-1.0,1.0,-1.0,-0.3306,1.0,-1.0,1.0,-1.0,-0.4757,-1.0,-1.0,-1.0,1.0,-1.0,-0.5044,1.0,0.0,0.013,0.013,0.039,0.0,0.033,0.019,0.013,0.045,0.156,0.084,0.0,0.006,0.013,0.006,0.006,0.006,0.039,-0.1549,-0.9004,0.7087,-0.5108,-0.7118,0.474,0.3651,-0.9388,0.4878,0.1841,-0.4495,0.3175,-0.6029,-0.2546,-0.2102,0.1197,-0.2715,-0.0337,0.1198,-0.2973,0.1106,0.2129,0.0716,0.1837,0.2773,-0.013,0.2851,-0.2568,0.2404,-0.2994,-0.1168,-0.2593,-0.1296,0.062,0.1418,-0.1079,0.3185,-0.114,-0.0975,0.0558,0.022,-1.0,-0.1103,-1.0,1.0,-1.0,-0.8368,1.0,-1.0,1.0,-1.0,-0.3784,-1.0,-1.0,-1.0,1.0,-1.0,-0.6752,1.0,0.0,0.0,0.0,0.0,0.0,0.0,0.0,0.0,0.0,0.3333,0.0,0.3333,0.0,0
3.84,run,5.1,3.25,-6.79,0.42,-3.79,0.0,0.05,0.0,0.52,-10.37,-36.47,118.39,-26.63,-27.33,105.47,23.99,-38.85,109.34,8.0,-9.05,94.04,-34.8,-1.05,68.03,5.45,0.0,76.73,-19.41,-39.2,107.69,-20.0,-37.68,97.55,35.0,-44.44,122.07,-3.2,-13.12,83.16,-33.5,-10.82,77.16,-5.0,-9.77,87.84,-1.0,0.4163,-1.0,1.0,-1.0,-0.3303,1.0,-1.0,1.0,-1.0,-0.657,-1.0,-0.923,-1.0,1.0,-1.0,-0.2858,1.0,0.0,0.013,0.013,0.039,0.0,0.033,0.019,0.013,0.045,0.156,0.084,0.0,0.006,0.013,0.006,0.006,0.006,0.039,-0.1626,-0.925,0.6995,-0.4878,-0.7225,0.4786,0.3881,-0.9526,0.5123,0.1626,-0.4357,0.2945,-0.6029,-0.2807,-0.1994,0.1104,-0.2715,-0.0245,0.0556,-0.2985,0.0435,0.2337,0.0106,0.1456,0.2788,-0.0599,0.2899,-0.2588,0.2191,-0.2943,-0.0818,-0.2775,-0.0512,0.0095,0.0992,-0.0416,0.3389,-0.0874,0.0921,0.1689,0.0366,-1.0,-0.1213,-1.0,1.0,-1.0,-0.3306,1.0,-1.0,1.0,-1.0,-0.4757,-1.0,-1.0,-1.0,1.0,-1.0,-0.5044,1.0,0.0,0.0,0.0,0.0,0.0,0.0,0.0,0.0,0.0,0.3333,0.0,0.3333,0.0,0
3.88,run,4.72,3.33,-9.15,2.12,-9.32,0.0,0.05,0.0,0.52,-11.16,-38.06,117.16,-25.31,-28.39,105.21,25.49,-39.99,110.74,6.59,-8.88,92.64,-34.8,-2.37,69.08,4.22,-0.88,77.87,-20.91,-37.7,106.19,-18.5,-39.18,96.05,35.0,-45.94,123.57,-4.7,-14.62,81.66,-32.0,-12.32,78.66,-6.5,-11.27,89.34,-1.0,0.5242,-1.0,1.0,-1.0,0.3182,1.0,-1.0,1.0,-1.0,-0.5925,-1.0,-0.0617,-1.0,1.0,-1.0,-0.8619,1.0,0.0,0.013,0.013,0.039,0.0,0.033,0.019,0.013,0.045,0.156,0.084,0.0,0.006,0.013,0.006,0.006,0.006,0.039,-0.1764,-0.9388,0.6842,-0.4663,-0.7378,0.4786,0.4126,-0.9679,0.5369,0.135,-0.4264,0.2684,-0.6029,-0.3053,-0.1856,0.092,-0.2746,-0.0107,-0.0132,-0.2611,-0.0275,0.2447,-0.0505,0.1019,0.2879,-0.0999,0.2956,-0.2854,0.1881,-0.3045,-0.0573,-0.2869,0.0163,-0.0628,0.0579,0.023,0.3263,-0.0844,-0.1184,0.0073,-0.0662,-1.0,0.4163,-1.0,1.0,-1.0,-0.3303,1.0,-1.0,1.0,-1.0,-0.657,-1.0,-0.923,-1.0,1.0,-1.0,-0.2858,1.0,0.0,0.0,0.0,0.0,0.0,0.0,0.0,0.0,0.0,0.3333,0.0,0.3333,0.0,0
3.92,run,4.91,3.45,4.47,5.36,-23.1,0.0,0.05,0.0,0.52,-12.74,-39.11,115.84,-23.73,-29.71,104.33,26.89,-41.31,112.24,5.1,-8.88,91.41,-34.54,-3.87,70.4,2.64,-2.11,79.28,-22.41,-36.2,104.69,-17.0,-40.68,97.55,35.0,-47.44,125.07,-6.2,-16.12,80.16,-30.5,-13.82,80.16,-8.0,-12.77,90.84,-1.0,1.0,-1.0,1.0,-1.0,0.7965,1.0,-1.0,1.0,-1.0,-0.5487,-1.0,1.0,-1.0,1.0,-1.0,-0.9072,1.0,0.0,0.013,0.013,0.026,0.0,0.006,0.013,0.019,0.026,0.078,0.006,0.0,0.013,0.019,0.006,0.006,0.0,0.052,-0.1902,-0.9664,0.6627,-0.4433,-0.7563,0.474,0.4387,-0.9879,0.5614,0.1104,-0.4234,0.2439,-0.6029,-0.3283,-0.1672,0.0706,-0.2899,0.0092,-0.0607,-0.2858,-0.0993,0.2571,-0.104,0.0542,0.2988,-0.1443,0.2985,-0.2914,0.1431,-0.3047,-0.0401,-0.2867,0.0801,-0.1241,-0.0167,0.0905,0.2931,-0.0769,-0.1597,0.037,-0.1626,-1.0,0.5242,-1.0,1.0,-1.0,0.3182,1.0,-1.0,1.0,-1.0,-0.5925,-1.0,-0.0617,-1.0,1.0,-1.0,-0.8619,1.0,0.0,0.0,0.0,0.0,0.0,0.0,0.0,0.0,0.0,0.3333,0.0,0.3333,0.0,0
3.96,run,4.9,3.16,-1.45,-6.65,-25.91,0.0,0.05,0.0,0.52,-14.15,-39.81,114.26,-21.88,-31.2,102.92,28.56,-42.89,114.08,3.16,-8.96,89.65,-33.4,-5.54,72.16,0.97,-3.69,80.86,-23.91,-34.7,103.19,-15.5,-42.18,99.05,35.0,-45.94,126.57,-7.7,-17.62,78.66,-29.0,-15.32,81.66,-9.5,-14.27,92.34,-1.0,1.0,-1.0,1.0,-1.0,0.5344,1.0,-0.2807,1.0,-1.0,-0.1265,-1.0,1.0,-1.0,1.0,-1.0,-0.1532,1.0,0.0,0.013,0.013,0.026,0.0,0.006,0.013,0.019,0.026,0.078,0.006,0.0,0.013,0.019,0.006,0.006,0.0,0.052,-0.2178,-0.9848,0.6397,-0.4157,-0.7793,0.4587,0.4633,-1.0109,0.5875,0.0844,-0.4234,0.2224,-0.5983,-0.3543,-0.1442,0.043,-0.3114,0.0337,-0.146,-0.269,-0.1558,0.2835,-0.1591,-0.0196,0.3012,-0.1873,0.3067,-0.3017,0.1002,-0.2938,-0.0108,-0.2984,0.1423,-0.1904,-0.0922,0.1553,0.3096,-0.0667,0.0781,0.0935,-0.4032,-1.0,1.0,-1.0,1.0,-1.0,0.7965,1.0,-1.0,1.0,-1.0,-0.5487,-1.0,1.0,-1.0,1.0,-1.0,-0.9072,1.0,0.0,0.0,0.0,0.0,0.0,0.0,0.0,0.0,0.0,0.3333,0.0,0.3333,0.0,0
4.0,run,4.72,3.02,-4.47,-4.4,-19.18,0.0,0.05,0.0,0.52,-15.73,-40.17,112.76,-20.3,-32.08,101.6,30.06,-44.21,115.58,1.49,-9.76,88.15,-32.26,-6.94,73.65,-0.53,-4.92,82.27,-25.41,-33.2,101.69,-14.0,-43.68,100.55,35.0,-44.44,128.07,-9.2,-16.12,77.16,-27.5,-16.82,83.16,-11.0,-15.77,93.84,-1.0,0.7491,-1.0,1.0,-1.0,1.0,1.0,1.0,1.0,-1.0,0.4257,-1.0,1.0,-1.0,1.0,-1.0,-0.2078,1.0,0.0,0.013,0.013,0.026,0.0,0.006,0.013,0.019,0.026,0.078,0.006,0.0,0.013,0.019,0.006,0.006,0.0,0.052,-0.2424,-0.9971,0.6121,-0.3835,-0.8053,0.4341,0.4924,-1.0385,0.6197,0.0506,-0.4249,0.1917,-0.5783,-0.3835,-0.1135,0.0138,-0.339,0.0614,-0.1785,-0.2265,-0.1949,0.2986,-0.1924,-0.09,0.3014,-0.2169,0.3149,-0.3161,0.0654,-0.301,0.0544,-0.2995,0.195,-0.2239,-0.1504,0.1946,0.3089,-0.0924,-0.0253,-0.1161,-0.4523,-1.0,1.0,-1.0,1.0,-1.0,0.5344,1.0,-0.2807,1.0,-1.0,-0.1265,-1.0,1.0,-1.0,1.0,-1.0,-0.1532,1.0,0.0,0.0,0.0,0.0,0.0,0.0,0.0,0.0,0.0,0.3333,0.0,0.3333,0.0,0
4.04,run,4.23,2.87,-13.09,-7.99,-6.76,0.0,0.05,0.0,0.52,-17.05,-40.17,111.27,-18.81,-33.57,100.63,31.46,-45.35,116.89,0.0,-10.81,86.75,-30.85,-8.44,75.06,-1.85,-6.42,83.67,-26.91,-31.7,100.19,-12.5,-45.18,102.05,35.0,-42.94,129.57,-10.7,-14.62,75.66,-26.0,-18.32,84.66,-12.5,-17.27,95.34,-1.0,0.5976,-1.0,1.0,-0.7672,1.0,1.0,1.0,1.0,-1.0,0.2359,-1.0,1.0,-1.0,1.0,-1.0,-0.2868,1.0,0.013,0.013,0.013,0.006,0.026,0.006,0.013,0.026,0.026,0.026,0.006,0.0,0.013,0.006,0.013,0.013,0.0,0.058,-0.27,-1.0032,0.586,-0.3559,-0.8207,0.4111,0.5185,-1.0615,0.6458,0.0215,-0.4387,0.1657,-0.5584,-0.408,-0.0874,-0.0123,-0.3605,0.0859,-0.2242,-0.1806,-0.2302,0.3083,-0.1899,-0.1457,0.3047,-0.2346,0.3141,-0.3261,-0.0039,-0.3045,0.1098,-0.2979,0.2303,-0.2505,-0.1825,0.2244,0.2937,-0.1041,-0.0781,-0.0768,-0.3348,-1.0,0.7491,-1.0,1.0,-1.0,1.0,1.0,1.0,1.0,-1.0,0.4257,-1.0,1.0,-1.0,1.0,-1.0,-0.2078,1.0,0.0,0.0,0.0,0.0,0.0,0.0,0.0,0.0,0.0,0.3333,0.0,0.3333,0.0,0
4.08,run,3.43,2.46,-19.09,-12.6,-4.73,0.0,0.05,0.0,0.52,-18.46,-39.99,109.78,-17.4,-35.16,99.67,32.7,-46.23,118.3,-1.41,-12.13,85.43,-29.53,-10.02,76.38,-3.08,-7.73,85.08,-28.41,-30.2,98.69,-11.0,-43.68,103.55,35.0,-41.44,131.07,-12.2,-13.12,74.16,-24.5,-19.82,86.16,-14.0,-18.77,96.84,-1.0,0.039,-1.0,1.0,-0.0455,1.0,1.0,1.0,1.0,-1.0,0.474,-1.0,1.0,-1.0,1.0,-1.0,-0.4507,1.0,0.013,0.013,0.013,0.006,0.026,0.006,0.013,0.026,0.026,0.026,0.006,0.0,0.013,0.006,0.013,0.013,0.0,0.058,-0.293,-1.0032,0.5599,-0.3298,-0.8468,0.3942,0.543,-1.0815,0.6688,-0.0046,-0.4571,0.1411,-0.5338,-0.4341,-0.0629,-0.0353,-0.3866,0.1104,-0.2458,-0.1264,-0.2618,0.3165,-0.2336,-0.1672,0.3081,-0.2412,0.3087,-0.3289,-0.0738,-0.3079,0.1716,-0.3092,0.2559,-0.2642,-0.2284,0.2519,0.2508,-0.1178,-0.2285,-0.1394,-0.118,-1.0,0.5976,-1.0,1.0,-0.7672,1.0,1.0,1.0,1.0,-1.0,0.2359,-1.0,1.0,-1.0,1.0,-1.0,-0.2868,1.0,0.0,0.0,0.0,0.0,0.0,0.0,0.0,0.0,0.0,0.3333,0.0,0.3333,0.0,0
4.12,run,2.39,1.91,-20.01,-8.45,-1.03,0.0,0.05,0.0,0.52,-20.48,-38.67,107.84,-15.29,-37.18,99.05,33.93,-47.02,120.23,-3.43,-13.62,83.41,-27.6,-12.22,78.4,-5.27,-9.76,87.1,-29.91,-31.7,97.19,-9.5,-42.18,105.05,35.0,-39.94,132.57,-10.7,-11.62,72.66,-23.0,-21.32,87.66,-15.5,-20.27,98.34,-1.0,-0.4914,-1.0,1.0,0.5438,1.0,1.0,1.0,1.0,0.019,0.9016,-1.0,1.0,-1.0,1.0,-1.0,-0.919,1.0,0.013,0.013,0.013,0.006,0.026,0.006,0.013,0.026,0.026,0.026,0.006,0.0,0.013,0.006,0.013,0.013,0.0,0.058,-0.3175,-1.0002,0.5338,-0.3053,-0.8744,0.3774,0.5645,-1.0968,0.6934,-0.0291,-0.4801,0.1181,-0.5108,-0.4617,-0.0399,-0.0568,-0.4096,0.135,-0.2636,-0.077,-0.2806,0.3131,-0.2665,-0.18,0.2958,-0.2261,0.3077,-0.3218,-0.1375,-0.3014,0.206,-0.3195,0.265,-0.2651,-0.2458,0.2679,0.1809,-0.1529,-0.3332,-0.2199,-0.0826,-1.0,0.039,-1.0,1.0,-0.0455,1.0,1.0,1.0,1.0,-1.0,0.474,-1.0,1.0,-1.0,1.0,-1.0,-0.4507,1.0,0.0,0.0,0.0,0.0,0.0,0.0,0.0,0.0,0.0,0.3333,0.0,0.3333,0.0,0
4.16,run,1.92,1.8,-12.76,-4.03,4.05,0.0,0.05,0.0,0.52,-21.71,-37.62,106.52,-14.06,-38.41,98.96,34.28,-47.11,121.38,-4.66,-14.15,82.18,-26.54,-13.36,79.45,-6.24,-10.9,88.33,-31.41,-33.2,95.69,-8.0,-40.68,106.55,35.0,-38.44,134.07,-9.2,-10.12,71.16,-21.5,-22.82,89.16,-17.0,-21.77,99.84,-1.0,-0.6465,-1.0,1.0,1.0,1.0,1.0,1.0,1.0,0.6728,0.5538,-1.0,1.0,-1.0,1.0,-1.0,-1.0,1.0,0.006,0.013,0.013,0.019,0.013,0.0,0.006,0.006,0.045,0.026,0.0,0.006,0.026,0.0,0.019,0.026,0.0,0.052,-0.3528,-0.9771,0.5001,-0.2684,-0.9097,0.3666,0.586,-1.1106,0.7271,-0.0644,-0.5062,0.0828,-0.4771,-0.5001,-0.0046,-0.0951,-0.4449,0.1703,-0.2776,0.0068,-0.2854,0.3163,-0.2796,-0.1543,0.2637,-0.1947,0.3044,-0.3183,-0.165,-0.304,0.2332,-0.3248,0.2786,-0.2867,-0.2651,0.2806,0.0904,-0.2013,-0.3493,-0.1475,-0.0179,-1.0,-0.4914,-1.0,1.0,0.5438,1.0,1.0,1.0,1.0,0.019,0.9016,-1.0,1.0,-1.0,1.0,-1.0,-0.919,1.0,0.0,0.0,0.0,0.0,0.0,0.0,0.0,0.0,0.0,0.3333,0.0,0.3333,0.0,0
4.2,run,1.54,1.77,-8.9,-2.03,3.69,0.0,0.05,0.0,0.52,-23.12,-36.3,105.12,-12.83,-39.55,99.23,34.63,-46.85,122.7,-6.06,-14.59,80.77,-25.22,-14.85,80.86,-7.73,-12.3,89.82,-32.91,-34.7,94.19,-6.5,-39.18,108.05,35.0,-36.94,135.57,-7.7,-11.62,69.66,-20.0,-24.32,90.66,-18.5,-23.27,101.34,-1.0,-0.6236,-1.0,1.0,0.7271,1.0,1.0,0.6041,1.0,0.5879,0.1383,-0.4104,1.0,-1.0,1.0,-1.0,-0.8989,1.0,0.006,0.013,0.013,0.019,0.013,0.0,0.006,0.006,0.045,0.026,0.0,0.006,0.026,0.0,0.019,0.026,0.0,0.052,-0.3743,-0.9587,0.4771,-0.247,-0.9311,0.3651,0.5921,-1.1121,0.747,-0.0859,-0.5154,0.0614,-0.4587,-0.52,0.0138,-0.112,-0.4648,0.1917,-0.29,0.0867,-0.3023,0.3171,-0.2914,-0.1148,0.2119,-0.1431,0.3019,-0.3185,-0.1565,-0.3085,0.2452,-0.3162,0.277,-0.2758,-0.2744,0.2921,0.0489,-0.211,-0.2226,-0.0704,0.0707,-1.0,-0.6465,-1.0,1.0,1.0,1.0,1.0,1.0,1.0,0.6728,0.5538,-1.0,1.0,-1.0,1.0,-1.0,-1.0,1.0,0.0,0.0,0.0,0.0,0.0,0.0,0.0,0.0,0.0,0.3333,0.0,0.3333,0.0,0
4.24,run,1.17,1.68,-10.34,-3.69,2.51,0.0,0.05,0.0,0.52,-24.61,-35.07,103.71,-11.34,-40.52,100.2,34.8,-46.23,124.01,-7.29,-14.59,79.45,-23.82,-16.26,82.27,-9.14,-13.71,91.23,-34.41,-36.2,92.69,-5.0,-37.68,109.55,35.0,-35.44,134.07,-6.2,-13.12,68.16,-18.5,-25.82,92.16,-20.0,-24.77,102.84,-1.0,-0.5173,-1.0,1.0,0.869,1.0,1.0,1.0,0.2783,0.5229,-0.9181,-0.7905,1.0,-0.0819,1.0,-1.0,-0.6521,1.0,0.006,0.013,0.013,0.019,0.013,0.0,0.006,0.006,0.045,0.026,0.0,0.006,0.026,0.0,0.019,0.026,0.0,0.052,-0.3988,-0.9357,0.4525,-0.2255,-0.9511,0.3697,0.5983,-1.1075,0.7701,-0.1104,-0.5231,0.0368,-0.4357,-0.5461,0.0383,-0.1381,-0.4893,0.2178,-0.2934,0.1455,-0.302,0.3011,-0.2775,-0.0634,0.171,-0.0832,0.2961,-0.3134,-0.1378,-0.3064,0.2565,-0.3174,0.2843,-0.2892,-0.2825,0.3005,0.0158,-0.2138,-0.1553,-0.0355,0.0644,-1.0,-0.6236,-1.0,1.0,0.7271,1.0,1.0,0.6041,1.0,0.5879,0.1383,-0.4104,1.0,-1.0,1.0,-1.0,-0.8989,1.0,0.0,0.0,0.0,0.0,0.0,0.0,0.0,0.0,0.0,0.3333,0.0,0.3333,0.0,0
4.28,run,1.28,1.73,2.24,1.29,1.81,0.0,0.05,0.0,0.52,-26.1,-34.28,102.3,-10.02,-41.22,101.16,34.8,-45.09,125.42,-8.17,-14.41,78.05,-22.41,-17.67,83.76,-10.55,-15.12,92.64,-35.0,-34.7,91.19,-6.5,-36.18,111.05,35.0,-33.94,132.57,-4.7,-14.62,69.66,-17.0,-24.32,93.66,-21.5,-26.27,104.34,-1.0,-0.0063,-1.0,-0.5553,0.5896,1.0,1.0,1.0,-1.0,0.8323,-1.0,0.6476,1.0,0.5408,1.0,-1.0,-0.8273,1.0,0.006,0.0,0.013,0.013,0.013,0.019,0.006,0.006,0.045,0.013,0.013,0.006,0.019,0.0,0.019,0.026,0.0,0.052,-0.4249,-0.9143,0.428,-0.1994,-0.9679,0.3866,0.6013,-1.0968,0.7931,-0.1319,-0.5231,0.0138,-0.4111,-0.5706,0.0629,-0.1626,-0.5139,0.2424,-0.3048,0.1837,-0.305,0.3102,-0.2586,0.0199,0.1314,-0.0173,0.295,-0.3013,-0.0965,-0.3022,0.2731,-0.3158,0.2926,-0.296,-0.2913,0.304,-0.0164,-0.2211,-0.1805,-0.0644,0.0439,-1.0,-0.5173,-1.0,1.0,0.869,1.0,1.0,1.0,0.2783,0.5229,-0.9181,-0.7905,1.0,-0.0819,1.0,-1.0,-0.6521,1.0,0.0,0.0,0.0,0.0,0.0,0.0,0.0,0.0,0.0,0.3333,0.0,0.3333,0.0,0
4.32,run,1.26,1.83,-0.85,-0.11,0.65,0.0,0.05,0.0,0.52,-27.33,-33.66,100.9,-8.61,-41.66,102.48,34.8,-43.77,126.91,-8.79,-13.8,76.64,-21.01,-18.98,85.25,-12.04,-16.52,94.13,-33.5,-33.2,89.69,-8.0,-37.68,112.55,35.0,-32.44,131.07,-3.2,-16.12,71.16,-15.5,-22.82,95.16,-23.0,-27.77,105.84,-0.9291,1.0,-0.7322,-1.0,-0.7201,1.0,1.0,1.0,-1.0,0.6366,-1.0,1.0,1.0,1.0,1.0,-1.0,-1.0,1.0,0.006,0.0,0.013,0.013,0.013,0.019,0.006,0.006,0.045,0.013,0.013,0.006,0.019,0.0,0.019,0.026,0.0,0.052,-0.451,-0.9004,0.4034,-0.1764,-0.9802,0.4034,0.6013,-1.0769,0.8176,-0.1473,-0.52,-0.0107,-0.3866,-0.5952,0.089,-0.1871,-0.5384,0.2669,-0.3116,0.1806,-0.306,0.3038,-0.2272,0.0775,0.092,0.063,0.299,-0.2687,-0.056,-0.304,0.2836,-0.3135,0.3031,-0.2997,-0.2964,0.3052,-0.0069,-0.2167,0.0392,0.0225,0.0316,-1.0,-0.0063,-1.0,-0.5553,0.5896,1.0,1.0,1.0,-1.0,0.8323,-1.0,0.6476,1.0,0.5408,1.0,-1.0,-0.8273,1.0,0.0,0.0,0.0,0.0,0.0,0.0,0.0,0.0,0.0,0.3333,0.0,0.3333,0.0,0
4.36,run,1.19,1.84,-0.85,-0.18,-0.49,0.0,0.05,0.0,0.52,-28.83,-33.4,99.49,-7.56,-41.66,103.97,34.8,-42.45,128.14,-9.14,-13.54,75.23,-19.51,-20.13,86.66,-13.45,-17.84,95.62,-32.0,-31.7,91.19,-9.5,-39.18,114.05,35.0,-30.94,129.57,-1.7,-17.62,72.66,-14.0,-21.32,96.66,-24.5,-29.27,107.34,-0.3274,1.0,0.3146,-1.0,-0.4367,1.0,1.0,1.0,-1.0,1.0,-1.0,1.0,1.0,1.0,1.0,-1.0,-1.0,1.0,0.006,0.0,0.013,0.013,0.013,0.019,0.006,0.006,0.045,0.013,0.013,0.006,0.019,0.0,0.019,0.026,0.0,0.052,-0.4725,-0.8897,0.3789,-0.1519,-0.9879,0.4264,0.6013,-1.0538,0.8437,-0.158,-0.5093,-0.0353,-0.362,-0.6182,0.115,-0.2132,-0.563,0.293,-0.2985,0.1666,-0.306,0.3045,-0.1877,0.1403,0.0644,0.1302,0.3068,-0.2282,0.001,-0.3046,0.2903,-0.3055,0.3097,-0.3073,-0.2993,0.3112,-0.0088,-0.2084,-0.0148,-0.0019,0.0114,-0.9291,1.0,-0.7322,-1.0,-0.7201,1.0,1.0,1.0,-1.0,0.6366,-1.0,1.0,1.0,1.0,1.0,-1.0,-1.0,1.0,0.0,0.0,0.0,0.0,0.0,0.0,0.0,0.0,0.0,0.3333,0.0,0.3333,0.0,0
4.4,run,1.22,1.92,0.69,0.32,0.87,0.0,0.05,0.0,0.52,-30.06,-33.31,98.09,-6.68,-41.66,105.38,34.8,-41.4,129.11,-8.96,-13.18,74.09,-18.11,-21.36,88.15,-14.85,-19.16,97.03,-30.5,-30.2,89.69,-11.0,-40.68,115.55,35.0,-29.44,128.07,-0.2,-19.12,74.16,-12.5,-19.82,98.16,-26.0,-30.77,108.84,1.0,1.0,0.2819,-1.0,-1.0,1.0,1.0,0.3942,-1.0,1.0,-1.0,1.0,1.0,1.0,1.0,-1.0,-1.0,1.0,0.0,0.013,0.019,0.0,0.006,0.013,0.0,0.045,0.045,0.013,0.019,0.0,0.013,0.0,0.013,0.026,0.006,0.033,-0.4985,-0.8851,0.3543,-0.1335,-0.9879,0.4525,0.6013,-1.0308,0.8652,-0.1641,-0.5047,-0.0598,-0.3359,-0.6381,0.1396,-0.2378,-0.586,0.3191,-0.3067,0.1339,-0.3062,0.2821,-0.1314,0.196,0.0451,0.1774,0.2953,-0.1828,0.0179,-0.3052,0.301,-0.2886,0.3088,-0.3071,-0.2957,0.3156,-0.0143,-0.2071,-0.0149,-0.0031,-0.0086,-0.3274,1.0,0.3146,-1.0,-0.4367,1.0,1.0,1.0,-1.0,1.0,-1.0,1.0,1.0,1.0,1.0,-1.0,-1.0,1.0,0.0,0.0,0.0,0.0,0.0,0.0,0.0,0.0,0.0,0.3333,0.0,0.3333,0.0,0
4.44,run,1.17,1.95,-0.67,0.37,0.07,0.0,0.05,0.0,0.52,-31.29,-32.61,96.33,-6.06,-40.87,107.05,34.89,-40.17,130.08,-8.26,-13.97,72.77,-16.44,-22.32,89.91,-16.61,-20.83,98.88,-29.0,-28.7,90.04,-12.5,-42.18,117.05,35.0,-27.94,126.57,1.3,-20.62,75.66,-11.0,-18.32,99.66,-27.5,-32.27,110.34,1.0,1.0,0.2946,-1.0,-1.0,1.0,1.0,0.4841,-1.0,1.0,-1.0,1.0,1.0,1.0,1.0,-1.0,-1.0,1.0,0.0,0.013,0.019,0.0,0.006,0.013,0.0,0.045,0.045,0.013,0.019,0.0,0.013,0.0,0.013,0.026,0.006,0.033,-0.52,-0.8836,0.3298,-0.1181,-0.9879,0.4771,0.6013,-1.0124,0.882,-0.1611,-0.4985,-0.0798,-0.3114,-0.6596,0.1657,-0.2623,-0.609,0.3436,-0.2951,0.0994,-0.3062,0.2549,-0.092,0.2291,0.0315,0.1931,0.2699,-0.1164,0.0355,-0.2883,0.3026,-0.2824,0.3138,-0.3069,-0.2932,0.3128,-0.012,-0.2001,0.012,0.0057,0.0151,1.0,1.0,0.2819,-1.0,-1.0,1.0,1.0,0.3942,-1.0,1.0,-1.0,1.0,1.0,1.0,1.0,-1.0,-1.0,1.0,0.0,0.0,0.0,0.0,0.0,0.0,0.0,0.0,0.0,0.3333,0.0,0.3333,0.0,0
4.48,run,1.21,2.0,0.72,0.58,-1.19,0.0,0.05,0.0,0.52,-31.9,-31.73,94.92,-5.98,-40.52,108.54,34.98,-39.02,130.52,-7.21,-15.03,72.16,-15.03,-22.76,91.32,-18.11,-22.24,100.37,-27.5,-27.2,91.54,-14.0,-43.68,118.55,35.0,-26.44,125.07,2.8,-22.12,77.16,-9.5,-16.82,101.16,-29.0,-33.77,111.84,1.0,1.0,0.7201,-1.0,-1.0,1.0,1.0,0.4402,-1.0,1.0,-1.0,1.0,1.0,1.0,0.8142,-1.0,-1.0,1.0,0.0,0.013,0.019,0.0,0.006,0.013,0.0,0.045,0.045,0.013,0.019,0.0,0.013,0.0,0.013,0.026,0.006,0.033,-0.5415,-0.8713,0.2991,-0.1074,-0.9741,0.5062,0.6029,-0.991,0.8989,-0.1488,-0.5123,-0.1028,-0.2823,-0.6765,0.1963,-0.293,-0.6381,0.3758,-0.2729,0.1075,-0.3091,0.2116,-0.0218,0.2504,0.0268,0.2015,0.241,-0.0436,-0.0178,-0.2729,0.3018,-0.2498,0.3144,-0.3096,-0.2952,0.3184,-0.0163,-0.1977,-0.0117,0.0065,0.0012,1.0,1.0,0.2946,-1.0,-1.0,1.0,1.0,0.4841,-1.0,1.0,-1.0,1.0,1.0,1.0,1.0,-1.0,-1.0,1.0,0.0,0.0,0.0,0.0,0.0,0.0,0.0,0.0,0.0,0.3333,0.0,0.3333,0.0,0
4.52,run,1.16,2.07,-0.15,1.29,2.03,0.0,0.05,0.0,0.52,-32.08,-30.59,93.6,-6.06,-40.52,109.95,35.07,-37.79,130.69,-6.06,-16.26,71.89,-13.71,-22.94,92.72,-19.51,-23.64,101.78,-26.0,-25.7,93.04,-15.5,-45.18,120.05,35.0,-24.94,123.57,4.3,-23.62,78.66,-8.0,-15.32,99.66,-30.5,-35.27,113.34,1.0,1.0,1.0,-1.0,-1.0,1.0,1.0,0.2905,-1.0,1.0,-1.0,1.0,1.0,1.0,-0.0201,-1.0,-1.0,1.0,0.0,0.013,0.006,0.019,0.013,0.013,0.0,0.156,0.019,0.019,0.019,0.0,0.026,0.019,0.026,0.013,0.006,0.026,-0.5522,-0.856,0.2746,-0.1058,-0.9679,0.5323,0.6044,-0.971,0.9066,-0.1304,-0.5308,-0.1135,-0.2577,-0.6842,0.2209,-0.3191,-0.6627,0.4019,-0.2309,0.1322,-0.3075,0.1538,0.0075,0.2721,0.0245,0.2151,0.1972,0.0378,-0.0808,-0.2309,0.3024,-0.2033,0.3112,-0.3135,-0.2978,0.3197,-0.0132,-0.1931,0.0125,0.0101,-0.0207,1.0,1.0,0.7201,-1.0,-1.0,1.0,1.0,0.4402,-1.0,1.0,-1.0,1.0,1.0,1.0,0.8142,-1.0,-1.0,1.0,0.0,0.0,0.0,0.0,0.0,0.0,0.0,0.0,0.0,0.3333,0.0,0.3333,0.0,0
4.56,run,1.16,2.14,0.33,0.16,0.79,0.0,0.05,0.0,0.52,-32.17,-29.27,92.55,-6.33,-40.69,111.36,35.07,-36.47,130.69,-4.57,-17.49,72.07,-12.3,-22.5,94.04,-20.92,-25.05,103.27,-24.5,-24.2,94.54,-17.0,-46.68,118.55,35.0,-23.44,122.07,5.8,-25.12,80.16,-6.5,-13.82,98.16,-32.0,-36.77,111.84,1.0,1.0,1.0,-1.0,-1.0,0.1464,1.0,0.0834,-1.0,1.0,-1.0,1.0,1.0,1.0,-0.7111,-1.0,-1.0,0.0177,0.0,0.013,0.006,0.019,0.013,0.013,0.0,0.156,0.019,0.019,0.019,0.0,0.026,0.019,0.026,0.013,0.006,0.026,-0.5553,-0.836,0.2516,-0.1074,-0.9679,0.5568,0.6059,-0.9495,0.9097,-0.1104,-0.5522,-0.1181,-0.2347,-0.6872,0.2454,-0.3436,-0.6872,0.4264,-0.1732,0.1677,-0.302,0.1019,0.0053,0.283,0.0229,0.2315,0.1496,0.1016,-0.1375,-0.179,0.2984,-0.1539,0.3103,-0.312,-0.301,0.3163,-0.017,-0.1875,-0.0027,0.0225,0.0355,1.0,1.0,1.0,-1.0,-1.0,1.0,1.0,0.2905,-1.0,1.0,-1.0,1.0,1.0,1.0,-0.0201,-1.0,-1.0,1.0,0.0,0.0,0.0,0.0,0.0,0.0,0.0,0.0,0.0,0.3333,0.0,0.3333,0.0,0
4.6,run,1.1,2.22,-1.12,1.32,-0.65,0.0,0.05,0.0,0.52,-31.38,-27.95,91.67,-7.73,-41.57,112.94,35.24,-35.33,130.34,-3.08,-18.9,72.42,-10.99,-21.88,95.27,-22.41,-26.37,104.77,-23.0,-22.7,96.04,-18.5,-48.18,117.05,35.0,-21.94,120.57,7.3,-26.62,81.66,-8.0,-12.32,96.66,-33.5,-38.27,110.34,0.7673,1.0,1.0,-1.0,-1.0,-1.0,1.0,0.1793,-1.0,1.0,-1.0,1.0,-0.3827,1.0,-1.0,-1.0,-1.0,-1.0,0.0,0.013,0.006,0.019,0.013,0.013,0.0,0.156,0.019,0.019,0.019,0.0,0.026,0.019,0.026,0.013,0.006,0.026,-0.5568,-0.813,0.2332,-0.112,-0.971,0.5814,0.6059,-0.9265,0.9097,-0.0844,-0.5737,-0.115,-0.2102,-0.6796,0.2684,-0.3682,-0.7118,0.4525,-0.127,0.2041,-0.2808,0.054,-0.0079,0.2906,0.016,0.2488,0.1047,0.1694,-0.1772,-0.1137,0.3014,-0.0788,0.304,-0.3109,-0.3032,0.3197,-0.0174,-0.1808,0.0057,0.0029,0.0138,1.0,1.0,1.0,-1.0,-1.0,0.1464,1.0,0.0834,-1.0,1.0,-1.0,1.0,1.0,1.0,-0.7111,-1.0,-1.0,0.0177,0.0,0.0,0.0,0.0,0.0,0.0,0.0,0.0,0.0,0.3333,0.0,0.3333,0.0,0
4.64,run,1.73,2.57,11.5,6.32,-2.75,0.0,0.05,0.0,0.52,-30.23,-26.1,91.05,-9.67,-43.15,114.7,35.24,-33.75,129.2,-1.14,-20.83,73.92,-9.32,-20.74,96.59,-24.43,-27.95,106.79,-21.5,-21.2,97.54,-20.0,-49.68,115.55,35.0,-23.44,119.07,8.8,-28.12,83.16,-9.5,-10.82,95.16,-35.0,-39.77,108.84,-0.1666,0.9729,1.0,-1.0,-1.0,-1.0,1.0,-0.0435,-1.0,1.0,-1.0,1.0,-1.0,1.0,-1.0,-1.0,-1.0,-1.0,0.0,0.0,0.0,0.019,0.026,0.006,0.006,0.286,0.0,0.006,0.026,0.006,0.026,0.078,0.033,0.013,0.019,0.013,-0.543,-0.79,0.2178,-0.1365,-0.9863,0.609,0.609,-0.9066,0.9035,-0.0583,-0.5983,-0.1089,-0.1871,-0.6688,0.2899,-0.3942,-0.7348,0.4786,-0.0386,0.2268,-0.2525,-0.0517,-0.0615,0.3041,0.0224,0.2469,0.0509,0.2137,-0.2136,-0.0572,0.2949,-0.016,0.2911,-0.3127,-0.2962,0.3189,-0.0227,-0.1739,-0.0196,0.0231,-0.0114,0.7673,1.0,1.0,-1.0,-1.0,-1.0,1.0,0.1793,-1.0,1.0,-1.0,1.0,-0.3827,1.0,-1.0,-1.0,-1.0,-1.0,0.0,0.0,0.0,0.0,0.0,0.0,0.0,0.0,0.0,0.3333,0.0,0.3333,0.0,0
4.68,run,2.39,3.01,18.75,11.28,-3.95,0.0,0.05,0.0,0.52,-28.92,-24.96,90.97,-10.9,-44.38,115.66,35.24,-32.61,128.32,0.18,-22.15,74.88,-8.35,-19.6,97.12,-25.75,-29.36,107.93,-20.0,-22.7,99.04,-21.5,-51.18,114.05,35.0,-24.94,117.57,10.3,-29.62,84.66,-11.0,-9.32,93.66,-33.5,-41.27,107.34,0.4271,-0.3832,1.0,-1.0,-1.0,-1.0,1.0,-1.0,-1.0,1.0,-1.0,1.0,-1.0,1.0,-1.0,1.0,-1.0,-1.0,0.0,0.0,0.0,0.019,0.026,0.006,0.006,0.286,0.0,0.006,0.026,0.006,0.026,0.078,0.033,0.013,0.019,0.013,-0.5231,-0.7578,0.2071,-0.1703,-1.014,0.6397,0.609,-0.879,0.8836,-0.0245,-0.632,-0.0828,-0.158,-0.6489,0.3129,-0.4295,-0.7624,0.5139,0.0266,0.2454,-0.2056,-0.1269,-0.1172,0.2953,0.0157,0.247,-0.018,0.2403,-0.2402,0.03,0.2848,0.0424,0.2656,-0.3137,-0.2815,0.3181,0.032,-0.1433,0.2007,0.1104,-0.0479,-0.1666,0.9729,1.0,-1.0,-1.0,-1.0,1.0,-0.0435,-1.0,1.0,-1.0,1.0,-1.0,1.0,-1.0,-1.0,-1.0,-1.0,0.0,0.0,0.0,0.0,0.0,0.0,0.0,0.0,0.0,0.3333,0.0,0.3333,0.0,0
4.72,run,2.88,3.5,13.61,12.19,0.68,0.0,0.05,0.0,0.52,-28.3,-23.91,90.35,-12.22,-45.62,116.46,35.07,-31.29,127.27,1.41,-23.47,76.03,-7.38,-18.63,97.65,-26.98,-30.67,108.9,-18.5,-24.2,100.54,-23.0,-52.68,112.55,35.0,-26.44,116.07,11.8,-31.12,86.16,-12.5,-7.82,92.16,-32.0,-42.77,105.84,0.8154,-0.9475,1.0,-1.0,-1.0,-1.0,1.0,-1.0,-1.0,1.0,-1.0,1.0,-1.0,1.0,-1.0,1.0,-0.5833,-1.0,0.0,0.0,0.0,0.019,0.026,0.006,0.006,0.286,0.0,0.006,0.026,0.006,0.026,0.078,0.033,0.013,0.019,0.013,-0.5001,-0.7378,0.2056,-0.1917,-1.0354,0.6565,0.609,-0.859,0.8682,-0.0015,-0.655,-0.066,-0.1411,-0.6289,0.3221,-0.4525,-0.7869,0.5338,0.1128,0.2533,-0.1502,-0.1767,-0.1699,0.2758,0.011,0.2545,-0.0753,0.2624,-0.2623,0.0901,0.2684,0.1113,0.2236,-0.3138,-0.2975,0.3042,0.0903,-0.1056,0.3272,0.1969,-0.069,0.4271,-0.3832,1.0,-1.0,-1.0,-1.0,1.0,-1.0,-1.0,1.0,-1.0,1.0,-1.0,1.0,-1.0,1.0,-1.0,-1.0,0.0,0.0,0.0,0.0,0.0,0.0,0.0,0.0,0.0,0.3333,0.0,0.3333,0.0,0
4.76,run,3.19,3.88,8.21,8.07,6.78,0.0,0.05,0.0,0.52,-26.89,-23.64,90.79,-13.62,-46.93,116.89,34.8,-29.88,126.12,2.72,-24.79,77.26,-6.42,-17.49,97.65,-28.39,-31.9,109.6,-17.0,-25.7,102.04,-24.5,-54.18,111.05,35.0,-27.94,114.57,13.3,-32.62,87.66,-14.0,-6.32,90.66,-30.5,-44.27,104.34,0.4099,-0.8529,1.0,-1.0,-1.0,-1.0,1.0,-1.0,-1.0,1.0,-1.0,1.0,-1.0,1.0,-1.0,1.0,-0.4057,-1.0,0.0,0.019,0.0,0.013,0.026,0.0,0.019,0.13,0.006,0.013,0.013,0.006,0.026,0.078,0.006,0.006,0.033,0.0,-0.4893,-0.7194,0.1948,-0.2148,-1.0569,0.6703,0.6059,-0.836,0.8498,0.0199,-0.678,-0.046,-0.1243,-0.6121,0.3313,-0.474,-0.8099,0.5507,0.1193,0.2465,-0.1455,-0.2101,-0.1996,0.2449,-0.0038,0.2646,-0.1219,0.2643,-0.27,0.138,0.2513,0.1413,0.1911,-0.3003,-0.2947,0.2764,0.1327,-0.0622,0.2376,0.2128,0.0119,0.8154,-0.9475,1.0,-1.0,-1.0,-1.0,1.0,-1.0,-1.0,1.0,-1.0,1.0,-1.0,1.0,-1.0,1.0,-0.5833,-1.0,0.0,0.0,0.0,0.0,0.0,0.0,0.0,0.0,0.0,0.3333,0.0,0.3333,0.0,0
4.8,run,3.44,4.18,5.63,7.61,8.67,0.0,0.05,0.0,0.52,-25.84,-22.32,90.79,-14.85,-48.16,116.89,34.63,-28.92,125.16,3.96,-26.02,78.31,-5.45,-16.52,97.12,-29.36,-33.05,110.21,-15.5,-27.2,103.54,-26.0,-55.68,109.55,35.0,-29.44,113.07,14.8,-34.12,89.16,-15.5,-4.82,89.16,-29.0,-45.5,102.84,-0.309,-1.0,1.0,-1.0,-1.0,-1.0,1.0,-1.0,-1.0,1.0,-1.0,1.0,-1.0,1.0,-1.0,1.0,-0.3727,-1.0,0.0,0.019,0.0,0.013,0.026,0.0,0.019,0.13,0.006,0.013,0.013,0.006,0.026,0.078,0.006,0.006,0.033,0.0,-0.4648,-0.7148,0.2025,-0.2393,-1.0799,0.678,0.6013,-0.8115,0.8299,0.043,-0.701,-0.0245,-0.1074,-0.5921,0.3313,-0.4985,-0.8314,0.563,0.1735,0.1894,-0.0737,-0.2371,-0.2241,0.1996,-0.0196,0.2752,-0.1585,0.2694,-0.2734,0.1753,0.2378,0.172,0.1338,-0.3002,-0.285,0.2385,0.1598,-0.0295,0.1434,0.1409,0.1184,0.4099,-0.8529,1.0,-1.0,-1.0,-1.0,1.0,-1.0,-1.0,1.0,-1.0,1.0,-1.0,1.0,-1.0,1.0,-0.4057,-1.0,0.0,0.0,0.0,0.0,0.0,0.0,0.0,0.0,0.0,0.3333,0.0,0.3333,0.0,0
4.84,run,3.65,4.62,5.47,9.64,7.89,0.0,0.05,0.0,0.52,-24.87,-21.36,90.79,-16.0,-49.31,116.54,34.37,-27.95,124.1,5.01,-27.16,79.28,-4.57,-15.38,96.42,-30.15,-34.28,110.21,-17.0,-28.7,105.04,-27.5,-54.2,108.05,35.0,-30.94,111.57,16.3,-35.62,90.66,-17.0,-3.32,87.66,-27.5,-44.0,101.34,-0.6896,-1.0,1.0,-1.0,-0.5309,-1.0,1.0,-1.0,-1.0,1.0,-1.0,1.0,-1.0,1.0,-1.0,1.0,-0.0818,-1.0,0.0,0.019,0.0,0.013,0.026,0.0,0.019,0.13,0.006,0.013,0.013,0.006,0.026,0.078,0.006,0.006,0.033,0.0,-0.4464,-0.6918,0.2025,-0.2608,-1.1014,0.678,0.5983,-0.7946,0.813,0.0644,-0.7225,-0.0061,-0.0905,-0.5752,0.3221,-0.5154,-0.8514,0.5737,0.1917,0.2204,-0.0516,-0.2479,-0.2388,0.1397,-0.0254,0.257,-0.1753,0.2705,-0.2733,0.1929,0.2308,0.1848,0.0585,-0.2745,-0.2756,0.2079,0.1812,-0.0029,0.0983,0.1328,0.1513,-0.309,-1.0,1.0,-1.0,-1.0,-1.0,1.0,-1.0,-1.0,1.0,-1.0,1.0,-1.0,1.0,-1.0,1.0,-0.3727,-1.0,0.0,0.0,0.0,0.0,0.0,0.0,0.0,0.0,0.0,0.3333,0.0,0.3333,0.0,0
4.88,run,4.0,4.87,9.29,6.07,4.18,0.0,0.05,0.0,0.52,-23.64,-20.65,90.79,-17.31,-50.54,115.75,34.19,-27.16,123.31,6.33,-28.48,80.42,-3.78,-14.15,95.27,-30.59,-35.51,109.6,-18.5,-30.2,106.54,-29.0,-52.7,106.55,35.0,-32.44,110.07,17.8,-37.12,92.16,-18.5,-1.82,86.16,-26.0,-42.5,99.84,-1.0,-1.0,1.0,-1.0,-0.1357,-1.0,1.0,-1.0,-1.0,1.0,-1.0,1.0,-1.0,1.0,-1.0,1.0,0.4331,-1.0,0.013,0.026,0.013,0.013,0.019,0.019,0.013,0.201,0.013,0.013,0.019,0.013,0.026,0.065,0.0,0.006,0.033,0.013,-0.4295,-0.675,0.2025,-0.2807,-1.1213,0.6719,0.5937,-0.7777,0.7946,0.0828,-0.7424,0.0107,-0.0752,-0.5553,0.3099,-0.5292,-0.8728,0.5737,0.1974,0.2175,-0.0361,-0.2483,-0.2419,0.0748,-0.035,0.2432,-0.1917,0.2584,-0.2661,0.1983,0.2191,0.2041,-0.005,-0.2439,-0.2734,0.1455,0.2001,0.0357,0.0954,0.1682,0.1377,-0.6896,-1.0,1.0,-1.0,-0.5309,-1.0,1.0,-1.0,-1.0,1.0,-1.0,1.0,-1.0,1.0,-1.0,1.0,-0.0818,-1.0,0.0,0.0,0.0,0.0,0.0,0.0,0.0,0.0,0.0,0.3333,0.0,0.3333,0.0,0
4.92,run,4.4,5.06,11.23,5.21,5.76,0.0,0.05,0.0,0.52,-22.5,-20.13,90.79,-18.63,-51.68,114.61,34.19,-26.54,122.08,7.73,-29.79,81.83,-3.25,-12.83,94.04,-30.67,-36.91,108.72,-20.0,-31.7,108.04,-30.5,-51.2,105.05,33.5,-33.94,108.57,19.3,-38.62,93.66,-20.0,-0.32,84.66,-24.5,-41.0,98.34,-1.0,-1.0,1.0,-1.0,0.2216,-1.0,0.8586,-1.0,-1.0,1.0,-1.0,1.0,-1.0,1.0,-1.0,1.0,0.8016,-1.0,0.013,0.026,0.013,0.013,0.019,0.019,0.013,0.201,0.013,0.013,0.019,0.013,0.026,0.065,0.0,0.006,0.033,0.013,-0.408,-0.6627,0.2025,-0.3037,-1.1428,0.6581,0.5906,-0.7639,0.7808,0.1058,-0.7655,0.0307,-0.0614,-0.5338,0.2899,-0.5369,-0.8943,0.563,0.2188,0.1983,-0.0253,-0.2601,-0.2499,0.0005,-0.036,0.222,-0.186,0.2672,-0.2726,0.2137,0.2052,0.2235,-0.0784,-0.1995,-0.272,0.0616,0.2302,0.0571,0.1622,0.106,0.0729,-1.0,-1.0,1.0,-1.0,-0.1357,-1.0,1.0,-1.0,-1.0,1.0,-1.0,1.0,-1.0,1.0,-1.0,1.0,0.4331,-1.0,0.0,0.0,0.0,0.0,0.0,0.0,0.0,0.0,0.0,0.3333,0.0,0.3333,0.0,0
4.96,run,4.66,5.35,6.38,8.36,8.26,0.0,0.05,0.0,0.52,-21.53,-19.51,91.05,-19.86,-52.65,113.55,34.19,-25.84,120.85,8.96,-31.11,83.06,-2.55,-11.78,92.99,-30.32,-38.14,107.67,-21.5,-33.2,109.54,-32.0,-49.7,103.55,32.0,-35.44,107.07,20.8,-40.12,95.16,-21.5,1.18,83.16,-23.0,-39.5,96.84,-1.0,-1.0,1.0,-1.0,0.6446,-1.0,0.1197,-1.0,-1.0,1.0,-1.0,1.0,-1.0,1.0,-1.0,1.0,1.0,-1.0,0.013,0.026,0.013,0.013,0.019,0.019,0.013,0.201,0.013,0.013,0.019,0.013,0.026,0.065,0.0,0.006,0.033,0.013,-0.3881,-0.6535,0.2025,-0.3267,-1.1628,0.6381,0.5906,-0.7532,0.7593,0.1304,-0.7885,0.0552,-0.0522,-0.5108,0.2684,-0.5384,-0.9189,0.5476,0.2282,0.1735,-0.0177,-0.2687,-0.25,-0.0747,-0.0252,0.1959,-0.2111,0.2795,-0.2775,0.242,0.1783,0.2431,-0.1357,-0.1454,-0.2828,-0.0147,0.2652,0.0738,0.196,0.0909,0.1005,-1.0,-1.0,1.0,-1.0,0.2216,-1.0,0.8586,-1.0,-1.0,1.0,-1.0,1.0,-1.0,1.0,-1.0,1.0,0.8016,-1.0,0.0,0.0,0.0,0.0,0.0,0.0,0.0,0.0,0.0,0.3333,0.0,0.3333,0.0,0
5.0,run,4.83,5.34,5.05,-2.68,16.31,0.0,0.05,0.0,0.52,-20.83,-18.98,91.49,-21.18,-53.35,112.32,34.01,-25.14,119.71,10.28,-32.52,84.38,-1.93,-10.63,91.76,-29.09,-39.11,106.52,-23.0,-34.7,111.04,-33.5,-48.2,102.05,30.5,-36.94,105.57,22.3,-41.62,96.66,-23.0,2.68,81.66,-21.5,-38.0,95.34,-1.0,-1.0,1.0,-1.0,1.0,-1.0,-0.8586,-1.0,-1.0,1.0,-1.0,1.0,-1.0,1.0,-1.0,1.0,1.0,-1.0,0.019,0.033,0.019,0.019,0.006,0.013,0.045,0.175,0.039,0.013,0.026,0.013,0.026,0.111,0.0,0.0,0.026,0.013,-0.3712,-0.6427,0.2071,-0.3482,-1.1796,0.6197,0.5906,-0.7409,0.7378,0.1519,-0.8115,0.0767,-0.0399,-0.4924,0.25,-0.5323,-0.9403,0.5292,0.2229,0.1616,0.0048,-0.2685,-0.2382,-0.1212,-0.0177,0.183,-0.2281,0.276,-0.2804,0.2498,0.1707,0.2391,-0.1639,-0.0788,-0.2784,-0.0792,0.2884,0.0991,0.1114,0.146,0.1442,-1.0,-1.0,1.0,-1.0,0.6446,-1.0,0.1197,-1.0,-1.0,1.0,-1.0,1.0,-1.0,1.0,-1.0,1.0,1.0,-1.0,0.0,0.0,0.0,0.0,0.0,0.0,0.0,0.0,0.0,0.3333,0.0,0.3333,0.0,0
5.04,run,5.26,5.61,9.24,7.6,5.54,0.0,0.048,0.0,0.52,-20.21,-18.72,92.02,-22.5,-53.61,111.09,33.75,-25.05,118.56,11.6,-33.75,85.78,-1.58,-9.49,90.62,-28.65,-39.73,105.38,-24.5,-36.2,112.54,-35.0,-46.7,100.55,29.0,-38.44,104.07,23.8,-43.12,98.16,-24.5,4.18,80.16,-20.0,-36.5,93.84,-1.0,-1.0,1.0,-1.0,1.0,-1.0,-1.0,-0.3214,-1.0,1.0,-0.5759,1.0,-1.0,1.0,-1.0,1.0,1.0,-1.0,0.019,0.033,0.019,0.019,0.006,0.013,0.045,0.175,0.039,0.013,0.026,0.013,0.026,0.111,0.0,0.0,0.026,0.013,-0.359,-0.6335,0.2148,-0.3712,-1.1919,0.5983,0.5875,-0.7286,0.7179,0.1749,-0.836,0.0997,-0.0291,-0.4725,0.2286,-0.5108,-0.9572,0.5093,0.2019,0.1475,0.0321,-0.274,-0.2126,-0.1651,-0.0238,0.174,-0.2342,0.2792,-0.288,0.2608,0.1596,0.2419,-0.195,0.0251,-0.2579,-0.1299,0.3028,0.098,0.0882,-0.0468,0.2846,-1.0,-1.0,1.0,-1.0,1.0,-1.0,-0.8586,-1.0,-1.0,1.0,-1.0,1.0,-1.0,1.0,-1.0,1.0,1.0,-1.0,0.0,0.0,0.0,0.0,0.0,0.0,0.0,0.0,0.0,0.32,0.0,0.32,0.0,0
5.08,run,5.65,5.83,9.54,6.23,0.9,0.0,0.046,0.0,0.52,-19.51,-18.37,92.55,-23.82,-53.61,110.04,33.05,-24.52,117.6,12.83,-34.98,87.01,-1.05,-8.44,89.47,-27.07,-40.25,104.24,-26.0,-37.7,114.04,-35.0,-45.2,99.05,27.5,-39.94,102.57,25.3,-41.62,99.66,-26.0,5.68,78.66,-18.5,-35.0,92.34,-1.0,-1.0,1.0,-1.0,1.0,-1.0,-1.0,-1.0,-1.0,1.0,0.4715,1.0,-1.0,1.0,-1.0,1.0,1.0,-1.0,0.019,0.033,0.019,0.019,0.006,0.013,0.045,0.175,0.039,0.013,0.026,0.013,0.026,0.111,0.0,0.0,0.026,0.013,-0.3482,-0.6289,0.224,-0.3942,-1.1965,0.5768,0.5829,-0.7271,0.698,0.1979,-0.8575,0.1243,-0.023,-0.4525,0.2086,-0.5031,-0.9679,0.4893,0.1812,0.1203,0.0566,-0.2771,-0.1659,-0.1953,-0.0338,0.1275,-0.2379,0.2808,-0.2813,0.2736,0.1345,0.2433,-0.2105,0.046,-0.2204,-0.165,0.3407,0.1216,0.1612,0.1326,0.0968,-1.0,-1.0,1.0,-1.0,1.0,-1.0,-1.0,-0.3214,-1.0,1.0,-0.5759,1.0,-1.0,1.0,-1.0,1.0,1.0,-1.0,0.0,0.0,0.0,0.0,0.0,0.0,0.0,0.0,0.0,0.3067,0.0,0.3067,0.0,0
