t_s,phase,roll_deg,pitch_deg,gyro_x_dps,gyro_y_dps,gyro_z_dps,height_ref_mm,vx_ref_mps,vy_ref_mps,max_cur_a,q0_deg,q1_deg,q2_deg,q3_deg,q4_deg,q5_deg,q6_deg,q7_deg,q8_deg,q9_deg,q10_deg,q11_deg,q12_deg,q13_deg,q14_deg,q15_deg,q16_deg,q17_deg,cmd0_deg,cmd1_deg,cmd2_deg,cmd3_deg,cmd4_deg,cmd5_deg,cmd6_deg,cmd7_deg,cmd8_deg,cmd9_deg,cmd10_deg,cmd11_deg,cmd12_deg,cmd13_deg,cmd14_deg,cmd15_deg,cmd16_deg,cmd17_deg,act0,act1,act2,act3,act4,act5,act6,act7,act8,act9,act10,act11,act12,act13,act14,act15,act16,act17,cur0_a,cur1_a,cur2_a,cur3_a,cur4_a,cur5_a,cur6_a,cur7_a,cur8_a,cur9_a,cur10_a,cur11_a,cur12_a,cur13_a,cur14_a,cur15_a,cur16_a,cur17_a,obs0,obs1,obs2,obs3,obs4,obs5,obs6,obs7,obs8,obs9,obs10,obs11,obs12,obs13,obs14,obs15,obs16,obs17,obs18,obs19,obs20,obs21,obs22,obs23,obs24,obs25,obs26,obs27,obs28,obs29,obs30,obs31,obs32,obs33,obs34,obs35,obs36,obs37,obs38,obs39,obs40,obs41,obs42,obs43,obs44,obs45,obs46,obs47,obs48,obs49,obs50,obs51,obs52,obs53,obs54,obs55,obs56,obs57,obs58,obs59,obs60,obs61,obs62,obs63,obs64,obs65,obs66,obs67,obs68,obs69,obs70,obs71,rot60_k
0.0,run,1.97,5.94,-0.69,-0.0,-0.4,0.0,0.0,0.0,0.058,-0.18,6.24,79.19,0.53,16.52,80.16,-0.35,19.42,80.42,0.0,17.49,79.1,0.18,18.72,79.37,-0.18,14.85,78.93,-4.05,-0.45,77.07,2.81,12.65,87.02,-0.87,16.25,84.29,-0.7,15.99,78.58,3.33,15.46,79.01,-4.58,9.13,83.33,-1.0,-1.0,-0.3214,-1.0,-1.0,1.0,1.0,-1.0,1.0,1.0,-1.0,1.0,-1.0,-1.0,-1.0,-1.0,-1.0,1.0,0.013,0.006,0.0,0.006,0.006,0.019,0.006,0.013,0.026,0.006,0.0,0.019,0.0,0.006,0.006,0.013,0.058,0.006,0.0414,0.0491,0.0107,-0.0445,0.0291,-0.0522,0.0322,0.0276,-0.0276,0.0383,0.0,0.0307,-0.0552,0.0291,-0.0169,0.046,0.0353,-0.0322,0.0681,0.0852,0.0157,-0.0884,0.0571,-0.0879,0.0647,0.0374,-0.0546,0.0588,0.0,0.0467,-0.0913,0.0435,-0.0162,0.0733,0.0697,-0.0633,0.0,0.0,0.0003,0.0129,-0.0493,0.0,0.0,0.0,0.0,0.0,0.0,0.0,0.0,0.0,0.0,0.0,0.0,0.0,0.0,0.0,0.0,0.0,0.0,0.0,0.0,0.0,0.0,0.0,0.0,0.0,0.0,0.0,0.0,0.0,0.0,0.0,0
0.04,run,1.76,5.59,-2.32,-5.37,1.41,0.0,0.0,0.0,0.058,-0.35,7.38,79.19,0.53,16.52,79.37,-0.35,18.9,80.42,-0.53,17.31,78.84,0.18,18.54,79.1,-0.26,15.73,78.93,-5.55,-1.95,78.57,1.31,11.15,88.52,-2.37,14.75,85.79,0.8,14.49,80.08,1.83,13.96,80.51,-6.08,7.63,84.83,-1.0,-1.0,1.0,-1.0,-1.0,1.0,-1.0,-1.0,0.5561,1.0,-1.0,1.0,-1.0,0.5944,1.0,-1.0,-1.0,1.0,0.013,0.006,0.0,0.006,0.006,0.019,0.006,0.013,0.026,0.006,0.0,0.019,0.0,0.006,0.006,0.013,0.058,0.006,0.0414,0.0905,0.0107,-0.066,0.0414,-0.0936,0.0353,0.0291,-0.0414,0.0383,0.0,0.0353,-0.0813,0.0307,-0.0199,0.0506,0.0736,-0.0506,0.0477,0.1275,0.011,-0.0971,0.0601,-0.1294,0.0503,0.0287,-0.0609,0.0412,0.0,0.0403,-0.1067,0.033,-0.0164,0.0589,0.1117,-0.0745,-0.0103,-0.0095,-0.0121,-0.0001,-0.007,-1.0,-1.0,-0.3214,-1.0,-1.0,1.0,1.0,-1.0,1.0,1.0,-1.0,1.0,-1.0,-1.0,-1.0,-1.0,-1.0,1.0,0.0,0.0,0.0,0.0,0.0,0.0,0.0,0.0,0.0,0.0,0.0,0.0,0.0,0
0.08,run,1.6,5.34,-3.5,-5.39,6.64,0.0,0.0,0.0,0.058,-1.49,8.0,78.66,0.97,16.17,79.1,-0.35,18.11,80.51,-0.62,16.61,78.84,0.44,17.84,79.28,-1.32,16.35,79.37,-7.05,-3.45,78.24,-0.19,9.65,90.02,-3.87,13.25,87.29,2.3,12.99,81.58,0.33,12.46,79.39,-7.58,6.13,86.33,-0.8872,-1.0,0.1558,-1.0,-1.0,1.0,-1.0,0.5625,1.0,1.0,-1.0,1.0,-1.0,-1.0,0.1692,-1.0,-1.0,1.0,0.013,0.006,0.0,0.006,0.006,0.019,0.006,0.013,0.026,0.006,0.0,0.019,0.0,0.006,0.006,0.013,0.058,0.006,0.0383,0.1104,0.0107,-0.066,0.0414,-0.1074,0.0353,0.0199,-0.0414,0.0291,-0.0031,0.0307,-0.0813,0.0276,-0.0245,0.0491,0.089,-0.0506,0.0238,0.1518,0.0077,-0.068,0.0421,-0.1339,0.0352,-0.0088,-0.0426,-0.0,-0.0096,0.0138,-0.0747,0.0135,-0.0259,0.0364,0.1263,-0.0521,-0.0281,-0.0395,-0.0405,-0.0937,0.0246,-1.0,-1.0,1.0,-1.0,-1.0,1.0,-1.0,-1.0,0.5561,1.0,-1.0,1.0,-1.0,0.5944,1.0,-1.0,-1.0,1.0,0.0,0.0,0.0,0.0,0.0,0.0,0.0,0.0,0.0,0.0,0.0,0.0,0.0,0
0.12,run,1.54,5.1,-1.18,-4.96,3.33,0.0,0.0,0.0,0.058,-2.37,8.26,78.13,1.49,15.38,79.01,-1.05,17.14,81.3,-0.53,15.82,79.28,1.14,16.79,79.28,-2.2,16.52,80.16,-8.55,-4.95,79.74,-1.69,8.15,91.52,-5.37,11.75,88.79,3.8,11.49,83.08,-1.17,10.96,80.89,-9.08,4.63,87.83,-1.0,-1.0,0.9554,-1.0,-0.3853,1.0,-0.759,-1.0,1.0,1.0,-1.0,1.0,-1.0,0.2557,1.0,-1.0,-1.0,1.0,0.013,0.0,0.0,0.0,0.013,0.0,0.013,0.013,0.0,0.019,0.006,0.006,0.0,0.033,0.0,0.033,0.039,0.0,0.0184,0.1212,0.0015,-0.0583,0.0353,-0.112,0.0353,0.0061,-0.0399,0.0276,-0.0153,0.0307,-0.0767,0.0153,-0.0215,0.0307,0.0997,-0.043,-0.0573,0.1461,-0.0287,-0.0191,0.0067,-0.1108,0.0247,-0.0573,-0.0242,-0.0057,-0.0522,0.0096,-0.0352,-0.036,-0.0068,-0.0427,0.1282,-0.0081,-0.0427,-0.0618,-0.061,-0.094,0.1158,-0.8872,-1.0,0.1558,-1.0,-1.0,1.0,-1.0,0.5625,1.0,1.0,-1.0,1.0,-1.0,-1.0,0.1692,-1.0,-1.0,1.0,0.0,0.0,0.0,0.0,0.0,0.0,0.0,0.0,0.0,0.0,0.0,0.0,0.0,0
0.16,run,1.57,4.93,1.15,-3.63,-4.64,0.0,0.0,0.0,0.058,-3.6,8.26,78.05,1.67,14.24,79.45,-1.76,15.82,82.27,0.18,14.68,79.98,1.14,15.56,79.28,-3.43,16.52,81.3,-7.05,-6.45,81.24,-3.19,6.65,93.02,-6.87,10.25,90.29,5.3,9.99,84.58,-2.67,9.46,82.39,-10.58,3.13,89.33,-0.1185,-1.0,0.7442,-1.0,-0.9188,1.0,-1.0,-0.6542,1.0,1.0,-1.0,1.0,-1.0,0.0574,0.5781,-1.0,-1.0,1.0,0.013,0.0,0.0,0.0,0.013,0.0,0.013,0.013,0.0,0.019,0.006,0.006,0.0,0.033,0.0,0.033,0.039,0.0,0.0031,0.1258,-0.0077,-0.0491,0.0215,-0.1135,0.023,-0.0107,-0.0261,0.0291,-0.0291,0.0383,-0.0644,-0.0031,-0.0215,0.0153,0.1028,-0.0291,-0.0983,0.1197,-0.055,0.0215,-0.0477,-0.0834,-0.0293,-0.1041,0.0355,0.0018,-0.0889,0.0358,0.0219,-0.0951,-0.0047,-0.0881,0.1014,0.0467,-0.0472,-0.083,-0.0206,-0.0865,0.0581,-1.0,-1.0,0.9554,-1.0,-0.3853,1.0,-0.759,-1.0,1.0,1.0,-1.0,1.0,-1.0,0.2557,1.0,-1.0,-1.0,1.0,0.0,0.0,0.0,0.0,0.0,0.0,0.0,0.0,0.0,0.0,0.0,0.0,0.0,0
0.2,run,1.46,4.66,-3.14,-7.58,-11.13,0.0,0.0,0.0,0.058,-5.01,8.0,78.13,1.49,12.83,80.42,-2.72,14.41,83.76,0.97,13.45,80.95,1.05,14.24,79.63,-4.92,16.35,82.62,-5.55,-7.95,82.74,-4.69,5.15,94.52,-8.37,8.75,91.79,6.8,8.49,86.08,-4.17,10.96,83.89,-12.08,1.63,90.83,-0.0147,-1.0,0.9597,-1.0,-0.5375,1.0,-1.0,-0.4223,0.5834,1.0,-1.0,1.0,-1.0,1.0,1.0,-1.0,-1.0,1.0,0.013,0.0,0.0,0.0,0.013,0.0,0.013,0.013,0.0,0.019,0.006,0.006,0.0,0.033,0.0,0.033,0.039,0.0,-0.0184,0.1258,-0.0092,-0.046,0.0015,-0.1058,0.0107,-0.0337,-0.0092,0.0414,-0.0491,0.0506,-0.0644,-0.0245,-0.0215,-0.0061,0.1028,-0.0092,-0.149,0.0838,-0.0442,0.0265,-0.1079,-0.0297,-0.0663,-0.1588,0.0879,0.0471,-0.1367,0.0709,0.0153,-0.1468,-0.0033,-0.1419,0.071,0.1072,-0.045,-0.097,0.0201,-0.0633,-0.081,-0.1185,-1.0,0.7442,-1.0,-0.9188,1.0,-1.0,-0.6542,1.0,1.0,-1.0,1.0,-1.0,0.0574,0.5781,-1.0,-1.0,1.0,0.0,0.0,0.0,0.0,0.0,0.0,0.0,0.0,0.0,0.0,0.0,0.0,0.0,0
0.24,run,1.48,4.74,-0.97,-0.03,-16.23,0.0,0.0,0.0,0.058,-6.24,7.03,78.75,0.88,11.43,81.56,-3.96,12.92,85.25,2.11,12.13,82.0,0.18,12.83,80.68,-6.33,15.64,83.94,-4.05,-9.45,84.24,-6.19,3.65,96.02,-9.87,10.25,93.29,8.3,6.99,87.58,-2.67,12.46,82.39,-13.58,0.13,92.33,0.5085,-1.0,0.9596,-1.0,-0.2971,1.0,-1.0,1.0,1.0,1.0,-1.0,1.0,0.7491,1.0,0.0172,-1.0,-1.0,1.0,0.0,0.026,0.026,0.019,0.006,0.006,0.026,0.006,0.0,0.033,0.0,0.013,0.006,0.013,0.006,0.019,0.0,0.006,-0.043,0.1212,-0.0077,-0.0491,-0.023,-0.089,-0.0061,-0.0583,0.0169,0.0552,-0.0706,0.0675,-0.066,-0.0476,-0.0153,-0.0322,0.0997,0.0138,-0.1959,0.0415,-0.0252,0.0071,-0.1671,0.0421,-0.1094,-0.2027,0.1588,0.0845,-0.1758,0.1126,0.005,-0.1886,0.0206,-0.1966,0.0382,0.1609,-0.0546,-0.1212,-0.0547,-0.1324,-0.1943,-0.0147,-1.0,0.9597,-1.0,-0.5375,1.0,-1.0,-0.4223,0.5834,1.0,-1.0,1.0,-1.0,1.0,1.0,-1.0,-1.0,1.0,0.0,0.0,0.0,0.0,0.0,0.0,0.0,0.0,0.0,0.0,0.0,0.0,0.0,0
0.28,run,1.65,4.97,4.18,4.23,-24.33,0.0,0.0,0.0,0.058,-6.59,5.98,79.72,-0.09,9.93,82.88,-5.36,11.6,86.66,3.6,10.72,83.67,-0.79,11.95,81.65,-7.82,14.5,85.43,-2.55,-10.95,82.74,-7.69,2.15,97.52,-8.37,11.04,91.79,9.8,5.49,89.08,-1.17,13.96,83.89,-15.08,-1.37,93.83,0.1606,0.1764,0.1542,-1.0,0.0359,1.0,0.9342,0.6553,0.252,1.0,-1.0,1.0,1.0,1.0,0.4015,-1.0,-1.0,1.0,0.0,0.026,0.026,0.019,0.006,0.006,0.026,0.006,0.0,0.033,0.0,0.013,0.006,0.013,0.006,0.019,0.0,0.006,-0.0644,0.1043,0.0031,-0.0598,-0.0476,-0.069,-0.0276,-0.0844,0.043,0.0752,-0.0936,0.0859,-0.0813,-0.0721,0.0031,-0.0568,0.0874,0.0368,-0.2181,-0.0346,0.0228,-0.0355,-0.2095,0.1047,-0.1575,-0.2402,0.2095,0.1343,-0.2098,0.1482,-0.0543,-0.2245,0.0838,-0.2302,-0.0195,0.1994,-0.0529,-0.1143,-0.0169,-0.0005,-0.2832,0.5085,-1.0,0.9596,-1.0,-0.2971,1.0,-1.0,1.0,1.0,1.0,-1.0,1.0,0.7491,1.0,0.0172,-1.0,-1.0,1.0,0.0,0.0,0.0,0.0,0.0,0.0,0.0,0.0,0.0,0.0,0.0,0.0,0.0,0
0.32,run,1.73,4.84,0.58,-2.08,-28.46,0.0,0.0,0.0,0.058,-7.47,4.66,80.95,-1.41,8.53,84.38,-6.68,10.63,88.15,5.01,9.4,84.9,-1.67,11.07,82.09,-9.23,13.1,86.84,-1.05,-9.45,84.24,-9.19,0.65,99.02,-9.87,9.54,90.29,11.3,3.99,90.58,0.33,15.46,85.39,-16.58,-2.87,95.33,0.707,1.0,1.0,-1.0,-0.6992,1.0,-1.0,0.1032,-0.3712,0.655,-1.0,1.0,1.0,1.0,1.0,-1.0,-1.0,1.0,0.0,0.026,0.026,0.019,0.006,0.006,0.026,0.006,0.0,0.033,0.0,0.013,0.006,0.013,0.006,0.019,0.0,0.006,-0.0706,0.0859,0.0199,-0.0767,-0.0736,-0.046,-0.0522,-0.1074,0.0675,0.1012,-0.1181,0.115,-0.0982,-0.0874,0.0199,-0.0828,0.0675,0.0629,-0.1732,-0.0858,0.0724,-0.0813,-0.2339,0.1503,-0.1924,-0.2451,0.2287,0.1813,-0.229,0.2012,-0.0945,-0.2085,0.1151,-0.2483,-0.0804,0.2268,-0.0377,-0.0936,0.0729,0.0739,-0.4246,0.1606,0.1764,0.1542,-1.0,0.0359,1.0,0.9342,0.6553,0.252,1.0,-1.0,1.0,1.0,1.0,0.4015,-1.0,-1.0,1.0,0.0,0.0,0.0,0.0,0.0,0.0,0.0,0.0,0.0,0.0,0.0,0.0,0.0,0
0.36,run,2.11,4.75,8.21,-2.45,-20.81,0.0,0.0,0.0,0.058,-7.12,3.16,82.27,-2.9,7.21,85.69,-7.82,9.93,89.47,6.42,8.0,86.4,-2.29,10.72,83.23,-10.72,11.78,88.15,0.45,-10.95,85.74,-10.69,-0.85,100.52,-11.37,11.04,88.79,12.8,2.49,92.08,1.83,16.96,86.89,-18.08,-4.37,96.83,1.0,-0.506,0.904,-1.0,-0.2089,1.0,-1.0,1.0,-0.5029,1.0,-1.0,1.0,1.0,1.0,0.9679,-1.0,-1.0,1.0,0.0,0.026,0.0,0.013,0.006,0.006,0.013,0.0,0.0,0.033,0.006,0.013,0.006,0.0,0.013,0.019,0.0,0.006,-0.0859,0.0629,0.0414,-0.0997,-0.0982,-0.0199,-0.0752,-0.1243,0.0936,0.1258,-0.1411,0.1365,-0.1135,-0.1028,0.0276,-0.1074,0.043,0.0874,-0.1865,-0.1579,0.142,-0.1547,-0.2681,0.2161,-0.2325,-0.2433,0.271,0.2312,-0.2581,0.2322,-0.1314,-0.2112,0.1132,-0.2782,-0.1606,0.2631,-0.0312,-0.1053,0.0101,-0.0363,-0.4968,0.707,1.0,1.0,-1.0,-0.6992,1.0,-1.0,0.1032,-0.3712,0.655,-1.0,1.0,1.0,1.0,1.0,-1.0,-1.0,1.0,0.0,0.0,0.0,0.0,0.0,0.0,0.0,0.0,0.0,0.0,0.0,0.0,0.0,0
0.4,run,2.6,4.99,10.21,5.93,-19.52,0.0,0.0,0.0,0.058,-7.03,1.58,83.58,-4.57,5.45,87.45,-9.05,9.58,90.7,8.09,6.42,88.15,-2.55,10.63,84.73,-12.3,10.02,89.82,1.95,-9.45,87.24,-12.19,-2.35,102.02,-12.87,12.54,87.29,14.3,0.99,93.58,3.33,18.46,88.39,-19.58,-5.87,98.33,0.4791,0.507,0.7428,-1.0,-1.0,1.0,-1.0,1.0,-0.0208,1.0,-1.0,1.0,1.0,1.0,0.9043,-1.0,-1.0,1.0,0.0,0.026,0.0,0.013,0.006,0.006,0.013,0.0,0.0,0.033,0.006,0.013,0.006,0.0,0.013,0.019,0.0,0.006,-0.0798,0.0368,0.0644,-0.1258,-0.1212,0.0031,-0.0951,-0.1365,0.1166,0.1503,-0.1657,0.1626,-0.1243,-0.1089,0.0476,-0.1335,0.0199,0.1104,-0.1076,-0.2081,0.1855,-0.2059,-0.2738,0.2374,-0.2374,-0.2163,0.2758,0.2537,-0.2725,0.2601,-0.1321,-0.1708,0.1539,-0.2923,-0.1985,0.2703,0.0019,-0.1132,0.1434,-0.0428,-0.3631,1.0,-0.506,0.904,-1.0,-0.2089,1.0,-1.0,1.0,-0.5029,1.0,-1.0,1.0,1.0,1.0,0.9679,-1.0,-1.0,1.0,0.0,0.0,0.0,0.0,0.0,0.0,0.0,0.0,0.0,0.0,0.0,0.0,0.0,0
0.44,run,3.07,5.21,11.89,6.13,-21.74,0.0,0.0,0.0,0.058,-5.98,0.09,84.38,-6.06,4.04,88.51,-9.93,9.58,91.41,9.58,5.45,89.56,-2.46,10.99,85.78,-13.71,8.61,91.23,3.45,-7.95,88.74,-13.69,-3.85,103.52,-14.37,14.04,85.79,15.8,-0.51,95.08,4.83,19.96,89.89,-21.08,-7.37,99.83,0.5762,1.0,1.0,-1.0,-1.0,1.0,-1.0,1.0,-0.0316,1.0,-1.0,1.0,1.0,1.0,0.4957,-1.0,-1.0,1.0,0.0,0.026,0.0,0.013,0.006,0.006,0.013,0.0,0.0,0.033,0.006,0.013,0.006,0.0,0.013,0.019,0.0,0.006,-0.0782,0.0092,0.0874,-0.1549,-0.1519,0.0337,-0.1166,-0.1427,0.1381,0.1795,-0.1933,0.1933,-0.1289,-0.1104,0.0736,-0.1611,-0.0107,0.1396,-0.0705,-0.2317,0.2016,-0.235,-0.2873,0.2618,-0.2331,-0.1705,0.26,0.2685,-0.2768,0.2777,-0.1068,-0.1243,0.189,-0.2907,-0.2346,0.2801,0.0449,-0.0918,0.1781,0.1035,-0.3406,0.4791,0.507,0.7428,-1.0,-1.0,1.0,-1.0,1.0,-0.0208,1.0,-1.0,1.0,1.0,1.0,0.9043,-1.0,-1.0,1.0,0.0,0.0,0.0,0.0,0.0,0.0,0.0,0.0,0.0,0.0,0.0,0.0,0.0,0
0.48,run,3.69,5.9,18.26,19.16,-25.39,0.0,0.0,0.0,0.058,-4.83,-1.32,85.34,-7.73,2.55,90.18,-11.07,9.84,91.67,11.07,3.78,90.88,-1.67,11.87,86.92,-15.12,7.29,92.72,1.95,-6.45,90.24,-15.19,-5.35,105.02,-15.87,15.54,84.29,17.3,-2.01,96.58,6.33,21.46,88.39,-22.58,-8.87,101.33,-0.378,1.0,0.5945,-1.0,-1.0,1.0,-1.0,0.9859,-0.0381,1.0,-1.0,1.0,1.0,1.0,-0.1413,-1.0,-1.0,1.0,0.026,0.026,0.019,0.006,0.006,0.026,0.026,0.033,0.0,0.019,0.013,0.013,0.013,0.026,0.013,0.033,0.0,0.013,-0.0598,-0.0169,0.1012,-0.181,-0.1764,0.0522,-0.1319,-0.1427,0.1503,0.2056,-0.2102,0.2178,-0.1273,-0.1043,0.092,-0.1856,-0.0353,0.1641,0.0193,-0.2594,0.1926,-0.2617,-0.2926,0.2519,-0.2204,-0.1194,0.2278,0.2851,-0.2567,0.2859,-0.0691,-0.0642,0.2009,-0.295,-0.2557,0.2875,0.0856,-0.0734,0.2076,0.1071,-0.3794,0.5762,1.0,1.0,-1.0,-1.0,1.0,-1.0,1.0,-0.0316,1.0,-1.0,1.0,1.0,1.0,0.4957,-1.0,-1.0,1.0,0.0,0.0,0.0,0.0,0.0,0.0,0.0,0.0,0.0,0.0,0.0,0.0,0.0,0
0.52,run,4.01,6.26,10.01,11.01,-24.86,0.0,0.0,0.0,0.058,-3.87,-2.72,86.84,-9.05,1.14,91.49,-12.3,10.63,91.85,12.48,2.46,92.37,-0.88,12.74,87.98,-16.44,5.8,94.13,3.27,-4.95,91.74,-16.69,-6.85,106.52,-17.37,14.04,82.79,18.8,-3.51,98.08,4.83,22.96,89.89,-24.08,-10.37,102.83,0.0934,1.0,0.9869,-1.0,-1.0,1.0,-1.0,-1.0,-1.0,1.0,-1.0,1.0,-0.8762,1.0,0.8946,-1.0,-1.0,1.0,0.026,0.026,0.019,0.006,0.006,0.026,0.026,0.033,0.0,0.019,0.013,0.013,0.013,0.026,0.013,0.033,0.0,0.013,-0.0399,-0.0414,0.1181,-0.2102,-0.2025,0.0813,-0.1519,-0.1381,0.1549,0.2316,-0.2393,0.2408,-0.1135,-0.089,0.112,-0.2102,-0.0583,0.1902,0.0879,-0.2732,0.1978,-0.292,-0.3021,0.2851,-0.2287,-0.0664,0.1766,0.2969,-0.2885,0.286,0.0032,0.0123,0.2151,-0.2981,-0.2649,0.2986,0.1403,-0.0127,0.3187,0.3345,-0.4432,-0.378,1.0,0.5945,-1.0,-1.0,1.0,-1.0,0.9859,-0.0381,1.0,-1.0,1.0,1.0,1.0,-0.1413,-1.0,-1.0,1.0,0.0,0.0,0.0,0.0,0.0,0.0,0.0,0.0,0.0,0.0,0.0,0.0,0.0,0
0.56,run,4.3,6.8,8.84,14.23,-19.56,0.0,0.0,0.0,0.058,-1.93,-4.04,87.98,-10.37,-0.26,92.81,-13.54,11.43,91.85,13.89,1.14,93.87,0.26,14.06,88.86,-17.93,4.39,95.45,4.77,-3.45,90.24,-18.19,-8.35,105.02,-18.87,12.54,84.29,20.3,-5.01,99.58,3.33,24.46,91.39,-25.58,-11.87,101.33,1.0,1.0,0.1879,-1.0,-1.0,-0.6492,-1.0,0.5564,1.0,1.0,-1.0,1.0,-1.0,1.0,0.7238,-1.0,-1.0,0.3024,0.026,0.026,0.019,0.006,0.006,0.026,0.026,0.033,0.0,0.019,0.013,0.013,0.013,0.026,0.013,0.033,0.0,0.013,-0.023,-0.066,0.1442,-0.2332,-0.227,0.1043,-0.1733,-0.1243,0.158,0.2562,-0.2623,0.2669,-0.0997,-0.0736,0.1304,-0.2332,-0.0844,0.2148,0.1253,-0.2839,0.2369,-0.2913,-0.3042,0.2865,-0.2412,0.0057,0.1352,0.3005,-0.2888,0.2987,0.0544,0.0666,0.2201,-0.2956,-0.2839,0.3017,0.1682,0.0188,0.1747,0.1922,-0.4339,0.0934,1.0,0.9869,-1.0,-1.0,1.0,-1.0,-1.0,-1.0,1.0,-1.0,1.0,-0.8762,1.0,0.8946,-1.0,-1.0,1.0,0.0,0.0,0.0,0.0,0.0,0.0,0.0,0.0,0.0,0.0,0.0,0.0,0.0,0
0.6,run,4.88,7.68,14.4,21.56,-10.13,0.0,0.0,0.0,0.136,-0.88,-5.62,89.38,-11.43,-1.85,94.39,-15.03,12.22,91.32,15.47,-0.53,95.45,1.58,15.38,89.65,-19.51,2.9,97.03,3.27,-1.95,88.74,-19.69,-9.85,106.52,-20.37,11.04,85.79,21.8,-6.51,101.08,1.83,25.96,89.89,-27.08,-13.37,99.83,-1.0,1.0,-0.4277,-1.0,-1.0,0.5426,-1.0,-1.0,1.0,1.0,-1.0,1.0,-1.0,1.0,-1.0,-1.0,-1.0,-1.0,0.013,0.0,0.006,0.026,0.006,0.033,0.019,0.084,0.065,0.019,0.019,0.006,0.019,0.136,0.026,0.033,0.0,0.019,0.0107,-0.089,0.1641,-0.2562,-0.2516,0.1273,-0.1948,-0.1104,0.158,0.2807,-0.2853,0.293,-0.0798,-0.0506,0.1457,-0.2592,-0.1089,0.2378,0.2136,-0.2846,0.2402,-0.2897,-0.3045,0.2863,-0.2489,0.0555,0.0946,0.3019,-0.288,0.3063,0.1124,0.1324,0.2113,-0.3042,-0.2903,0.297,0.193,0.0656,0.1543,0.2484,-0.3414,1.0,1.0,0.1879,-1.0,-1.0,-0.6492,-1.0,0.5564,1.0,1.0,-1.0,1.0,-1.0,1.0,0.7238,-1.0,-1.0,0.3024,0.0,0.0,0.0,0.0,0.0,0.0,0.0,0.0,0.0,0.0,0.0,0.0,0.0,0
0.64,run,5.07,8.11,6.12,13.39,-9.29,0.0,0.0,0.0,0.136,0.53,-5.98,90.26,-12.74,-3.08,95.62,-16.17,12.66,90.53,16.7,-1.76,96.59,2.46,16.52,90.35,-20.83,1.67,97.91,1.77,-0.45,87.24,-21.19,-11.35,105.02,-21.87,9.54,87.29,23.3,-8.01,102.58,0.33,27.46,91.39,-28.58,-14.87,98.33,-1.0,1.0,-0.6099,-1.0,-1.0,-0.5227,-1.0,-1.0,0.7373,1.0,-1.0,1.0,-1.0,1.0,1.0,-1.0,-1.0,-1.0,0.013,0.0,0.006,0.026,0.006,0.033,0.019,0.084,0.065,0.019,0.019,0.006,0.019,0.136,0.026,0.033,0.0,0.019,0.0291,-0.1166,0.1887,-0.2746,-0.2792,0.1549,-0.2209,-0.0966,0.1488,0.3083,-0.3145,0.3206,-0.0568,-0.0276,0.1595,-0.2869,-0.135,0.2654,0.2113,-0.2919,0.2505,-0.2646,-0.3058,0.2931,-0.2618,0.0852,0.0354,0.304,-0.2994,0.3071,0.1559,0.1699,0.1942,-0.3056,-0.2907,0.3006,0.2442,0.1428,0.2513,0.3763,-0.1769,-1.0,1.0,-0.4277,-1.0,-1.0,0.5426,-1.0,-1.0,1.0,1.0,-1.0,1.0,-1.0,1.0,-1.0,-1.0,-1.0,-1.0,0.0,0.0,0.0,0.0,0.0,0.0,0.0,0.0,0.0,0.0,0.0,0.0,0.0,0
0.68,run,5.6,8.78,12.18,17.63,-7.88,0.0,0.0,0.0,0.136,1.49,-6.24,91.05,-14.24,-4.57,97.12,-17.58,13.1,89.38,18.11,-3.16,98.17,3.08,17.75,90.7,-22.24,0.26,99.05,0.27,1.05,85.74,-22.69,-12.85,103.52,-23.37,8.04,88.79,24.8,-9.51,104.08,-1.17,25.96,89.89,-30.08,-16.37,96.83,-0.8065,1.0,-0.4618,-1.0,-1.0,-1.0,-1.0,-1.0,1.0,1.0,-1.0,1.0,-1.0,-0.8141,-0.1051,-0.9684,-1.0,-1.0,0.013,0.0,0.006,0.026,0.006,0.033,0.019,0.084,0.065,0.019,0.019,0.006,0.019,0.136,0.026,0.033,0.0,0.019,0.0537,-0.1227,0.204,-0.2976,-0.3007,0.1764,-0.2408,-0.089,0.135,0.3298,-0.3359,0.3405,-0.0414,-0.0077,0.1718,-0.3099,-0.1565,0.2807,0.2527,-0.2305,0.2409,-0.2835,-0.3058,0.2969,-0.2684,0.0924,-0.0342,0.3045,-0.3013,0.3002,0.1747,0.2041,0.1884,-0.3122,-0.2952,0.2759,0.2601,0.1803,0.1069,0.2336,-0.1621,-1.0,1.0,-0.6099,-1.0,-1.0,-0.5227,-1.0,-1.0,0.7373,1.0,-1.0,1.0,-1.0,1.0,1.0,-1.0,-1.0,-1.0,0.0,0.0,0.0,0.0,0.0,0.0,0.0,0.0,0.0,0.0,0.0,0.0,0.0,0
0.72,run,6.01,9.2,9.43,11.49,-9.34,0.0,0.0,0.0,0.136,2.29,-6.33,91.49,-15.64,-5.98,98.44,-18.98,13.1,88.42,19.6,-4.57,99.49,3.43,19.07,90.97,-23.64,-0.97,100.02,-1.23,2.55,84.24,-24.19,-14.35,102.02,-24.87,6.54,90.29,26.3,-11.01,105.58,-2.67,27.46,91.39,-28.58,-17.87,95.33,-1.0,1.0,-0.603,-1.0,-1.0,-1.0,-1.0,-1.0,0.9887,1.0,-0.4332,1.0,-1.0,1.0,1.0,1.0,-1.0,-1.0,0.013,0.019,0.0,0.019,0.006,0.026,0.026,0.006,0.052,0.026,0.026,0.006,0.006,0.117,0.013,0.026,0.006,0.0,0.0706,-0.1273,0.2178,-0.3237,-0.3267,0.2025,-0.2654,-0.0813,0.115,0.3543,-0.3605,0.3682,-0.0307,0.0138,0.1779,-0.3344,-0.181,0.3007,0.2396,-0.1785,0.2199,-0.2954,-0.311,0.3047,-0.2791,0.0932,-0.0981,0.3044,-0.3021,0.3127,0.1622,0.2227,0.1547,-0.3097,-0.2979,0.2673,0.3065,0.239,0.2125,0.3077,-0.1376,-0.8065,1.0,-0.4618,-1.0,-1.0,-1.0,-1.0,-1.0,1.0,1.0,-1.0,1.0,-1.0,-0.8141,-0.1051,-0.9684,-1.0,-1.0,0.0,0.0,0.0,0.0,0.0,0.0,0.0,0.0,0.0,0.0,0.0,0.0,0.0,0
0.76,run,6.31,9.3,6.32,2.69,-5.74,0.0,0.0,0.0,0.136,2.81,-6.24,91.49,-17.05,-7.29,99.84,-20.3,12.57,87.63,21.01,-6.06,100.9,3.25,20.48,90.88,-25.05,-2.2,100.99,0.27,4.05,85.74,-25.69,-15.85,100.52,-26.37,5.04,91.79,27.8,-12.51,107.08,-4.17,25.96,89.89,-27.08,-19.37,93.83,0.4926,1.0,0.7719,-1.0,-1.0,-1.0,-1.0,-1.0,1.0,1.0,-0.6842,1.0,-1.0,-0.6492,-0.1689,1.0,-0.0024,-1.0,0.013,0.019,0.0,0.019,0.006,0.026,0.026,0.006,0.052,0.026,0.026,0.006,0.006,0.117,0.013,0.026,0.006,0.0,0.0844,-0.1289,0.2255,-0.3482,-0.3513,0.2255,-0.2899,-0.0813,0.0982,0.3804,-0.385,0.3912,-0.0245,0.0368,0.1825,-0.359,-0.2025,0.3175,0.2197,-0.1307,0.1828,-0.2992,-0.3101,0.3,-0.2878,0.0652,-0.1322,0.3113,-0.3039,0.3056,0.1366,0.2425,0.1256,-0.3093,-0.2894,0.2506,0.3423,0.2751,0.1646,0.2005,-0.163,-1.0,1.0,-0.603,-1.0,-1.0,-1.0,-1.0,-1.0,0.9887,1.0,-0.4332,1.0,-1.0,1.0,1.0,1.0,-1.0,-1.0,0.0,0.0,0.0,0.0,0.0,0.0,0.0,0.0,0.0,0.0,0.0,0.0,0.0,0
0.8,run,6.48,8.61,0.11,-0.39,-0.3,0.0,0.0,0.0,0.136,-1.05,4.48,84.2,-26.89,-16.88,99.14,-27.77,3.08,93.34,29.09,-11.07,108.63,-5.54,26.28,88.59,-25.66,-17.23,92.55,-1.23,5.55,84.24,-27.19,-17.35,99.02,-27.87,3.54,93.29,29.3,-11.01,108.58,-5.67,27.46,88.39,-25.58,-17.87,92.33,-0.1138,0.6172,-0.1869,-1.0,-1.0,-1.0,-1.0,-1.0,1.0,1.0,0.7873,1.0,-1.0,1.0,-0.1519,1.0,0.1555,-1.0,0.006,0.033,0.0,0.006,0.006,0.006,0.0,0.019,0.0,0.0,0.0,0.0,0.0,0.071,0.006,0.0,0.013,0.006,0.0936,-0.1273,0.2255,-0.3728,-0.3743,0.25,-0.3129,-0.0905,0.0844,0.405,-0.4111,0.4157,-0.0276,0.0614,0.181,-0.3835,-0.224,0.3344,0.1885,-0.0857,0.128,-0.302,-0.3038,0.3025,-0.2882,0.011,-0.1446,0.3104,-0.3111,0.3064,0.0841,0.2623,0.0821,-0.309,-0.2835,0.2391,0.3682,0.2843,0.1103,0.047,-0.1001,0.4926,1.0,0.7719,-1.0,-1.0,-1.0,-1.0,-1.0,1.0,1.0,-0.6842,1.0,-1.0,-0.6492,-0.1689,1.0,-0.0024,-1.0,0.0,0.0,0.0,0.0,0.0,0.0,0.0,0.0,0.0,0.0,0.0,0.0,0.0,0
0.84,run,6.5,8.5,0.34,-0.17,-0.24,0.0,0.0,0.0,0.136,-1.05,4.48,84.11,-26.89,-16.88,99.14,-27.77,3.08,93.34,29.09,-11.07,108.63,-5.54,26.28,88.59,-25.66,-17.23,92.55,-2.73,4.05,85.74,-28.69,-15.85,97.52,-29.37,5.04,94.79,30.8,-9.51,107.08,-7.17,25.96,86.89,-24.08,-16.37,90.83,-1.0,-1.0,1.0,-1.0,0.1895,-1.0,-1.0,0.6247,1.0,1.0,1.0,-1.0,-1.0,-1.0,-0.2331,1.0,1.0,-1.0,0.006,0.033,0.0,0.006,0.006,0.006,0.0,0.019,0.0,0.0,0.0,0.0,0.0,0.071,0.006,0.0,0.013,0.006,0.0261,0.0598,0.0982,-0.5446,-0.5415,0.2378,-0.4433,-0.2562,0.1841,0.5461,-0.4985,0.5507,-0.181,0.1626,0.1411,-0.3942,-0.4863,0.1871,0.1885,-0.0857,0.128,-0.302,-0.3038,0.3025,-0.2882,0.011,-0.1446,0.3104,-0.3111,0.3064,0.0841,0.2623,0.0821,-0.309,-0.2835,0.2391,0.3835,0.2241,0.0019,-0.0069,-0.0053,-0.1138,0.6172,-0.1869,-1.0,-1.0,-1.0,-1.0,-1.0,1.0,1.0,0.7873,1.0,-1.0,1.0,-0.1519,1.0,0.1555,-1.0,0.0,0.0,0.0,0.0,0.0,0.0,0.0,0.0,0.0,0.0,0.0,0.0,0.0,0
0.88,run,6.49,8.43,0.16,0.67,-0.02,0.0,0.0,0.0,0.136,-0.97,4.48,84.11,-26.89,-16.88,98.7,-27.77,3.16,93.34,29.0,-10.9,108.28,-5.54,26.28,88.51,-25.4,-17.23,92.29,-4.23,2.55,87.24,-30.19,-17.35,96.02,-30.87,3.54,96.29,29.3,-8.01,105.58,-8.67,24.46,85.39,-22.58,-14.87,89.33,-1.0,-1.0,1.0,-1.0,-0.1083,-1.0,-1.0,-1.0,1.0,0.6907,1.0,-1.0,-1.0,-1.0,0.0654,1.0,1.0,-1.0,0.0,0.039,0.0,0.0,0.0,0.006,0.0,0.078,0.0,0.0,0.006,0.013,0.0,0.006,0.033,0.006,0.0,0.006,0.0261,0.0598,0.0966,-0.5446,-0.5415,0.2378,-0.4433,-0.2562,0.1841,0.5461,-0.4985,0.5507,-0.181,0.1626,0.1411,-0.3942,-0.4863,0.1871,0.132,-0.06,0.0863,-0.2114,-0.2127,0.2118,-0.2017,0.0077,-0.1012,0.2173,-0.2177,0.2145,0.0589,0.1836,0.0575,-0.2163,-0.1985,0.1673,0.3854,0.2137,0.0059,-0.003,-0.0042,-1.0,-1.0,1.0,-1.0,0.1895,-1.0,-1.0,0.6247,1.0,1.0,1.0,-1.0,-1.0,-1.0,-0.2331,1.0,1.0,-1.0,0.0,0.0,0.0,0.0,0.0,0.0,0.0,0.0,0.0,0.0,0.0,0.0,0.0,0
0.92,run,6.4,8.44,-0.66,1.65,0.48,0.0,0.0,0.0,0.136,-0.97,4.48,84.11,-26.89,-16.88,98.09,-27.77,3.16,93.34,29.0,-10.28,107.58,-5.54,25.84,87.8,-24.61,-16.96,91.76,-2.73,1.05,88.74,-31.69,-18.85,94.52,-32.37,2.04,97.79,29.6,-6.51,104.08,-10.17,22.96,85.66,-21.08,-13.37,87.83,0.0358,-1.0,1.0,-1.0,0.0729,-1.0,-1.0,-1.0,1.0,0.8458,1.0,-1.0,-1.0,-1.0,0.2431,1.0,1.0,-1.0,0.0,0.039,0.0,0.0,0.0,0.006,0.0,0.078,0.0,0.0,0.006,0.013,0.0,0.006,0.033,0.006,0.0,0.006,0.0276,0.0598,0.0966,-0.5446,-0.5415,0.2301,-0.4433,-0.2546,0.1841,0.5446,-0.4955,0.5446,-0.181,0.1626,0.1396,-0.3896,-0.4863,0.1825,0.0981,-0.042,0.0604,-0.148,-0.1489,0.1195,-0.1412,0.0111,-0.0708,0.1464,-0.1409,0.1272,0.0412,0.1285,0.0345,-0.1342,-0.1389,0.0999,0.3843,0.2078,0.0028,0.0117,-0.0004,-1.0,-1.0,1.0,-1.0,-0.1083,-1.0,-1.0,-1.0,1.0,0.6907,1.0,-1.0,-1.0,-1.0,0.0654,1.0,1.0,-1.0,0.0,0.0,0.0,0.0,0.0,0.0,0.0,0.0,0.0,0.0,0.0,0.0,0.0,0
0.96,run,6.08,8.55,-6.37,4.95,4.2,0.0,0.0,0.0,0.136,-0.97,4.48,83.94,-26.89,-16.17,97.21,-27.77,3.96,93.34,28.83,-9.49,106.61,-5.1,24.96,87.19,-23.73,-16.35,90.88,-1.23,-0.45,90.24,-33.19,-17.35,93.02,-33.87,0.54,99.29,31.1,-5.01,102.58,-11.67,21.46,87.16,-19.58,-11.87,86.33,1.0,-1.0,1.0,-1.0,0.3237,-1.0,-1.0,-1.0,1.0,1.0,1.0,-1.0,-1.0,-1.0,0.4227,1.0,1.0,-1.0,0.0,0.039,0.0,0.0,0.0,0.006,0.0,0.078,0.0,0.0,0.006,0.013,0.0,0.006,0.033,0.006,0.0,0.006,0.0276,0.0598,0.0966,-0.5446,-0.5415,0.2194,-0.4433,-0.2546,0.1841,0.5446,-0.4847,0.5323,-0.181,0.1549,0.1273,-0.3758,-0.4817,0.1733,0.0687,-0.0294,0.0423,-0.1036,-0.1042,0.0437,-0.0989,0.0078,-0.0496,0.1025,-0.0587,0.0433,0.0288,0.0614,-0.0216,-0.0425,-0.0801,0.0356,0.3768,0.2086,-0.0116,0.0287,0.0084,0.0358,-1.0,1.0,-1.0,0.0729,-1.0,-1.0,-1.0,1.0,0.8458,1.0,-1.0,-1.0,-1.0,0.2431,1.0,1.0,-1.0,0.0,0.0,0.0,0.0,0.0,0.0,0.0,0.0,0.0,0.0,0.0,0.0,0.0,0
1.0,run,5.68,8.57,-7.96,1.36,10.15,0.0,0.0,0.0,0.136,-0.44,4.92,83.76,-26.63,-15.64,95.98,-27.51,4.57,93.16,28.39,-8.44,105.47,-5.01,23.99,86.4,-22.5,-15.29,89.82,0.27,-1.95,91.74,-34.69,-15.85,91.52,-32.37,-0.96,100.79,32.6,-3.51,101.08,-13.17,19.96,88.66,-18.08,-10.37,84.83,1.0,-1.0,1.0,-1.0,0.8903,-1.0,0.3127,-1.0,1.0,1.0,1.0,-1.0,-1.0,-1.0,0.3896,1.0,1.0,-1.0,0.0,0.026,0.0,0.006,0.0,0.013,0.0,0.052,0.013,0.006,0.013,0.013,0.0,0.0,0.033,0.013,0.013,0.019,0.0276,0.0598,0.0936,-0.5446,-0.5292,0.204,-0.4433,-0.2408,0.1841,0.5415,-0.4709,0.5154,-0.1733,0.1396,0.1166,-0.3605,-0.4709,0.158,0.0481,-0.0206,0.0181,-0.0725,-0.0271,-0.0268,-0.0692,0.0571,-0.0347,0.0602,0.0106,-0.0328,0.0489,-0.0144,-0.0553,0.0276,-0.0159,-0.0324,0.3487,0.2182,-0.1111,0.0864,0.0733,1.0,-1.0,1.0,-1.0,0.3237,-1.0,-1.0,-1.0,1.0,1.0,1.0,-1.0,-1.0,-1.0,0.4227,1.0,1.0,-1.0,0.0,0.0,0.0,0.0,0.0,0.0,0.0,0.0,0.0,0.0,0.0,0.0,0.0,0
1.04,run,5.31,8.7,-8.09,5.82,13.1,0.0,0.002,0.0,0.136,-0.44,4.92,83.67,-26.54,-15.29,94.66,-27.42,5.01,93.16,28.48,-7.12,104.06,-5.19,22.59,85.96,-21.18,-13.97,88.59,1.77,-3.45,93.24,-35.0,-14.35,90.02,-30.87,-2.46,102.29,34.1,-2.01,99.58,-14.67,18.46,87.16,-16.58,-8.87,83.33,1.0,-1.0,1.0,-1.0,0.4824,-1.0,1.0,-1.0,1.0,1.0,1.0,-0.6062,-1.0,-0.3438,-0.1781,1.0,1.0,-1.0,0.0,0.026,0.0,0.006,0.0,0.013,0.0,0.052,0.013,0.006,0.013,0.013,0.0,0.0,0.033,0.013,0.013,0.019,0.0368,0.0675,0.0905,-0.54,-0.52,0.1825,-0.4387,-0.2301,0.181,0.5338,-0.4525,0.4955,-0.1718,0.1227,0.1028,-0.339,-0.4525,0.1396,0.0681,0.0143,0.0012,-0.0335,0.0155,-0.0992,-0.0312,0.0801,-0.0358,0.0135,0.0763,-0.0976,0.04,-0.0732,-0.0904,0.0997,0.0578,-0.0916,0.3137,0.2201,-0.1389,0.0237,0.1771,1.0,-1.0,1.0,-1.0,0.8903,-1.0,0.3127,-1.0,1.0,1.0,1.0,-1.0,-1.0,-1.0,0.3896,1.0,1.0,-1.0,0.0,0.0,0.0,0.0,0.0,0.0,0.0,0.0,0.0,0.0133,0.0,0.0133,0.0,0
1.08,run,4.92,8.68,-9.4,2.04,11.51,0.0,0.004,0.0,0.136,0.09,4.92,84.11,-26.81,-15.21,93.25,-27.51,5.1,93.52,29.36,-5.8,102.83,-5.71,21.27,85.69,-19.86,-12.66,87.28,0.27,-4.95,94.74,-35.0,-12.85,88.52,-29.37,-3.96,103.79,35.0,-0.51,98.08,-16.17,16.96,85.66,-15.08,-7.37,81.83,-0.6432,-1.0,1.0,-1.0,0.6045,-1.0,1.0,-1.0,1.0,1.0,1.0,-0.2089,-1.0,-0.3583,-0.2823,1.0,1.0,-1.0,0.0,0.026,0.0,0.006,0.0,0.013,0.0,0.052,0.013,0.006,0.013,0.013,0.0,0.0,0.033,0.013,0.013,0.019,0.0368,0.0675,0.089,-0.5384,-0.5139,0.1595,-0.4372,-0.2224,0.181,0.5354,-0.4295,0.4709,-0.1749,0.0982,0.0951,-0.316,-0.4295,0.1181,0.0477,0.01,-0.0049,-0.0177,0.034,-0.1563,-0.0161,0.0851,-0.025,0.0152,0.1403,-0.161,0.0164,-0.1439,-0.0922,0.1566,0.1273,-0.1452,0.2817,0.2319,-0.1412,0.1016,0.2287,1.0,-1.0,1.0,-1.0,0.4824,-1.0,1.0,-1.0,1.0,1.0,1.0,-0.6062,-1.0,-0.3438,-0.1781,1.0,1.0,-1.0,0.0,0.0,0.0,0.0,0.0,0.0,0.0,0.0,0.0,0.0267,0.0,0.0267,0.0,0
1.12,run,4.69,8.74,-5.55,3.45,6.79,0.0,0.006,0.0,0.136,0.62,4.31,84.81,-27.6,-15.03,91.76,-28.04,4.66,94.31,30.06,-4.39,101.43,-6.59,19.86,85.69,-18.46,-11.25,85.78,-1.23,-6.45,96.24,-35.0,-11.35,87.02,-27.87,-5.46,105.29,35.0,0.99,96.58,-17.67,15.46,87.16,-13.58,-5.87,80.33,-1.0,-1.0,1.0,-1.0,1.0,-1.0,1.0,-1.0,1.0,1.0,1.0,-0.6173,-1.0,-1.0,0.8841,1.0,1.0,-1.0,0.006,0.0,0.006,0.019,0.006,0.006,0.006,0.0,0.0,0.026,0.006,0.013,0.026,0.0,0.006,0.006,0.006,0.019,0.046,0.0675,0.0966,-0.543,-0.5123,0.135,-0.4387,-0.2209,0.1871,0.5507,-0.4065,0.4495,-0.1841,0.0752,0.0905,-0.293,-0.4065,0.0951,0.0677,0.007,0.0251,-0.0295,0.0295,-0.2009,-0.017,0.0653,0.0053,0.0678,0.184,-0.1927,-0.0228,-0.1865,-0.0817,0.1954,0.1749,-0.1874,0.2475,0.2295,-0.164,0.0356,0.2008,-0.6432,-1.0,1.0,-1.0,0.6045,-1.0,1.0,-1.0,1.0,1.0,1.0,-0.2089,-1.0,-0.3583,-0.2823,1.0,1.0,-1.0,0.0,0.0,0.0,0.0,0.0,0.0,0.0,0.0,0.0,0.04,0.0,0.04,0.0,0
1.16,run,4.93,8.49,2.05,-1.33,-2.34,0.0,0.008,0.0,0.136,0.18,1.67,87.89,-30.32,-13.27,88.86,-28.92,2.29,97.29,32.87,-1.41,98.44,-9.49,16.96,86.84,-15.47,-8.26,82.88,0.27,-7.95,97.74,-35.0,-9.85,85.52,-26.37,-6.96,106.79,33.5,2.49,95.08,-19.17,13.96,88.66,-12.08,-4.37,78.83,0.7159,-1.0,1.0,-1.0,1.0,-1.0,1.0,-1.0,1.0,0.25,1.0,0.3355,-1.0,-0.8261,1.0,1.0,1.0,-1.0,0.006,0.0,0.006,0.019,0.006,0.006,0.006,0.0,0.0,0.026,0.006,0.013,0.026,0.0,0.006,0.006,0.006,0.019,0.0552,0.0568,0.1089,-0.5568,-0.5093,0.1089,-0.4479,-0.2286,0.201,0.563,-0.382,0.4249,-0.1994,0.0506,0.0905,-0.2684,-0.382,0.069,0.0819,-0.0354,0.0636,-0.0724,0.0322,-0.2384,-0.0464,0.0169,0.0555,0.0935,0.2208,-0.2269,-0.0735,-0.2226,-0.0572,0.2288,0.2144,-0.229,0.2277,0.235,-0.0968,0.0603,0.1185,-1.0,-1.0,1.0,-1.0,1.0,-1.0,1.0,-1.0,1.0,1.0,1.0,-0.6173,-1.0,-1.0,0.8841,1.0,1.0,-1.0,0.0,0.0,0.0,0.0,0.0,0.0,0.0,0.0,0.0,0.0533,0.0,0.0533,0.0,0
1.2,run,5.16,8.48,4.95,2.69,-6.48,0.0,0.01,0.0,0.136,-0.53,0.44,89.12,-31.64,-12.39,87.98,-28.92,0.97,98.61,33.75,-0.44,97.56,-10.72,16.0,87.28,-14.59,-7.29,81.91,1.77,-9.45,99.24,-35.0,-8.35,84.02,-24.87,-8.46,108.29,32.0,3.99,93.58,-20.67,15.46,90.16,-10.58,-2.87,77.33,1.0,-1.0,1.0,-1.0,1.0,-1.0,1.0,-1.0,1.0,-1.0,1.0,-0.3312,-1.0,1.0,0.7812,1.0,1.0,-1.0,0.006,0.0,0.013,0.013,0.013,0.019,0.013,0.0,0.0,0.006,0.006,0.019,0.019,0.006,0.006,0.013,0.006,0.019,0.0476,0.0107,0.1626,-0.6044,-0.4786,0.0583,-0.4633,-0.27,0.2531,0.6121,-0.3298,0.3728,-0.25,0.0,0.1104,-0.2163,-0.3298,0.0184,0.0446,-0.101,0.1335,-0.1295,0.0734,-0.2508,-0.0579,-0.0568,0.1253,0.1468,0.241,-0.2453,-0.1354,-0.2397,-0.007,0.2466,0.2366,-0.2442,0.2482,0.2132,0.0358,-0.0232,-0.0409,0.7159,-1.0,1.0,-1.0,1.0,-1.0,1.0,-1.0,1.0,0.25,1.0,0.3355,-1.0,-0.8261,1.0,1.0,1.0,-1.0,0.0,0.0,0.0,0.0,0.0,0.0,0.0,0.0,0.0,0.0667,0.0,0.0667,0.0,0
1.24,run,5.4,8.48,3.82,1.74,-3.55,0.0,0.012,0.0,0.136,-0.7,-0.88,90.44,-32.7,-11.43,86.84,-28.74,-0.35,99.93,34.37,0.53,96.42,-12.13,15.12,88.07,-13.45,-6.24,80.77,3.27,-10.95,100.74,-35.0,-6.85,82.52,-23.37,-9.96,109.79,30.5,5.49,92.08,-22.17,13.96,88.66,-9.08,-1.37,75.83,1.0,-1.0,1.0,-1.0,1.0,0.0563,1.0,-1.0,1.0,-1.0,1.0,-1.0,-1.0,-1.0,-1.0,1.0,1.0,-1.0,0.006,0.0,0.013,0.013,0.013,0.019,0.013,0.0,0.0,0.006,0.006,0.019,0.019,0.006,0.006,0.013,0.006,0.019,0.0353,-0.0107,0.1841,-0.6274,-0.4633,0.043,-0.4633,-0.293,0.2761,0.6274,-0.3129,0.3574,-0.2715,-0.0169,0.1181,-0.201,-0.3129,0.0015,-0.019,-0.1586,0.1814,-0.1849,0.1142,-0.2383,-0.0405,-0.134,0.1819,0.1656,0.2378,-0.2345,-0.1827,-0.2369,0.0265,0.2354,0.2347,-0.24,0.2683,0.2124,0.0863,0.047,-0.1131,1.0,-1.0,1.0,-1.0,1.0,-1.0,1.0,-1.0,1.0,-1.0,1.0,-0.3312,-1.0,1.0,0.7812,1.0,1.0,-1.0,0.0,0.0,0.0,0.0,0.0,0.0,0.0,0.0,0.0,0.08,0.0,0.08,0.0,0
1.28,run,5.62,8.54,6.0,3.47,1.39,0.0,0.014,0.0,0.136,-0.7,-2.55,91.93,-33.66,-10.37,85.52,-27.69,-1.76,101.25,34.63,1.32,95.19,-13.54,14.41,88.77,-12.13,-4.92,79.63,4.77,-12.45,102.24,-35.0,-5.35,84.02,-21.87,-11.46,111.29,29.0,6.99,90.58,-23.67,12.46,90.16,-7.58,0.13,74.33,1.0,-1.0,1.0,-1.0,1.0,1.0,1.0,-1.0,1.0,-1.0,1.0,-0.5636,-1.0,-1.0,0.4217,1.0,1.0,-0.4186,0.006,0.0,0.013,0.013,0.013,0.019,0.013,0.0,0.0,0.006,0.006,0.019,0.019,0.006,0.006,0.013,0.006,0.019,0.0322,-0.0337,0.2071,-0.6458,-0.4464,0.023,-0.4602,-0.316,0.2991,0.6381,-0.2961,0.3375,-0.2961,-0.0322,0.1319,-0.181,-0.2945,-0.0184,-0.0254,-0.2019,0.2178,-0.2021,0.1466,-0.2456,-0.0163,-0.1846,0.2182,0.1583,0.2331,-0.2429,-0.2248,-0.2264,0.0731,0.2436,0.237,-0.2468,0.2892,0.2124,0.0666,0.0303,-0.0619,1.0,-1.0,1.0,-1.0,1.0,0.0563,1.0,-1.0,1.0,-1.0,1.0,-1.0,-1.0,-1.0,-1.0,1.0,1.0,-1.0,0.0,0.0,0.0,0.0,0.0,0.0,0.0,0.0,0.0,0.0933,0.0,0.0933,0.0,0
1.32,run,5.5,8.29,-4.74,-2.2,8.22,0.0,0.016,0.0,0.136,-0.53,-3.78,93.34,-34.28,-9.67,84.38,-26.28,-3.16,102.57,34.72,2.99,93.96,-14.94,13.62,89.47,-10.72,-3.6,78.22,6.27,-13.95,103.74,-35.0,-3.85,85.52,-20.37,-12.96,112.79,27.5,5.49,89.08,-25.17,10.96,91.66,-6.08,1.63,75.83,1.0,-1.0,1.0,-1.0,1.0,1.0,1.0,-1.0,1.0,-1.0,0.3118,-0.6406,-1.0,-1.0,0.8744,1.0,1.0,1.0,0.026,0.0,0.006,0.006,0.026,0.0,0.013,0.006,0.0,0.006,0.013,0.019,0.019,0.0,0.006,0.006,0.006,0.026,0.0322,-0.0629,0.2332,-0.6627,-0.428,0.0,-0.4418,-0.3405,0.3221,0.6427,-0.2823,0.316,-0.3206,-0.0445,0.1442,-0.158,-0.2715,-0.0383,-0.0178,-0.2507,0.2503,-0.2048,0.1717,-0.2583,0.0577,-0.2213,0.2391,0.1281,0.215,-0.2506,-0.2494,-0.2045,0.0972,0.2568,0.2522,-0.2476,0.3083,0.2172,0.1047,0.0606,0.0243,1.0,-1.0,1.0,-1.0,1.0,1.0,1.0,-1.0,1.0,-1.0,1.0,-0.5636,-1.0,-1.0,0.4217,1.0,1.0,-0.4186,0.0,0.0,0.0,0.0,0.0,0.0,0.0,0.0,0.0,0.1067,0.0,0.1067,0.0,0
1.36,run,5.58,8.48,2.46,4.87,8.74,0.0,0.018,0.0,0.136,0.26,-5.19,94.75,-34.54,-8.09,83.23,-24.87,-4.57,103.8,34.1,4.22,92.64,-16.35,12.57,90.26,-9.32,-2.29,76.99,7.77,-15.45,105.24,-35.0,-2.35,87.02,-18.87,-14.46,114.29,26.0,3.99,87.58,-26.67,9.46,93.16,-4.58,3.13,77.33,1.0,-1.0,1.0,-1.0,1.0,1.0,1.0,-1.0,1.0,-1.0,-1.0,-1.0,-1.0,-1.0,1.0,0.6719,1.0,1.0,0.026,0.0,0.006,0.006,0.026,0.0,0.013,0.006,0.0,0.006,0.013,0.019,0.019,0.0,0.006,0.006,0.006,0.026,0.0353,-0.0844,0.2577,-0.6734,-0.4157,-0.0199,-0.4172,-0.3651,0.3451,0.6443,-0.2531,0.2945,-0.3451,-0.0583,0.1565,-0.1335,-0.2485,-0.0629,-0.0009,-0.2561,0.2673,-0.1836,0.1662,-0.2556,0.1325,-0.247,0.2537,0.0954,0.2598,-0.256,-0.2667,-0.195,0.1141,0.2719,0.2629,-0.2654,0.2981,0.1959,-0.0827,-0.0384,0.1434,1.0,-1.0,1.0,-1.0,1.0,1.0,1.0,-1.0,1.0,-1.0,0.3118,-0.6406,-1.0,-1.0,0.8744,1.0,1.0,1.0,0.0,0.0,0.0,0.0,0.0,0.0,0.0,0.0,0.0,0.12,0.0,0.12,0.0,0
1.4,run,5.7,8.37,4.48,-2.9,5.35,0.0,0.02,0.0,0.136,1.23,-6.59,96.15,-34.54,-6.86,82.97,-23.55,-5.98,105.12,33.49,5.19,91.49,-17.75,11.51,90.88,-8.0,-1.32,76.03,9.27,-16.95,106.74,-33.5,-3.85,88.52,-17.37,-15.96,115.79,24.5,2.49,89.08,-28.17,7.96,94.66,-6.08,4.63,78.83,1.0,-1.0,1.0,0.2011,0.0382,1.0,1.0,-1.0,1.0,-1.0,-1.0,0.2927,-1.0,-1.0,1.0,-0.9138,1.0,1.0,0.026,0.0,0.006,0.006,0.026,0.0,0.013,0.006,0.0,0.006,0.013,0.019,0.019,0.0,0.006,0.006,0.006,0.026,0.0491,-0.1089,0.2823,-0.678,-0.3881,-0.0399,-0.3927,-0.3896,0.3666,0.6335,-0.2316,0.2715,-0.3697,-0.0767,0.1703,-0.1089,-0.2255,-0.0844,0.0514,-0.2718,0.2796,-0.1459,0.2204,-0.2541,0.1852,-0.2654,0.2585,0.0263,0.2628,-0.2659,-0.2792,-0.2059,0.1319,0.2828,0.2708,-0.2667,0.3048,0.2124,0.0429,0.0851,0.1526,1.0,-1.0,1.0,-1.0,1.0,1.0,1.0,-1.0,1.0,-1.0,-1.0,-1.0,-1.0,-1.0,1.0,0.6719,1.0,1.0,0.0,0.0,0.0,0.0,0.0,0.0,0.0,0.0,0.0,0.1333,0.0,0.1333,0.0,0
1.44,run,5.38,7.27,-12.53,-27.4,3.97,0.0,0.022,0.0,0.136,2.55,-7.82,97.56,-34.54,-5.8,82.44,-22.15,-7.38,106.44,32.26,5.71,90.09,-19.16,10.37,92.11,-6.86,-0.09,75.32,7.77,-18.45,108.24,-32.0,-5.35,90.02,-15.87,-17.46,117.29,23.0,0.99,87.58,-29.67,6.46,96.16,-7.58,6.13,80.33,-0.2243,-1.0,1.0,1.0,-1.0,1.0,1.0,-1.0,1.0,-1.0,-1.0,-1.0,-1.0,-1.0,0.5647,-1.0,1.0,1.0,0.026,0.006,0.006,0.0,0.045,0.019,0.006,0.0,0.0,0.013,0.026,0.019,0.026,0.0,0.006,0.019,0.013,0.006,0.066,-0.1335,0.3068,-0.678,-0.3666,-0.0445,-0.3697,-0.4142,0.3896,0.6228,-0.2148,0.2516,-0.3942,-0.0951,0.181,-0.0859,-0.2086,-0.1012,0.0989,-0.2818,0.2873,-0.1021,0.2344,-0.195,0.2155,-0.2774,0.2668,-0.0216,0.2469,-0.2605,-0.287,-0.2128,0.1324,0.2838,0.2525,-0.2496,0.3158,0.203,0.0782,-0.0507,0.0934,1.0,-1.0,1.0,0.2011,0.0382,1.0,1.0,-1.0,1.0,-1.0,-1.0,0.2927,-1.0,-1.0,1.0,-0.9138,1.0,1.0,0.0,0.0,0.0,0.0,0.0,0.0,0.0,0.0,0.0,0.1467,0.0,0.1467,0.0,0
1.48,run,5.06,7.01,-9.72,-6.53,-3.52,0.0,0.024,0.0,0.136,3.96,-9.23,99.05,-34.37,-5.01,82.62,-20.65,-8.88,107.93,31.03,5.89,88.95,-20.65,9.05,93.43,-5.89,1.41,74.88,6.27,-19.95,109.74,-30.5,-6.85,91.52,-14.37,-18.96,118.79,21.5,-0.51,86.08,-31.17,4.96,94.66,-6.08,7.63,81.83,-1.0,-1.0,0.8035,1.0,-0.0841,1.0,1.0,-1.0,1.0,-1.0,-0.1888,-1.0,-1.0,-1.0,-1.0,0.0408,1.0,1.0,0.026,0.006,0.006,0.0,0.045,0.019,0.006,0.0,0.0,0.013,0.026,0.019,0.026,0.0,0.006,0.019,0.013,0.006,0.089,-0.1549,0.3313,-0.678,-0.3482,-0.0537,-0.3451,-0.4387,0.4126,0.6013,-0.2056,0.227,-0.4188,-0.115,0.2025,-0.066,-0.1871,-0.1135,0.1555,-0.2778,0.2931,-0.0715,0.2331,-0.171,0.2429,-0.2862,0.273,-0.0957,0.2074,-0.2744,-0.2929,-0.2237,0.1732,0.2734,0.2572,-0.2208,0.2873,0.107,-0.2186,-0.4782,0.0693,-0.2243,-1.0,1.0,1.0,-1.0,1.0,1.0,-1.0,1.0,-1.0,-1.0,-1.0,-1.0,-1.0,0.5647,-1.0,1.0,1.0,0.0,0.0,0.0,0.0,0.0,0.0,0.0,0.0,0.0,0.16,0.0,0.16,0.0,0
1.52,run,5.07,6.55,-0.21,-13.57,-4.57,0.0,0.026,0.0,0.136,5.36,-10.55,100.28,-33.57,-4.48,83.23,-19.42,-10.28,109.16,29.53,5.89,87.98,-22.06,7.82,94.48,-5.27,2.72,74.88,4.77,-21.45,108.24,-29.0,-8.35,93.02,-12.87,-20.46,120.29,20.0,-2.01,84.58,-32.67,3.46,93.16,-7.58,9.13,83.33,-1.0,-1.0,-0.5821,1.0,-0.2373,1.0,1.0,-1.0,1.0,-1.0,-1.0,-1.0,-1.0,-1.0,-0.5624,-1.0,1.0,1.0,0.026,0.006,0.006,0.0,0.045,0.019,0.006,0.0,0.0,0.013,0.026,0.019,0.026,0.0,0.006,0.019,0.013,0.006,0.1135,-0.1795,0.3574,-0.675,-0.3344,-0.0506,-0.3191,-0.4648,0.4387,0.5798,-0.2025,0.2071,-0.4449,-0.1381,0.2255,-0.0491,-0.1611,-0.1212,0.2013,-0.2868,0.3034,-0.0385,0.2151,-0.1082,0.2682,-0.2985,0.2893,-0.1478,0.1567,-0.2672,-0.3032,-0.2432,0.2079,0.2549,0.2783,-0.1834,0.2593,0.0842,-0.1696,-0.114,-0.0615,-1.0,-1.0,0.8035,1.0,-0.0841,1.0,1.0,-1.0,1.0,-1.0,-0.1888,-1.0,-1.0,-1.0,-1.0,0.0408,1.0,1.0,0.0,0.0,0.0,0.0,0.0,0.0,0.0,0.0,0.0,0.1733,0.0,0.1733,0.0,0
1.56,run,5.31,6.14,7.07,-10.16,-7.55,0.0,0.028,0.0,0.136,6.33,-11.87,101.6,-32.7,-4.04,84.02,-17.93,-11.78,110.65,28.21,5.8,86.92,-23.38,6.5,95.45,-4.92,3.96,75.06,3.27,-22.95,106.74,-27.5,-9.85,94.52,-11.37,-21.96,121.79,18.5,-3.51,83.08,-34.17,1.96,91.66,-9.08,7.63,84.83,-1.0,-1.0,-0.3256,1.0,-1.0,1.0,1.0,-1.0,1.0,-1.0,-0.793,-0.3903,-1.0,-1.0,-1.0,-1.0,-0.4368,1.0,0.006,0.013,0.013,0.026,0.058,0.045,0.019,0.0,0.006,0.019,0.0,0.019,0.019,0.006,0.006,0.006,0.071,0.013,0.1381,-0.2025,0.3789,-0.6611,-0.3252,-0.0399,-0.2976,-0.4893,0.4602,0.5538,-0.2025,0.1902,-0.4694,-0.1595,0.2439,-0.0383,-0.1381,-0.1212,0.2326,-0.2867,0.2926,0.0246,0.185,-0.0356,0.268,-0.3006,0.2827,-0.2009,0.1097,-0.25,-0.3039,-0.2505,0.2143,0.2186,0.2807,-0.1284,0.2608,0.0436,-0.0037,-0.2368,-0.0798,-1.0,-1.0,-0.5821,1.0,-0.2373,1.0,1.0,-1.0,1.0,-1.0,-1.0,-1.0,-1.0,-1.0,-0.5624,-1.0,1.0,1.0,0.0,0.0,0.0,0.0,0.0,0.0,0.0,0.0,0.0,0.1867,0.0,0.1867,0.0,0
1.6,run,5.14,5.3,-4.19,-15.03,-4.68,0.0,0.03,0.0,0.136,7.12,-13.1,102.92,-31.9,-4.04,85.17,-16.52,-13.18,112.15,26.81,5.19,85.61,-24.87,5.27,95.98,-5.01,5.1,75.67,1.77,-24.45,105.24,-26.0,-11.35,96.02,-9.87,-23.46,123.29,17.0,-5.01,84.58,-35.0,0.46,90.16,-10.58,6.13,86.33,-1.0,-1.0,-0.3775,1.0,-1.0,1.0,1.0,-1.0,1.0,-1.0,-0.3567,0.2835,-1.0,-1.0,0.2061,-1.0,-0.5957,1.0,0.006,0.013,0.013,0.026,0.058,0.045,0.019,0.0,0.006,0.019,0.0,0.019,0.019,0.006,0.006,0.006,0.071,0.013,0.1549,-0.2255,0.4019,-0.6458,-0.3175,-0.0261,-0.2715,-0.5154,0.4863,0.5308,-0.204,0.1718,-0.4924,-0.1825,0.2608,-0.0322,-0.1166,-0.1181,0.2264,-0.2875,0.2916,0.0751,0.1584,0.0271,0.2859,-0.3088,0.2962,-0.2274,0.071,-0.2444,-0.2995,-0.2621,0.2136,0.1761,0.2775,-0.0783,0.2818,0.0078,0.1234,-0.1773,-0.1317,-1.0,-1.0,-0.3256,1.0,-1.0,1.0,1.0,-1.0,1.0,-1.0,-0.793,-0.3903,-1.0,-1.0,-1.0,-1.0,-0.4368,1.0,0.0,0.0,0.0,0.0,0.0,0.0,0.0,0.0,0.0,0.2,0.0,0.2,0.0,0
1.64,run,4.9,4.98,-5.1,-7.19,6.03,0.0,0.032,0.0,0.136,7.56,-14.24,104.15,-30.41,-3.96,86.57,-15.12,-14.68,113.55,25.4,4.13,84.46,-26.19,3.87,96.06,-5.45,5.98,76.38,0.27,-25.95,103.74,-24.5,-12.85,97.52,-8.37,-24.96,124.79,15.5,-6.51,86.08,-35.0,-1.04,88.66,-12.08,4.63,87.83,-1.0,-1.0,-0.0468,1.0,-1.0,1.0,1.0,-1.0,1.0,-1.0,-0.3252,0.391,-1.0,-1.0,0.0511,-1.0,-1.0,1.0,0.006,0.013,0.013,0.026,0.058,0.045,0.019,0.0,0.006,0.019,0.0,0.019,0.019,0.006,0.006,0.006,0.071,0.013,0.1687,-0.247,0.4249,-0.632,-0.3175,-0.0061,-0.247,-0.54,0.5123,0.5062,-0.2148,0.1488,-0.5185,-0.204,0.27,-0.0337,-0.0966,-0.1074,0.2057,-0.2746,0.2827,0.0997,0.1109,0.0871,0.284,-0.3,0.2965,-0.243,0.013,-0.2497,-0.2988,-0.2569,0.181,0.118,0.2624,-0.0181,0.2668,-0.065,-0.0731,-0.2624,-0.0816,-1.0,-1.0,-0.3775,1.0,-1.0,1.0,1.0,-1.0,1.0,-1.0,-0.3567,0.2835,-1.0,-1.0,0.2061,-1.0,-0.5957,1.0,0.0,0.0,0.0,0.0,0.0,0.0,0.0,0.0,0.0,0.2133,0.0,0.2133,0.0,0
1.68,run,4.7,4.33,-4.8,-15.84,4.98,0.0,0.034,0.0,0.136,7.38,-15.73,105.21,-29.18,-4.39,87.98,-13.71,-16.08,114.96,24.08,2.9,83.58,-27.69,2.46,95.71,-6.33,6.68,77.87,-1.23,-27.45,102.24,-23.0,-14.35,99.02,-6.87,-26.46,126.29,14.0,-8.01,87.58,-35.0,-2.54,90.16,-13.58,3.13,89.33,-1.0,-1.0,-0.4024,1.0,-1.0,1.0,1.0,-1.0,1.0,-1.0,-0.2188,0.571,-1.0,-1.0,0.6152,-1.0,-1.0,1.0,0.006,0.026,0.0,0.045,0.0,0.026,0.019,0.0,0.006,0.033,0.0,0.013,0.013,0.006,0.013,0.006,0.097,0.013,0.1764,-0.2669,0.4464,-0.6059,-0.316,0.0184,-0.2224,-0.566,0.5369,0.4817,-0.2332,0.1289,-0.5415,-0.2286,0.2715,-0.0414,-0.0813,-0.0951,0.1755,-0.2741,0.2861,0.1769,0.0839,0.1618,0.2996,-0.3171,0.3083,-0.2709,-0.0665,-0.2567,-0.3036,-0.2806,0.133,0.0511,0.2466,0.0377,0.2454,-0.0929,-0.089,-0.1254,0.1052,-1.0,-1.0,-0.0468,1.0,-1.0,1.0,1.0,-1.0,1.0,-1.0,-0.3252,0.391,-1.0,-1.0,0.0511,-1.0,-1.0,1.0,0.0,0.0,0.0,0.0,0.0,0.0,0.0,0.0,0.0,0.2267,0.0,0.2267,0.0,0
1.72,run,4.58,3.63,-1.85,-15.11,-5.04,0.0,0.036,0.0,0.136,6.86,-17.23,106.44,-27.95,-5.27,89.38,-12.3,-17.58,116.37,22.85,1.58,83.32,-29.09,1.14,95.01,-7.47,7.12,79.28,-2.73,-28.95,100.74,-21.5,-15.85,100.52,-5.37,-27.96,127.79,12.5,-6.51,89.08,-35.0,-4.04,88.66,-15.08,1.63,90.83,-1.0,-1.0,-0.3444,1.0,-1.0,1.0,1.0,-1.0,1.0,-1.0,0.6472,1.0,-1.0,-1.0,0.1273,-1.0,-1.0,1.0,0.006,0.026,0.0,0.045,0.0,0.026,0.019,0.0,0.006,0.033,0.0,0.013,0.013,0.006,0.013,0.006,0.097,0.013,0.1733,-0.293,0.4648,-0.5844,-0.3237,0.043,-0.1979,-0.5906,0.5614,0.4587,-0.2546,0.1135,-0.5676,-0.2531,0.2654,-0.0568,-0.069,-0.069,0.1113,-0.2901,0.2696,0.2047,0.0298,0.2057,0.3022,-0.3144,0.3083,-0.2763,-0.1274,-0.2375,-0.3108,-0.2889,0.07,-0.022,0.2189,0.1246,0.2281,-0.1501,-0.0838,-0.2765,0.0869,-1.0,-1.0,-0.4024,1.0,-1.0,1.0,1.0,-1.0,1.0,-1.0,-0.2188,0.571,-1.0,-1.0,0.6152,-1.0,-1.0,1.0,0.0,0.0,0.0,0.0,0.0,0.0,0.0,0.0,0.0,0.24,0.0,0.24,0.0,0
1.76,run,4.67,3.22,4.21,-13.25,3.24,0.0,0.038,0.0,0.136,6.24,-18.72,106.52,-26.63,-6.5,90.79,-10.63,-19.07,117.77,21.36,0.18,82.88,-30.59,-0.35,94.04,-8.88,7.29,80.68,-4.23,-30.45,99.24,-20.0,-17.35,102.02,-3.87,-29.46,129.29,11.0,-5.01,87.58,-35.0,-5.54,88.54,-16.58,0.13,92.33,-1.0,-1.0,-0.5444,1.0,-1.0,1.0,1.0,-1.0,1.0,-1.0,1.0,-0.1334,-1.0,-1.0,0.277,-1.0,-1.0,1.0,0.006,0.026,0.0,0.045,0.0,0.026,0.019,0.0,0.006,0.033,0.0,0.013,0.013,0.006,0.013,0.006,0.097,0.013,0.1641,-0.3191,0.4863,-0.563,-0.339,0.0675,-0.1733,-0.6167,0.586,0.4372,-0.2777,0.1089,-0.5921,-0.2761,0.2531,-0.0767,-0.0614,-0.0445,0.0434,-0.3008,0.2692,0.2238,-0.0366,0.236,0.3035,-0.3178,0.3078,-0.2739,-0.1754,-0.1835,-0.3095,-0.2884,0.003,-0.0901,0.182,0.1792,0.2178,-0.2109,-0.0324,-0.2637,-0.0879,-1.0,-1.0,-0.3444,1.0,-1.0,1.0,1.0,-1.0,1.0,-1.0,0.6472,1.0,-1.0,-1.0,0.1273,-1.0,-1.0,1.0,0.0,0.0,0.0,0.0,0.0,0.0,0.0,0.0,0.0,0.2533,0.0,0.2533,0.0,0
1.8,run,4.8,3.2,3.1,0.53,-5.52,0.0,0.04,0.0,0.136,4.92,-20.04,106.52,-25.31,-7.82,92.2,-9.23,-20.57,119.18,19.86,-1.14,83.32,-31.9,-1.67,92.64,-10.28,7.29,82.18,-5.73,-31.95,97.74,-18.5,-18.85,103.52,-2.37,-30.96,130.79,9.5,-3.51,89.08,-33.5,-7.04,87.04,-18.08,-1.37,93.83,-1.0,-1.0,-0.7952,1.0,-1.0,1.0,1.0,-1.0,1.0,-1.0,1.0,0.6074,-0.498,-1.0,0.1218,-1.0,-1.0,1.0,0.0,0.026,0.013,0.039,0.0,0.045,0.006,0.0,0.013,0.026,0.0,0.019,0.006,0.019,0.019,0.006,0.0,0.013,0.1534,-0.3451,0.4878,-0.54,-0.3605,0.092,-0.1442,-0.6427,0.6105,0.4111,-0.3022,0.1012,-0.6182,-0.3022,0.2362,-0.1012,-0.0583,-0.0199,-0.0099,-0.3085,0.1942,0.243,-0.1062,0.2573,0.3218,-0.3204,0.3076,-0.2896,-0.2149,-0.1572,-0.3145,-0.2998,-0.0612,-0.1552,0.1389,0.2176,0.2258,-0.2471,0.0736,-0.2312,0.0565,-1.0,-1.0,-0.5444,1.0,-1.0,1.0,1.0,-1.0,1.0,-1.0,1.0,-0.1334,-1.0,-1.0,0.277,-1.0,-1.0,1.0,0.0,0.0,0.0,0.0,0.0,0.0,0.0,0.0,0.0,0.2667,0.0,0.2667,0.0,0
1.84,run,4.4,3.24,-10.44,2.19,-2.34,0.0,0.042,0.0,0.136,3.69,-21.53,106.0,-23.91,-9.23,93.6,-8.0,-21.97,120.59,18.54,-2.46,83.85,-33.13,-3.08,91.23,-11.6,7.03,83.5,-7.23,-33.45,96.24,-17.0,-20.35,105.02,-0.87,-32.46,132.29,8.0,-2.01,87.58,-32.0,-8.54,88.54,-19.58,-2.87,95.33,-1.0,-1.0,-1.0,1.0,-1.0,1.0,1.0,-1.0,1.0,-1.0,0.4983,-0.4862,0.049,-1.0,1.0,-1.0,-1.0,1.0,0.0,0.026,0.013,0.039,0.0,0.045,0.006,0.0,0.013,0.026,0.0,0.019,0.006,0.019,0.019,0.006,0.0,0.013,0.1304,-0.3682,0.4878,-0.517,-0.3835,0.1166,-0.1197,-0.6688,0.6351,0.385,-0.3252,0.1089,-0.6412,-0.3252,0.2117,-0.1258,-0.0583,0.0061,-0.0933,-0.3022,0.1359,0.2564,-0.1607,0.2722,0.3174,-0.3221,0.3074,-0.3005,-0.2368,-0.0813,-0.3065,-0.2962,-0.1349,-0.2007,0.0972,0.2501,0.2367,-0.2486,0.0541,0.0093,-0.0964,-1.0,-1.0,-0.7952,1.0,-1.0,1.0,1.0,-1.0,1.0,-1.0,1.0,0.6074,-0.498,-1.0,0.1218,-1.0,-1.0,1.0,0.0,0.0,0.0,0.0,0.0,0.0,0.0,0.0,0.0,0.28,0.0,0.28,0.0,0
1.88,run,4.35,3.37,-1.11,3.78,-7.07,0.0,0.044,0.0,0.136,2.29,-22.94,105.12,-22.41,-10.55,95.01,-6.59,-23.38,121.99,17.14,-3.6,84.81,-34.1,-4.48,89.82,-13.1,6.15,84.9,-8.73,-34.95,94.74,-15.5,-21.85,106.52,0.63,-33.96,133.79,6.5,-3.51,86.08,-30.5,-10.04,90.04,-21.08,-4.37,96.83,-1.0,-1.0,-1.0,1.0,-1.0,1.0,1.0,-1.0,1.0,-1.0,0.3575,0.2416,1.0,-1.0,1.0,-1.0,-1.0,1.0,0.0,0.026,0.013,0.039,0.0,0.045,0.006,0.0,0.013,0.026,0.0,0.019,0.006,0.019,0.019,0.006,0.0,0.013,0.1089,-0.3942,0.4786,-0.4924,-0.408,0.1411,-0.0982,-0.6934,0.6596,0.362,-0.3482,0.1181,-0.6627,-0.3497,0.1871,-0.1488,-0.0629,0.0291,-0.1458,-0.3093,0.0607,0.2715,-0.2045,0.2825,0.3027,-0.3175,0.3072,-0.2966,-0.252,-0.0224,-0.2951,-0.2993,-0.1865,-0.2268,0.0508,0.2613,0.2018,-0.2447,-0.1822,0.0382,-0.0409,-1.0,-1.0,-1.0,1.0,-1.0,1.0,1.0,-1.0,1.0,-1.0,0.4983,-0.4862,0.049,-1.0,1.0,-1.0,-1.0,1.0,0.0,0.0,0.0,0.0,0.0,0.0,0.0,0.0,0.0,0.2933,0.0,0.2933,0.0,0
1.92,run,4.26,3.5,-2.58,4.33,-3.41,0.0,0.046,0.0,0.136,0.53,-24.35,104.06,-20.92,-11.95,96.42,-5.19,-24.79,123.49,15.73,-4.48,85.78,-34.63,-5.98,88.68,-14.24,4.75,86.31,-10.23,-36.45,93.24,-14.0,-23.35,108.02,2.13,-35.46,135.29,5.0,-5.01,84.58,-29.0,-11.54,91.54,-22.58,-5.87,98.33,-1.0,-1.0,-1.0,1.0,-1.0,1.0,1.0,-1.0,1.0,-1.0,0.2739,-0.6251,1.0,-1.0,1.0,-1.0,-1.0,1.0,0.019,0.019,0.013,0.058,0.0,0.058,0.019,0.0,0.013,0.039,0.0,0.019,0.006,0.026,0.0,0.026,0.0,0.033,0.0844,-0.4188,0.4633,-0.4663,-0.431,0.1657,-0.0736,-0.7179,0.6842,0.3375,-0.3682,0.135,-0.6796,-0.3743,0.1626,-0.1749,-0.0782,0.0537,-0.1938,-0.3083,-0.0149,0.2876,-0.2292,0.2896,0.3036,-0.314,0.3068,-0.2994,-0.251,0.0474,-0.2696,-0.3013,-0.2223,-0.2562,-0.0218,0.2747,0.1975,-0.2337,-0.0194,0.0659,-0.1233,-1.0,-1.0,-1.0,1.0,-1.0,1.0,1.0,-1.0,1.0,-1.0,0.3575,0.2416,1.0,-1.0,1.0,-1.0,-1.0,1.0,0.0,0.0,0.0,0.0,0.0,0.0,0.0,0.0,0.0,0.3067,0.0,0.3067,0.0,0
1.96,run,4.42,3.84,4.81,9.8,-5.82,0.0,0.048,0.0,0.136,-0.44,-25.75,102.74,-19.51,-13.45,97.82,-3.87,-26.19,124.89,14.33,-4.92,86.48,-34.89,-7.21,87.98,-15.91,3.34,87.63,-11.73,-37.95,91.74,-12.5,-24.85,109.52,3.63,-36.96,136.79,3.5,-3.51,83.08,-27.5,-13.04,93.04,-24.08,-7.37,99.83,-1.0,-1.0,-1.0,1.0,-1.0,1.0,1.0,-1.0,1.0,-1.0,0.3973,-0.1115,1.0,-1.0,1.0,-1.0,-1.0,1.0,0.019,0.019,0.013,0.058,0.0,0.058,0.019,0.0,0.013,0.039,0.0,0.019,0.006,0.026,0.0,0.026,0.0,0.033,0.0537,-0.4433,0.4449,-0.4403,-0.4556,0.1902,-0.0491,-0.7424,0.7102,0.3129,-0.3835,0.1519,-0.6888,-0.4004,0.1427,-0.1948,-0.1028,0.0782,-0.2505,-0.3077,-0.0793,0.2989,-0.2523,0.2945,0.3044,-0.3117,0.3124,-0.3015,-0.2331,0.0963,-0.2232,-0.3085,-0.2302,-0.254,-0.1071,0.2842,0.1898,-0.2224,-0.045,0.0756,-0.0595,-1.0,-1.0,-1.0,1.0,-1.0,1.0,1.0,-1.0,1.0,-1.0,0.2739,-0.6251,1.0,-1.0,1.0,-1.0,-1.0,1.0,0.0,0.0,0.0,0.0,0.0,0.0,0.0,0.0,0.0,0.32,0.0,0.32,0.0,0
2.0,run,4.53,4.1,2.8,8.74,-13.39,0.0,0.05,0.0,0.136,-2.11,-27.16,101.34,-18.11,-14.94,99.23,-2.46,-27.6,126.3,13.01,-5.01,86.84,-34.89,-8.61,87.45,-17.23,1.93,88.86,-13.23,-39.45,90.24,-11.0,-26.35,111.02,5.13,-38.46,138.29,2.0,-5.01,81.58,-26.0,-14.54,94.54,-25.58,-8.87,101.33,-1.0,-0.9112,-1.0,1.0,-1.0,1.0,1.0,-1.0,1.0,-1.0,-0.2871,-1.0,1.0,-1.0,1.0,-1.0,-1.0,1.0,0.019,0.019,0.013,0.058,0.0,0.058,0.019,0.0,0.013,0.039,0.0,0.019,0.006,0.026,0.0,0.026,0.0,0.033,0.0368,-0.4679,0.4218,-0.4157,-0.4817,0.2148,-0.0261,-0.767,0.7348,0.2884,-0.3912,0.1641,-0.6934,-0.4218,0.1304,-0.224,-0.1273,0.1012,-0.2392,-0.3082,-0.1426,0.3021,-0.2753,0.299,0.3001,-0.311,0.3115,-0.3039,-0.1922,0.1139,-0.1736,-0.2972,-0.2076,-0.2881,-0.1678,0.286,0.204,-0.1922,0.0839,0.171,-0.1016,-1.0,-1.0,-1.0,1.0,-1.0,1.0,1.0,-1.0,1.0,-1.0,0.3973,-0.1115,1.0,-1.0,1.0,-1.0,-1.0,1.0,0.0,0.0,0.0,0.0,0.0,0.0,0.0,0.0,0.0,0.3333,0.0,0.3333,0.0,0
2.04,run,4.65,4.46,2.88,10.31,-13.84,0.0,0.05,0.0,0.136,-3.43,-28.56,99.93,-16.7,-16.44,100.55,-1.05,-28.92,127.62,11.6,-5.01,86.84,-34.1,-10.11,87.45,-18.63,0.44,90.26,-14.73,-40.95,88.74,-9.5,-27.85,112.52,6.63,-39.96,139.79,0.5,-6.51,80.08,-24.5,-16.04,96.04,-27.08,-10.37,102.83,-1.0,-0.8563,-1.0,1.0,-1.0,1.0,1.0,-0.9688,1.0,-1.0,-0.3385,0.1591,1.0,-0.8652,1.0,-1.0,-1.0,1.0,0.006,0.026,0.013,0.039,0.0,0.058,0.026,0.0,0.013,0.052,0.0,0.0,0.006,0.019,0.013,0.013,0.0,0.033,0.0077,-0.4924,0.3973,-0.3912,-0.5077,0.2393,-0.0015,-0.7915,0.7593,0.2654,-0.3927,0.1703,-0.6934,-0.4464,0.1212,-0.247,-0.1519,0.1227,-0.2768,-0.3078,-0.1919,0.3035,-0.2905,0.3014,0.3022,-0.3098,0.3101,-0.299,-0.1403,0.1027,-0.1216,-0.3001,-0.1799,-0.288,-0.2096,0.2808,0.2133,-0.1698,0.0489,0.1525,-0.2338,-1.0,-0.9112,-1.0,1.0,-1.0,1.0,1.0,-1.0,1.0,-1.0,-0.2871,-1.0,1.0,-1.0,1.0,-1.0,-1.0,1.0,0.0,0.0,0.0,0.0,0.0,0.0,0.0,0.0,0.0,0.3333,0.0,0.3333,0.0,0
2.08,run,4.71,4.95,2.12,13.19,-16.06,0.0,0.05,0.0,0.136,-4.83,-30.06,98.53,-15.21,-17.93,102.04,0.26,-30.32,128.76,10.2,-5.54,86.48,-33.22,-11.51,87.54,-20.13,-0.97,91.67,-16.23,-39.45,87.24,-8.0,-29.35,114.02,8.13,-41.46,141.29,-1.0,-8.01,78.58,-23.0,-17.54,97.54,-28.58,-11.87,104.33,-1.0,-0.053,-1.0,1.0,-1.0,1.0,1.0,-0.4254,1.0,-1.0,-0.9313,-1.0,1.0,-0.4267,1.0,-1.0,-0.8467,1.0,0.006,0.026,0.013,0.039,0.0,0.058,0.026,0.0,0.013,0.052,0.0,0.0,0.006,0.019,0.013,0.013,0.0,0.033,-0.0153,-0.517,0.3728,-0.3666,-0.5338,0.2623,0.023,-0.8145,0.7823,0.2408,-0.3927,0.1703,-0.6796,-0.4725,0.1212,-0.2715,-0.1779,0.1473,-0.2802,-0.3077,-0.2265,0.3047,-0.3013,0.2974,0.3037,-0.3033,0.3035,-0.3015,-0.0982,0.0719,-0.0332,-0.308,-0.1259,-0.2938,-0.2446,0.2887,0.2238,-0.1382,0.0502,0.1799,-0.2415,-1.0,-0.8563,-1.0,1.0,-1.0,1.0,1.0,-0.9688,1.0,-1.0,-0.3385,0.1591,1.0,-0.8652,1.0,-1.0,-1.0,1.0,0.0,0.0,0.0,0.0,0.0,0.0,0.0,0.0,0.0,0.3333,0.0,0.3333,0.0,0
2.12,run,4.7,5.33,-0.21,9.97,-9.34,0.0,0.05,0.0,0.136,-6.59,-31.73,96.77,-13.45,-19.6,103.71,2.02,-31.9,130.08,8.35,-6.06,85.78,-31.82,-13.18,88.86,-21.97,-2.72,93.34,-17.73,-37.95,85.74,-6.5,-30.85,115.52,9.63,-39.96,142.79,-2.5,-9.51,77.08,-21.5,-16.04,99.04,-30.08,-13.37,105.83,-1.0,0.3332,-1.0,1.0,-1.0,1.0,1.0,1.0,1.0,-1.0,-0.8628,-0.2312,1.0,0.5057,1.0,-1.0,-0.4951,1.0,0.006,0.026,0.013,0.039,0.0,0.058,0.026,0.0,0.013,0.052,0.0,0.0,0.006,0.019,0.013,0.013,0.0,0.033,-0.0399,-0.543,0.3482,-0.3405,-0.5599,0.2884,0.046,-0.8391,0.8023,0.2163,-0.4019,0.1641,-0.6642,-0.497,0.1227,-0.2976,-0.2025,0.1718,-0.2876,-0.3126,-0.2501,0.3105,-0.3081,0.3054,0.2984,-0.3038,0.2868,-0.3026,-0.1031,0.0275,0.0339,-0.3071,-0.0824,-0.3029,-0.2628,0.2936,0.2292,-0.0959,0.0369,0.2302,-0.2803,-1.0,-0.053,-1.0,1.0,-1.0,1.0,1.0,-0.4254,1.0,-1.0,-0.9313,-1.0,1.0,-0.4267,1.0,-1.0,-0.8467,1.0,0.0,0.0,0.0,0.0,0.0,0.0,0.0,0.0,0.0,0.3333,0.0,0.3333,0.0,0
2.16,run,4.49,5.34,-6.63,3.91,-5.26,0.0,0.05,0.0,0.136,-7.73,-32.87,95.62,-12.22,-20.83,104.85,3.25,-33.13,131.04,7.03,-6.86,84.73,-30.5,-14.33,89.65,-23.47,-3.96,94.57,-19.23,-36.45,84.24,-5.0,-32.35,117.02,11.13,-38.46,144.29,-4.0,-11.01,75.58,-20.0,-14.54,100.54,-31.58,-14.87,107.33,-1.0,1.0,-1.0,1.0,-1.0,1.0,1.0,1.0,1.0,-1.0,-1.0,-1.0,1.0,1.0,1.0,-1.0,-0.5145,1.0,0.013,0.026,0.019,0.039,0.0,0.071,0.019,0.0,0.078,0.026,0.0,0.0,0.006,0.006,0.013,0.0,0.0,0.045,-0.0706,-0.5722,0.3175,-0.3099,-0.589,0.3175,0.0767,-0.8667,0.8253,0.1841,-0.4111,0.1519,-0.6397,-0.5262,0.1457,-0.3298,-0.2332,0.201,-0.2974,-0.31,-0.2711,0.3134,-0.3069,0.305,0.3049,-0.2991,0.2728,-0.3126,-0.1009,-0.0192,0.1006,-0.3062,0.0143,-0.3128,-0.2799,0.2967,0.228,-0.0626,-0.0036,0.1741,-0.163,-1.0,0.3332,-1.0,1.0,-1.0,1.0,1.0,1.0,1.0,-1.0,-0.8628,-0.2312,1.0,0.5057,1.0,-1.0,-0.4951,1.0,0.0,0.0,0.0,0.0,0.0,0.0,0.0,0.0,0.0,0.3333,0.0,0.3333,0.0,0
2.2,run,4.12,5.52,-9.43,6.0,0.41,0.0,0.05,0.0,0.136,-9.23,-34.37,94.13,-10.72,-22.24,106.35,4.75,-34.45,132.28,5.54,-7.82,83.41,-29.18,-15.29,90.97,-24.61,-5.36,95.89,-20.73,-34.95,82.74,-3.5,-33.85,118.52,12.63,-36.96,145.79,-5.5,-12.51,74.08,-18.5,-13.04,102.04,-33.08,-16.37,108.83,-1.0,1.0,-1.0,1.0,-1.0,1.0,1.0,1.0,1.0,-1.0,-1.0,-0.6734,1.0,0.7642,1.0,-1.0,-0.7661,1.0,0.013,0.026,0.019,0.039,0.0,0.071,0.019,0.0,0.078,0.026,0.0,0.0,0.006,0.006,0.013,0.0,0.0,0.045,-0.0905,-0.5921,0.2976,-0.2884,-0.6105,0.3375,0.0982,-0.8882,0.8422,0.1611,-0.4249,0.1335,-0.6167,-0.5461,0.1595,-0.3559,-0.2546,0.2224,-0.2953,-0.3042,-0.2769,0.3132,-0.3087,0.3007,0.3073,-0.3032,0.2647,-0.3194,-0.131,-0.0939,0.171,-0.3015,0.0704,-0.3329,-0.2898,0.3016,0.2101,-0.0616,-0.1158,0.0683,-0.0919,-1.0,1.0,-1.0,1.0,-1.0,1.0,1.0,1.0,1.0,-1.0,-1.0,-1.0,1.0,1.0,1.0,-1.0,-0.5145,1.0,0.0,0.0,0.0,0.0,0.0,0.0,0.0,0.0,0.0,0.3333,0.0,0.3333,0.0,0
2.24,run,3.78,5.44,-9.1,-1.5,2.65,0.0,0.05,0.0,0.136,-10.63,-35.51,92.81,-9.23,-23.64,107.93,6.42,-35.86,133.42,4.04,-8.96,82.0,-27.69,-16.0,92.46,-26.1,-6.86,97.38,-22.23,-33.45,81.24,-2.0,-35.35,120.02,14.13,-35.46,147.29,-7.0,-14.01,72.58,-17.0,-14.54,103.54,-34.58,-17.87,110.33,-1.0,1.0,-1.0,1.0,-1.0,1.0,1.0,1.0,1.0,-1.0,-1.0,-0.6555,1.0,0.0607,1.0,-1.0,-0.7556,1.0,0.013,0.026,0.019,0.039,0.0,0.071,0.019,0.0,0.078,0.026,0.0,0.0,0.006,0.006,0.013,0.0,0.0,0.045,-0.1166,-0.6182,0.2715,-0.2623,-0.6351,0.3636,0.1243,-0.9112,0.8636,0.135,-0.4418,0.1104,-0.5937,-0.563,0.1825,-0.3758,-0.2792,0.2454,-0.3025,-0.3087,-0.2896,0.315,-0.3062,0.3063,0.3109,-0.2968,0.2642,-0.3194,-0.1537,-0.1502,0.2042,-0.273,0.1338,-0.3063,-0.293,0.2956,0.1777,-0.0456,-0.1645,0.1047,0.0072,-1.0,1.0,-1.0,1.0,-1.0,1.0,1.0,1.0,1.0,-1.0,-1.0,-0.6734,1.0,0.7642,1.0,-1.0,-0.7661,1.0,0.0,0.0,0.0,0.0,0.0,0.0,0.0,0.0,0.0,0.3333,0.0,0.3333,0.0,0
2.28,run,3.72,5.51,-3.02,0.74,0.27,0.0,0.05,0.0,0.214,-12.04,-36.47,91.32,-7.82,-25.05,109.42,8.09,-36.91,134.47,2.55,-10.28,80.6,-26.28,-16.44,93.78,-27.6,-8.35,98.79,-23.73,-31.95,79.74,-0.5,-36.85,121.52,15.63,-33.96,145.79,-8.5,-15.51,71.08,-15.5,-16.04,105.04,-35.0,-19.37,111.83,-1.0,1.0,-1.0,1.0,-1.0,1.0,1.0,1.0,0.8796,-1.0,-1.0,-0.2073,1.0,-0.3672,1.0,-1.0,-1.0,1.0,0.006,0.006,0.013,0.033,0.0,0.045,0.013,0.0,0.214,0.019,0.019,0.006,0.006,0.0,0.013,0.0,0.0,0.039,-0.1411,-0.6381,0.2485,-0.2362,-0.6596,0.3912,0.1534,-0.9357,0.8836,0.1089,-0.4617,0.0859,-0.5676,-0.5752,0.2086,-0.4019,-0.3053,0.2715,-0.3038,-0.2909,-0.2891,0.3184,-0.3065,0.318,0.327,-0.2998,0.2597,-0.3214,-0.1824,-0.1972,0.2408,-0.2372,0.1915,-0.3123,-0.303,0.3048,0.1483,-0.0526,-0.1588,-0.0262,0.0463,-1.0,1.0,-1.0,1.0,-1.0,1.0,1.0,1.0,1.0,-1.0,-1.0,-0.6555,1.0,0.0607,1.0,-1.0,-0.7556,1.0,0.0,0.0,0.0,0.0,0.0,0.0,0.0,0.0,0.0,0.3333,0.0,0.3333,0.0,0
2.32,run,4.04,6.08,7.96,12.96,0.95,0.0,0.05,0.0,0.214,-13.45,-37.09,89.91,-6.42,-26.46,110.74,9.23,-37.62,135.26,1.05,-11.07,79.45,-24.96,-16.61,95.19,-28.92,-9.67,100.2,-25.23,-30.45,78.24,1.0,-38.35,123.02,17.13,-32.46,144.29,-10.0,-17.01,69.58,-14.0,-17.54,106.54,-35.0,-20.87,113.33,-1.0,1.0,-1.0,1.0,-1.0,1.0,1.0,1.0,0.2294,-1.0,-1.0,-0.0484,1.0,0.0321,0.5185,-1.0,-0.8684,1.0,0.006,0.006,0.013,0.033,0.0,0.045,0.013,0.0,0.214,0.019,0.019,0.006,0.006,0.0,0.013,0.0,0.0,0.039,-0.1657,-0.655,0.2224,-0.2117,-0.6842,0.4172,0.1825,-0.9541,0.902,0.0828,-0.4847,0.0614,-0.543,-0.5829,0.2316,-0.428,-0.3313,0.2961,-0.3048,-0.267,-0.3002,0.315,-0.3066,0.3205,0.3383,-0.279,0.2509,-0.3229,-0.214,-0.2302,0.2607,-0.1948,0.2204,-0.3165,-0.31,0.3055,0.1423,-0.0466,-0.0527,0.0129,0.0047,-1.0,1.0,-1.0,1.0,-1.0,1.0,1.0,1.0,0.8796,-1.0,-1.0,-0.2073,1.0,-0.3672,1.0,-1.0,-1.0,1.0,0.0,0.0,0.0,0.0,0.0,0.0,0.0,0.0,0.0,0.3333,0.0,0.3333,0.0,0
2.36,run,4.47,6.56,10.52,12.4,0.48,0.0,0.05,0.0,0.214,-14.85,-37.44,88.51,-5.01,-27.95,112.15,10.63,-38.06,135.97,-0.35,-12.83,77.96,-23.55,-16.26,96.42,-30.15,-11.07,101.6,-26.73,-28.95,76.74,2.5,-39.85,124.52,18.63,-30.96,142.79,-11.5,-18.51,71.08,-12.5,-16.04,105.04,-35.0,-19.37,114.83,-1.0,1.0,-1.0,1.0,-1.0,1.0,1.0,1.0,-0.6162,-1.0,-1.0,0.4619,1.0,1.0,0.3185,-1.0,0.378,1.0,0.006,0.006,0.013,0.033,0.0,0.045,0.013,0.0,0.214,0.019,0.019,0.006,0.006,0.0,0.013,0.0,0.0,0.039,-0.1902,-0.6657,0.1979,-0.1871,-0.7087,0.4403,0.2025,-0.9664,0.9158,0.0568,-0.4985,0.0414,-0.52,-0.586,0.2562,-0.451,-0.3543,0.3206,-0.3058,-0.2273,-0.3026,0.3129,-0.3071,0.311,0.3119,-0.2415,0.2276,-0.3242,-0.2018,-0.2362,0.2691,-0.1479,0.2467,-0.3082,-0.3036,0.3062,0.1708,0.0026,0.139,0.2262,0.0166,-1.0,1.0,-1.0,1.0,-1.0,1.0,1.0,1.0,0.2294,-1.0,-1.0,-0.0484,1.0,0.0321,0.5185,-1.0,-0.8684,1.0,0.0,0.0,0.0,0.0,0.0,0.0,0.0,0.0,0.0,0.3333,0.0,0.3333,0.0,0
2.4,run,4.69,7.2,6.64,16.83,0.82,0.0,0.05,0.0,0.702,-16.35,-37.53,87.1,-3.6,-29.44,113.38,11.95,-38.32,136.49,-1.85,-14.06,76.55,-22.24,-16.17,97.73,-31.55,-12.57,103.01,-28.23,-27.45,75.24,4.0,-41.35,126.02,20.13,-29.46,141.29,-13.0,-20.01,72.58,-11.0,-14.54,103.54,-35.0,-17.87,116.33,-1.0,1.0,-0.8908,0.6427,-1.0,1.0,1.0,1.0,-1.0,-1.0,-1.0,0.8838,1.0,1.0,-1.0,-1.0,0.882,1.0,0.006,0.006,0.013,0.039,0.0,0.104,0.006,0.045,0.702,0.013,0.019,0.013,0.019,0.019,0.033,0.006,0.0,0.045,-0.2148,-0.6719,0.1733,-0.1626,-0.7348,0.4648,0.227,-0.9741,0.9281,0.0322,-0.5292,0.0153,-0.4955,-0.5798,0.2777,-0.4725,-0.3789,0.3451,-0.3061,-0.1821,-0.3039,0.3111,-0.3128,0.3098,0.3104,-0.1978,0.2054,-0.319,-0.2564,-0.2632,0.2805,-0.0805,0.2533,-0.2963,-0.3046,0.3065,0.2083,0.0444,0.1836,0.2164,0.0083,-1.0,1.0,-1.0,1.0,-1.0,1.0,1.0,1.0,-0.6162,-1.0,-1.0,0.4619,1.0,1.0,0.3185,-1.0,0.378,1.0,0.0,0.0,0.0,0.0,0.0,0.0,0.0,0.0,0.0,0.3333,0.0,0.3333,0.0,0
2.44,run,5.15,7.81,9.53,14.62,-0.03,0.0,0.05,0.0,0.702,-17.67,-37.27,85.69,-2.2,-30.85,114.79,13.45,-38.06,136.85,-3.25,-15.56,75.23,-20.83,-16.17,99.05,-32.87,-13.97,104.33,-29.73,-25.95,73.74,2.5,-42.85,127.52,21.63,-27.96,139.79,-14.5,-21.51,74.08,-9.5,-13.04,102.04,-35.0,-16.37,117.83,-1.0,1.0,-0.328,-1.0,-1.0,1.0,1.0,1.0,-1.0,-1.0,-1.0,0.9903,1.0,1.0,-1.0,-1.0,1.0,1.0,0.006,0.006,0.013,0.039,0.0,0.104,0.006,0.045,0.702,0.013,0.019,0.013,0.019,0.019,0.033,0.006,0.0,0.045,-0.2408,-0.6734,0.1488,-0.1381,-0.7609,0.4863,0.25,-0.9787,0.9373,0.0061,-0.5507,-0.0092,-0.4725,-0.5783,0.3007,-0.497,-0.405,0.3697,-0.3116,-0.1332,-0.3043,0.3094,-0.3163,0.297,0.3032,-0.1556,0.1781,-0.3206,-0.2596,-0.2758,0.2822,-0.0506,0.2632,-0.299,-0.3106,0.3061,0.2275,0.101,0.1159,0.2937,0.0143,-1.0,1.0,-0.8908,0.6427,-1.0,1.0,1.0,1.0,-1.0,-1.0,-1.0,0.8838,1.0,1.0,-1.0,-1.0,0.882,1.0,0.0,0.0,0.0,0.0,0.0,0.0,0.0,0.0,0.0,0.3333,0.0,0.3333,0.0,0
2.48,run,5.66,8.52,12.28,20.41,1.53,0.0,0.05,0.0,0.702,-19.07,-36.39,84.2,-0.88,-32.34,116.19,14.85,-37.62,137.11,-4.66,-16.96,74.18,-19.42,-15.56,100.46,-33.66,-15.21,105.56,-28.23,-24.45,75.24,1.0,-44.35,129.02,23.13,-26.46,138.29,-16.0,-23.01,75.58,-8.0,-11.54,100.54,-35.0,-14.87,119.33,-0.7753,1.0,0.8004,-1.0,-1.0,1.0,1.0,0.8822,-1.0,-0.9045,-1.0,1.0,1.0,1.0,-1.0,-1.0,0.9223,1.0,0.006,0.006,0.013,0.039,0.0,0.104,0.006,0.045,0.702,0.013,0.019,0.013,0.019,0.019,0.033,0.006,0.0,0.045,-0.2638,-0.6688,0.1243,-0.1135,-0.7854,0.5108,0.2761,-0.9741,0.9434,-0.0184,-0.5768,-0.0322,-0.4479,-0.5783,0.3237,-0.52,-0.4295,0.3927,-0.299,-0.0771,-0.2993,0.3029,-0.3077,0.2942,0.3039,-0.0928,0.1463,-0.3107,-0.2734,-0.274,0.2838,-0.0354,0.2651,-0.2902,-0.3037,0.2952,0.2673,0.1538,0.1663,0.2552,-0.0005,-1.0,1.0,-0.328,-1.0,-1.0,1.0,1.0,1.0,-1.0,-1.0,-1.0,0.9903,1.0,1.0,-1.0,-1.0,1.0,1.0,0.0,0.0,0.0,0.0,0.0,0.0,0.0,0.0,0.0,0.3333,0.0,0.3333,0.0,0
2.52,run,5.91,8.91,5.65,10.36,9.66,0.0,0.05,0.0,0.89,-20.48,-35.33,82.88,0.35,-33.84,117.42,16.26,-36.91,137.2,-6.15,-18.28,73.3,-17.93,-14.85,101.51,-34.45,-16.26,106.79,-26.73,-22.95,76.74,-0.5,-45.85,130.52,24.63,-27.96,136.79,-14.5,-24.51,77.08,-6.5,-10.04,99.04,-35.0,-13.37,117.83,1.0,1.0,1.0,-1.0,-1.0,1.0,1.0,-0.8533,-1.0,-0.2326,-1.0,1.0,1.0,1.0,-1.0,-1.0,1.0,0.5995,0.013,0.013,0.013,0.026,0.0,0.13,0.006,0.182,0.89,0.006,0.026,0.006,0.019,0.058,0.033,0.013,0.006,0.071,-0.2884,-0.6535,0.0982,-0.0905,-0.8115,0.5354,0.3007,-0.9664,0.948,-0.043,-0.6013,-0.0506,-0.4234,-0.5676,0.3482,-0.5338,-0.451,0.4142,-0.3082,0.0078,-0.3146,0.3047,-0.3204,0.3048,0.3116,-0.034,0.1209,-0.3164,-0.2903,-0.266,0.2976,0.0184,0.2845,-0.2588,-0.2991,0.2931,0.3119,0.2156,0.2142,0.3562,0.0267,-0.7753,1.0,0.8004,-1.0,-1.0,1.0,1.0,0.8822,-1.0,-0.9045,-1.0,1.0,1.0,1.0,-1.0,-1.0,0.9223,1.0,0.0,0.0,0.0,0.0,0.0,0.0,0.0,0.0,0.0,0.3333,0.0,0.3333,0.0,0
2.56,run,6.39,9.08,14.14,1.36,8.83,0.0,0.05,0.0,0.89,-21.97,-33.93,81.39,1.23,-35.16,118.65,17.67,-35.86,137.2,-7.47,-19.78,72.77,-16.61,-13.8,102.3,-34.72,-17.05,108.19,-25.23,-21.45,78.24,-2.0,-47.35,132.02,26.13,-29.46,135.29,-13.0,-26.01,78.58,-5.0,-8.54,97.54,-35.0,-11.87,116.33,1.0,1.0,1.0,-1.0,-1.0,1.0,1.0,-0.6304,-1.0,1.0,-1.0,1.0,0.5736,1.0,-1.0,-1.0,0.6202,-1.0,0.013,0.013,0.013,0.026,0.0,0.13,0.006,0.182,0.89,0.006,0.026,0.006,0.019,0.058,0.033,0.013,0.006,0.071,-0.3129,-0.6351,0.0752,-0.069,-0.8376,0.5568,0.3252,-0.9541,0.9495,-0.069,-0.6243,-0.066,-0.3973,-0.5553,0.3666,-0.5476,-0.4694,0.4357,-0.3074,0.0742,-0.3062,0.2935,-0.3217,0.2936,0.3098,0.022,0.0904,-0.3189,-0.2891,-0.2435,0.3057,0.0588,0.2679,-0.2327,-0.2781,0.2854,0.3341,0.2501,0.0986,0.1809,0.1686,1.0,1.0,1.0,-1.0,-1.0,1.0,1.0,-0.8533,-1.0,-0.2326,-1.0,1.0,1.0,1.0,-1.0,-1.0,1.0,0.5995,0.0,0.0,0.0,0.0,0.0,0.0,0.0,0.0,0.0,0.3333,0.0,0.3333,0.0,0
2.6,run,6.93,9.45,14.66,7.79,1.05,0.0,0.05,0.0,0.89,-23.29,-32.61,79.98,1.85,-36.47,120.15,19.07,-34.72,137.2,-8.88,-21.18,72.69,-15.21,-12.57,102.74,-34.8,-17.58,109.78,-23.73,-19.95,79.74,-3.5,-48.85,130.52,27.63,-30.96,133.79,-11.5,-27.51,80.08,-6.5,-7.04,96.04,-35.0,-13.37,114.83,1.0,1.0,1.0,-1.0,-1.0,-1.0,1.0,-0.7738,-1.0,1.0,-1.0,1.0,-0.4505,1.0,-1.0,-1.0,-0.2095,-1.0,0.013,0.013,0.013,0.026,0.0,0.13,0.006,0.182,0.89,0.006,0.026,0.006,0.019,0.058,0.033,0.013,0.006,0.071,-0.339,-0.6105,0.0491,-0.0537,-0.8606,0.5783,0.3497,-0.9357,0.9495,-0.092,-0.6504,-0.0752,-0.3743,-0.5369,0.3804,-0.5522,-0.4832,0.4602,-0.3132,0.1442,-0.3123,0.2631,-0.3117,0.2862,0.3091,0.0846,0.0633,-0.3097,-0.3004,-0.205,0.3004,0.1103,0.2394,-0.1802,-0.2466,0.292,0.3756,0.265,0.2468,0.0238,0.1542,1.0,1.0,1.0,-1.0,-1.0,1.0,1.0,-0.6304,-1.0,1.0,-1.0,1.0,0.5736,1.0,-1.0,-1.0,0.6202,-1.0,0.0,0.0,0.0,0.0,0.0,0.0,0.0,0.0,0.0,0.3333,0.0,0.3333,0.0,0
2.64,run,7.08,9.89,0.21,14.35,12.2,0.0,0.05,0.0,0.89,-24.35,-31.2,78.84,2.11,-37.88,121.46,20.13,-33.57,137.2,-10.2,-22.59,72.95,-13.71,-11.25,102.83,-34.8,-17.67,111.18,-22.23,-18.45,81.24,-5.0,-50.35,129.02,29.13,-32.46,132.29,-10.0,-29.01,81.58,-8.0,-5.54,94.54,-33.5,-14.87,113.33,1.0,0.806,1.0,-1.0,-1.0,-1.0,0.8981,-1.0,-1.0,1.0,-1.0,1.0,-1.0,1.0,-1.0,0.5692,0.0334,-1.0,0.006,0.006,0.0,0.006,0.0,0.163,0.026,0.221,0.299,0.006,0.019,0.013,0.006,0.111,0.0,0.0,0.026,0.058,-0.362,-0.5875,0.0245,-0.043,-0.8836,0.6044,0.3743,-0.9158,0.9495,-0.1166,-0.675,-0.0767,-0.3497,-0.5154,0.3881,-0.5538,-0.4924,0.4878,-0.3053,0.187,-0.3104,0.2243,-0.3042,0.2979,0.3082,0.1338,0.0443,-0.3086,-0.3021,-0.1492,0.3021,0.1575,0.1963,-0.1319,-0.207,0.3077,0.4228,0.2966,0.2558,0.136,0.0183,1.0,1.0,1.0,-1.0,-1.0,-1.0,1.0,-0.7738,-1.0,1.0,-1.0,1.0,-0.4505,1.0,-1.0,-1.0,-0.2095,-1.0,0.0,0.0,0.0,0.0,0.0,0.0,0.0,0.0,0.0,0.3333,0.0,0.3333,0.0,0
2.68,run,7.33,9.92,5.99,3.52,12.21,0.0,0.05,0.0,0.89,-25.14,-29.71,77.7,2.2,-39.38,122.96,21.53,-32.34,137.2,-11.34,-24.08,73.65,-12.22,-10.11,102.48,-34.63,-17.67,112.15,-20.73,-16.95,82.74,-6.5,-51.85,127.52,27.72,-33.96,130.79,-8.5,-30.51,83.08,-9.5,-4.04,93.04,-32.0,-16.37,111.83,1.0,0.876,1.0,-1.0,-1.0,-1.0,0.792,-1.0,-1.0,1.0,-1.0,1.0,-1.0,1.0,-1.0,1.0,0.0435,-1.0,0.006,0.006,0.0,0.006,0.0,0.163,0.026,0.221,0.299,0.006,0.019,0.013,0.006,0.111,0.0,0.0,0.026,0.058,-0.3804,-0.563,0.0046,-0.0383,-0.9081,0.6274,0.3927,-0.8958,0.9495,-0.1396,-0.6995,-0.0721,-0.3237,-0.4924,0.3896,-0.5538,-0.4939,0.5123,-0.2832,0.2235,-0.2925,0.1744,-0.3056,0.2954,0.2852,0.1689,0.031,-0.3028,-0.3041,-0.0871,0.3099,0.1971,0.1432,-0.0923,-0.1507,0.308,0.436,0.3355,0.0036,0.2504,0.2129,1.0,0.806,1.0,-1.0,-1.0,-1.0,0.8981,-1.0,-1.0,1.0,-1.0,1.0,-1.0,1.0,-1.0,0.5692,0.0334,-1.0,0.0,0.0,0.0,0.0,0.0,0.0,0.0,0.0,0.0,0.3333,0.0,0.3333,0.0,0
2.72,run,7.63,10.03,7.18,4.68,3.41,0.0,0.05,0.0,0.89,-25.58,-28.3,77.34,1.93,-40.69,124.37,23.12,-31.73,137.2,-12.04,-25.49,74.71,-10.9,-8.79,101.78,-34.28,-17.67,112.94,-19.23,-18.45,84.24,-8.0,-53.35,126.02,26.22,-35.46,129.29,-7.0,-32.01,84.58,-11.0,-2.54,91.54,-30.5,-17.87,110.33,1.0,-0.5299,1.0,-1.0,-1.0,-1.0,0.314,-1.0,-1.0,1.0,-0.815,1.0,-1.0,1.0,-1.0,1.0,-0.1638,-1.0,0.006,0.006,0.0,0.006,0.0,0.163,0.026,0.221,0.299,0.006,0.019,0.013,0.006,0.111,0.0,0.0,0.026,0.058,-0.3942,-0.5369,-0.0153,-0.0368,-0.9342,0.6535,0.4172,-0.8744,0.9495,-0.1595,-0.7256,-0.0598,-0.2976,-0.4725,0.3835,-0.5507,-0.4939,0.5292,-0.2501,0.2544,-0.2797,0.1278,-0.3119,0.3047,0.2918,0.1989,0.0217,-0.2869,-0.3108,-0.0149,0.3149,0.2129,0.0772,-0.0531,-0.1055,0.279,0.4579,0.3377,0.1046,0.0614,0.2131,1.0,0.876,1.0,-1.0,-1.0,-1.0,0.792,-1.0,-1.0,1.0,-1.0,1.0,-1.0,1.0,-1.0,1.0,0.0435,-1.0,0.0,0.0,0.0,0.0,0.0,0.0,0.0,0.0,0.0,0.3333,0.0,0.3333,0.0,0
2.76,run,8.23,10.17,14.67,4.36,8.24,0.0,0.05,0.0,0.89,-25.66,-27.33,76.9,1.67,-42.28,125.42,24.43,-31.2,136.76,-12.48,-26.89,76.03,-9.84,-7.29,100.81,-33.4,-17.58,113.55,-17.73,-19.95,85.74,-9.5,-54.85,124.52,24.72,-36.96,127.79,-5.5,-33.51,86.08,-12.5,-1.04,90.04,-29.0,-19.37,108.83,1.0,-0.9355,1.0,-1.0,-1.0,-1.0,-0.6787,-1.0,-1.0,1.0,-1.0,1.0,-1.0,1.0,-1.0,1.0,-0.5475,-1.0,0.006,0.039,0.0,0.039,0.0,0.104,0.019,0.13,0.0,0.006,0.019,0.006,0.006,0.169,0.0,0.006,0.039,0.052,-0.4019,-0.5123,-0.0215,-0.0414,-0.9572,0.678,0.4449,-0.8636,0.9495,-0.1718,-0.7501,-0.0414,-0.2746,-0.4495,0.3712,-0.5446,-0.4939,0.543,-0.2036,0.2694,-0.2186,0.0724,-0.3039,0.3046,0.307,0.1792,0.0152,-0.2465,-0.3089,0.0581,0.306,0.2346,0.0084,-0.0143,-0.0738,0.2466,0.4841,0.3479,0.1252,0.0817,0.0596,1.0,-0.5299,1.0,-1.0,-1.0,-1.0,0.314,-1.0,-1.0,1.0,-0.815,1.0,-1.0,1.0,-1.0,1.0,-0.1638,-1.0,0.0,0.0,0.0,0.0,0.0,0.0,0.0,0.0,0.0,0.3333,0.0,0.3333,0.0,0
2.8,run,8.42,10.22,5.57,2.65,8.2,0.0,0.05,0.0,0.89,-25.31,-25.93,76.99,0.44,-43.59,126.12,25.49,-31.03,135.97,-12.66,-28.3,77.43,-9.05,-5.98,99.49,-32.26,-17.49,113.82,-16.23,-21.45,87.24,-11.0,-56.35,123.02,23.22,-38.46,126.29,-4.0,-35.01,87.58,-14.0,0.46,88.54,-27.5,-20.87,107.33,1.0,-1.0,1.0,-1.0,-1.0,-0.29,-1.0,-1.0,-1.0,1.0,-1.0,1.0,-1.0,1.0,-1.0,1.0,-1.0,-1.0,0.006,0.039,0.0,0.039,0.0,0.104,0.019,0.13,0.0,0.006,0.019,0.006,0.006,0.169,0.0,0.006,0.039,0.052,-0.4034,-0.4955,-0.0291,-0.046,-0.9848,0.6964,0.4679,-0.8544,0.9419,-0.1795,-0.7747,-0.0184,-0.2562,-0.4234,0.3543,-0.5292,-0.4924,0.5538,-0.148,0.2484,-0.1802,0.0343,-0.3107,0.2785,0.2965,0.1581,-0.0166,-0.1997,-0.3033,0.1223,0.2795,0.2567,-0.054,0.0444,-0.0463,0.2107,0.536,0.3597,0.2561,0.0761,0.1438,1.0,-0.9355,1.0,-1.0,-1.0,-1.0,-0.6787,-1.0,-1.0,1.0,-1.0,1.0,-1.0,1.0,-1.0,1.0,-0.5475,-1.0,0.0,0.0,0.0,0.0,0.0,0.0,0.0,0.0,0.0,0.3333,0.0,0.3333,0.0,0
2.84,run,8.82,10.14,9.68,-1.0,11.86,0.0,0.05,0.0,0.89,-24.61,-24.43,77.43,-1.05,-44.91,126.65,26.37,-30.94,135.0,-12.57,-29.71,78.84,-8.53,-4.57,98.09,-31.03,-17.49,113.82,-14.73,-22.95,88.74,-12.5,-57.85,121.52,21.72,-39.96,124.79,-2.5,-36.51,89.08,-15.5,1.96,87.04,-26.0,-22.37,105.83,1.0,-1.0,1.0,-1.0,-1.0,-0.3172,-1.0,-1.0,-1.0,1.0,-1.0,1.0,-1.0,1.0,-1.0,1.0,-1.0,-1.0,0.006,0.039,0.0,0.039,0.0,0.104,0.019,0.13,0.0,0.006,0.019,0.006,0.006,0.169,0.0,0.006,0.039,0.052,-0.3973,-0.4709,-0.0276,-0.0675,-1.0078,0.7087,0.4863,-0.8514,0.9281,-0.1825,-0.7992,0.0061,-0.2424,-0.4004,0.3313,-0.5093,-0.4909,0.5584,-0.0788,0.2728,-0.12,-0.0625,-0.3102,0.2444,0.2817,0.123,-0.0672,-0.1522,-0.3112,0.1845,0.2513,0.2724,-0.1305,0.1114,-0.0262,0.1661,0.5531,0.3645,0.0973,0.0462,0.1431,1.0,-1.0,1.0,-1.0,-1.0,-0.29,-1.0,-1.0,-1.0,1.0,-1.0,1.0,-1.0,1.0,-1.0,1.0,-1.0,-1.0,0.0,0.0,0.0,0.0,0.0,0.0,0.0,0.0,0.0,0.3333,0.0,0.3333,0.0,0
2.88,run,9.0,10.29,2.86,3.87,10.7,0.0,0.05,0.0,0.89,-23.73,-23.47,78.22,-2.29,-46.41,127.0,26.89,-31.46,133.95,-11.6,-31.2,80.24,-8.26,-3.25,96.68,-29.71,-17.93,113.73,-13.23,-24.45,90.24,-14.0,-59.35,120.02,20.22,-41.46,123.29,-1.0,-38.01,90.58,-17.0,3.46,85.54,-24.5,-23.87,104.33,1.0,-1.0,1.0,-1.0,-0.8358,-0.7944,-1.0,-1.0,-1.0,1.0,-1.0,1.0,-1.0,1.0,-1.0,1.0,-1.0,-1.0,0.019,0.033,0.026,0.045,0.0,0.026,0.006,0.0,0.006,0.006,0.019,0.013,0.013,0.169,0.0,0.033,0.0,0.006,-0.385,-0.4449,-0.0199,-0.0936,-1.0308,0.7179,0.5016,-0.8498,0.9112,-0.181,-0.8237,0.0307,-0.2332,-0.3758,0.3068,-0.4878,-0.4909,0.5584,-0.0097,0.2877,-0.0555,-0.1405,-0.3025,0.2052,0.2541,0.0918,-0.1097,-0.1008,-0.3089,0.2202,0.21,0.2818,-0.1824,0.1577,-0.0183,0.1162,0.588,0.357,0.1689,-0.0174,0.207,1.0,-1.0,1.0,-1.0,-1.0,-0.3172,-1.0,-1.0,-1.0,1.0,-1.0,1.0,-1.0,1.0,-1.0,1.0,-1.0,-1.0,0.0,0.0,0.0,0.0,0.0,0.0,0.0,0.0,0.0,0.3333,0.0,0.3333,0.0,0
2.92,run,10.12,11.04,9.14,7.39,0.61,0.0,0.05,0.0,0.89,-19.78,-21.97,81.91,-6.24,-50.54,125.51,26.89,-34.89,130.61,-7.82,-35.33,84.46,-10.28,0.53,92.55,-26.1,-21.27,110.74,-11.73,-25.95,91.74,-15.5,-57.85,118.52,18.72,-42.96,121.79,0.5,-39.51,92.08,-18.5,4.96,84.04,-23.0,-25.37,102.83,1.0,-1.0,1.0,-1.0,0.1125,-1.0,-1.0,-1.0,-1.0,1.0,-1.0,1.0,-1.0,1.0,-1.0,1.0,-1.0,-1.0,0.026,0.013,0.045,0.058,0.0,0.006,0.026,0.013,0.052,0.006,0.019,0.013,0.039,0.169,0.0,0.039,0.013,0.006,-0.3697,-0.428,-0.0061,-0.115,-1.0569,0.724,0.5108,-0.859,0.8928,-0.1641,-0.8498,0.0552,-0.2286,-0.3528,0.2823,-0.4648,-0.4985,0.5568,0.0508,0.2647,0.0129,-0.1789,-0.3096,0.1667,0.2124,0.0297,-0.1458,-0.0073,-0.3141,0.2462,0.1643,0.2836,-0.2198,0.1967,-0.0416,0.0756,0.6034,0.3704,0.05,0.0675,0.1867,1.0,-1.0,1.0,-1.0,-0.8358,-0.7944,-1.0,-1.0,-1.0,1.0,-1.0,1.0,-1.0,1.0,-1.0,1.0,-1.0,-1.0,0.0,0.0,0.0,0.0,0.0,0.0,0.0,0.0,0.0,0.3333,0.0,0.3333,0.0,0
2.96,run,10.48,11.01,8.6,3.98,1.07,0.0,0.05,0.0,0.89,-18.54,-21.97,83.14,-7.65,-51.68,124.45,26.02,-36.12,129.55,-6.59,-36.3,85.87,-11.25,1.41,91.23,-25.31,-21.97,109.6,-10.23,-27.45,93.24,-17.0,-56.35,117.02,17.22,-44.46,120.29,2.0,-41.01,93.58,-20.0,6.46,82.54,-21.5,-23.87,101.33,1.0,-1.0,1.0,-1.0,0.6296,-1.0,-1.0,-1.0,-1.0,1.0,-0.9315,1.0,-1.0,1.0,-1.0,1.0,0.6559,-1.0,0.026,0.013,0.045,0.058,0.0,0.006,0.026,0.013,0.052,0.006,0.019,0.013,0.039,0.169,0.0,0.039,0.013,0.006,-0.3007,-0.4019,0.0583,-0.1841,-1.129,0.698,0.5108,-0.9189,0.8345,-0.0982,-0.9219,0.1289,-0.2638,-0.2869,0.2102,-0.4019,-0.5568,0.5047,0.1206,0.2174,0.0884,-0.2103,-0.3056,0.0845,0.1487,-0.0529,-0.1739,0.0762,-0.3087,0.2631,0.0715,0.2798,-0.2427,0.2152,-0.101,-0.0113,0.7008,0.4355,0.1595,0.129,0.0107,1.0,-1.0,1.0,-1.0,0.1125,-1.0,-1.0,-1.0,-1.0,1.0,-1.0,1.0,-1.0,1.0,-1.0,1.0,-1.0,-1.0,0.0,0.0,0.0,0.0,0.0,0.0,0.0,0.0,0.0,0.3333,0.0,0.3333,0.0,0
3.0,run,10.78,11.14,5.54,4.02,-1.33,0.0,0.05,0.0,0.89,-17.49,-21.97,84.64,-9.23,-53.0,123.22,24.7,-37.62,128.41,-5.36,-37.62,87.36,-12.57,2.81,89.91,-23.99,-23.2,108.37,-8.73,-28.95,94.74,-18.5,-54.85,115.52,15.72,-45.96,118.79,3.5,-39.51,95.08,-21.5,7.96,81.04,-20.0,-22.37,99.83,0.3886,-1.0,1.0,-1.0,1.0,-1.0,-1.0,-1.0,-1.0,1.0,0.1375,1.0,-1.0,1.0,-1.0,1.0,1.0,-1.0,0.026,0.013,0.045,0.058,0.0,0.006,0.026,0.013,0.052,0.006,0.019,0.013,0.039,0.169,0.0,0.039,0.013,0.006,-0.2792,-0.4019,0.0798,-0.2086,-1.149,0.6796,0.4955,-0.9403,0.8161,-0.0767,-0.9388,0.1534,-0.2807,-0.2715,0.1871,-0.3881,-0.5691,0.4847,0.174,0.1522,0.1515,-0.2496,-0.2971,-0.0176,0.0401,-0.1266,-0.1986,0.1429,-0.2865,0.2866,-0.0203,0.2599,-0.2659,0.2082,-0.1219,-0.0911,0.7329,0.433,0.15,0.0695,0.0187,1.0,-1.0,1.0,-1.0,0.6296,-1.0,-1.0,-1.0,-1.0,1.0,-0.9315,1.0,-1.0,1.0,-1.0,1.0,0.6559,-1.0,0.0,0.0,0.0,0.0,0.0,0.0,0.0,0.0,0.0,0.3333,0.0,0.3333,0.0,0
3.04,run,10.9,11.11,2.0,-1.06,-10.04,0.0,0.05,0.0,0.89,-16.61,-22.32,85.78,-10.63,-54.05,122.17,23.55,-38.67,127.0,-4.31,-38.58,88.51,-13.8,3.78,88.95,-22.85,-24.08,107.4,-7.23,-30.45,96.24,-20.0,-53.35,114.02,14.22,-47.46,117.29,5.0,-38.01,96.58,-23.0,9.46,79.54,-18.5,-20.87,98.33,-0.0873,-1.0,1.0,-1.0,1.0,-1.0,-1.0,-0.9582,-1.0,1.0,1.0,1.0,-1.0,1.0,-1.0,1.0,1.0,-1.0,0.052,0.006,0.058,0.019,0.0,0.006,0.019,0.006,0.019,0.006,0.013,0.006,0.026,0.136,0.0,0.019,0.013,0.019,-0.2608,-0.4019,0.1058,-0.2362,-1.172,0.6581,0.4725,-0.9664,0.7961,-0.0552,-0.9618,0.1795,-0.3037,-0.247,0.1641,-0.3651,-0.5906,0.4633,0.1826,0.1065,0.1922,-0.2659,-0.2839,-0.0832,-0.0479,-0.1748,-0.2048,0.171,-0.2765,0.2867,-0.0902,0.2629,-0.2621,0.2217,-0.1562,-0.1347,0.7588,0.4441,0.0967,0.0702,-0.0233,0.3886,-1.0,1.0,-1.0,1.0,-1.0,-1.0,-1.0,-1.0,1.0,0.1375,1.0,-1.0,1.0,-1.0,1.0,1.0,-1.0,0.0,0.0,0.0,0.0,0.0,0.0,0.0,0.0,0.0,0.3333,0.0,0.3333,0.0,0
3.08,run,11.21,11.22,8.74,3.13,-3.15,0.0,0.05,0.0,0.89,-15.73,-22.41,86.92,-11.87,-54.93,121.2,22.59,-39.9,126.04,-3.34,-39.38,89.65,-14.85,4.75,87.89,-21.8,-24.61,106.61,-8.73,-31.95,97.74,-21.5,-51.85,112.52,12.72,-45.96,115.79,6.5,-36.51,98.08,-24.5,10.96,78.04,-17.0,-19.37,96.83,-0.6846,-1.0,1.0,-1.0,1.0,-1.0,-1.0,-0.0999,-1.0,1.0,1.0,1.0,-1.0,1.0,-1.0,1.0,1.0,-1.0,0.052,0.006,0.058,0.019,0.0,0.006,0.019,0.006,0.019,0.006,0.013,0.006,0.026,0.136,0.0,0.019,0.013,0.019,-0.2454,-0.408,0.1258,-0.2608,-1.1904,0.6397,0.4525,-0.9848,0.7716,-0.0368,-0.9787,0.1994,-0.3252,-0.2301,0.1473,-0.3451,-0.6059,0.4464,0.1891,0.0501,0.2142,-0.2843,-0.2723,-0.1319,-0.1133,-0.1959,-0.2415,0.1933,-0.261,0.2804,-0.149,0.2515,-0.2509,0.2349,-0.1707,-0.1618,0.7692,0.442,0.0349,-0.0184,-0.1753,-0.0873,-1.0,1.0,-1.0,1.0,-1.0,-1.0,-0.9582,-1.0,1.0,1.0,1.0,-1.0,1.0,-1.0,1.0,1.0,-1.0,0.0,0.0,0.0,0.0,0.0,0.0,0.0,0.0,0.0,0.3333,0.0,0.3333,0.0,0
3.12,run,11.5,11.23,6.2,1.53,1.61,0.0,0.05,0.0,0.89,-14.77,-22.5,87.98,-13.01,-55.55,120.15,21.45,-41.04,124.8,-2.2,-39.9,90.7,-15.91,5.89,86.75,-20.65,-24.87,105.29,-10.23,-33.45,99.24,-23.0,-50.35,111.02,11.22,-47.46,114.29,8.0,-35.01,99.58,-26.0,12.46,76.54,-15.5,-17.87,95.33,-0.6048,-1.0,1.0,-1.0,1.0,-1.0,-1.0,-1.0,-1.0,1.0,1.0,1.0,-1.0,1.0,-1.0,1.0,1.0,-1.0,0.052,0.006,0.058,0.019,0.0,0.006,0.019,0.006,0.019,0.006,0.013,0.006,0.026,0.136,0.0,0.019,0.013,0.019,-0.2301,-0.4096,0.1457,-0.2823,-1.2057,0.6228,0.4357,-1.0063,0.7547,-0.0199,-0.9925,0.2194,-0.3436,-0.2132,0.1289,-0.3267,-0.6151,0.4326,0.1939,0.0289,0.2299,-0.285,-0.2521,-0.1599,-0.1469,-0.2232,-0.2366,0.2029,-0.238,0.2762,-0.178,0.2437,-0.2494,0.2382,-0.1563,-0.1685,0.796,0.4516,0.1526,0.0547,-0.055,-0.6846,-1.0,1.0,-1.0,1.0,-1.0,-1.0,-0.0999,-1.0,1.0,1.0,1.0,-1.0,1.0,-1.0,1.0,1.0,-1.0,0.0,0.0,0.0,0.0,0.0,0.0,0.0,0.0,0.0,0.3333,0.0,0.3333,0.0,0
3.16,run,11.56,11.21,1.71,0.27,6.23,0.0,0.05,0.0,0.89,-13.71,-22.68,89.12,-14.24,-55.99,119.09,20.39,-42.1,123.66,-0.97,-39.99,91.93,-16.88,6.94,85.61,-19.51,-24.87,104.24,-11.73,-34.95,100.74,-24.5,-48.85,109.52,9.72,-48.96,112.79,9.5,-33.51,101.08,-27.5,13.96,75.04,-14.0,-16.37,93.83,-0.4655,-1.0,1.0,-1.0,1.0,-1.0,-1.0,-0.6849,-1.0,1.0,1.0,1.0,-1.0,1.0,-0.8502,1.0,1.0,-1.0,0.091,0.006,0.052,0.019,0.0,0.013,0.013,0.006,0.019,0.006,0.0,0.006,0.039,0.156,0.006,0.013,0.006,0.013,-0.2132,-0.4111,0.1641,-0.3022,-1.2164,0.6044,0.4157,-1.0262,0.7332,0.0,-1.0017,0.2378,-0.362,-0.1933,0.1089,-0.3068,-0.6197,0.4096,0.199,0.0145,0.2299,-0.2743,-0.2167,-0.1809,-0.1776,-0.231,-0.2462,0.2168,-0.2011,0.2623,-0.1936,0.2453,-0.2493,0.2415,-0.1267,-0.2042,0.8215,0.4526,0.1082,0.0267,0.028,-0.6048,-1.0,1.0,-1.0,1.0,-1.0,-1.0,-1.0,-1.0,1.0,1.0,1.0,-1.0,1.0,-1.0,1.0,1.0,-1.0,0.0,0.0,0.0,0.0,0.0,0.0,0.0,0.0,0.0,0.3333,0.0,0.3333,0.0,0
3.2,run,11.74,11.07,2.66,-1.92,9.53,0.0,0.05,0.0,0.89,-12.74,-22.68,90.18,-15.38,-55.99,117.95,19.34,-43.15,122.52,0.09,-39.99,92.9,-17.84,8.0,84.46,-18.37,-24.52,103.1,-13.23,-36.45,102.24,-26.0,-47.35,108.02,8.22,-50.46,111.29,11.0,-32.01,102.58,-29.0,15.46,73.54,-12.5,-14.87,92.33,-1.0,-1.0,1.0,-1.0,1.0,-1.0,-1.0,-0.4686,-1.0,1.0,1.0,1.0,-1.0,1.0,-1.0,1.0,1.0,-1.0,0.091,0.006,0.052,0.019,0.0,0.013,0.013,0.006,0.019,0.006,0.0,0.006,0.039,0.156,0.006,0.013,0.006,0.013,-0.1948,-0.4142,0.1841,-0.3237,-1.2241,0.586,0.3973,-1.0446,0.7133,0.0215,-1.0032,0.2592,-0.3789,-0.1749,0.089,-0.2869,-0.6197,0.3912,0.2084,-0.0014,0.2358,-0.2726,-0.1805,-0.1958,-0.1934,-0.2308,-0.2472,0.2324,-0.1465,0.2643,-0.1989,0.2409,-0.2494,0.2439,-0.0887,-0.2121,0.8269,0.4509,0.0299,0.0047,0.1088,-0.4655,-1.0,1.0,-1.0,1.0,-1.0,-1.0,-0.6849,-1.0,1.0,1.0,1.0,-1.0,1.0,-0.8502,1.0,1.0,-1.0,0.0,0.0,0.0,0.0,0.0,0.0,0.0,0.0,0.0,0.3333,0.0,0.3333,0.0,0
3.24,run,12.02,10.77,8.6,-7.39,4.74,0.0,0.05,0.0,0.89,-11.78,-22.76,91.14,-16.35,-55.72,116.89,18.11,-44.03,121.38,1.05,-39.55,93.96,-18.63,9.05,83.32,-17.31,-23.64,101.95,-14.73,-37.95,103.74,-27.5,-45.85,106.52,6.72,-51.96,109.79,12.5,-30.51,104.08,-30.5,16.96,72.04,-11.0,-13.37,90.83,-0.9824,-1.0,1.0,-1.0,1.0,-1.0,-1.0,-0.5434,-1.0,1.0,1.0,1.0,-1.0,1.0,-0.8868,1.0,1.0,-1.0,0.091,0.006,0.052,0.019,0.0,0.013,0.013,0.006,0.019,0.006,0.0,0.006,0.039,0.156,0.006,0.013,0.006,0.013,-0.1779,-0.4142,0.2025,-0.3436,-1.2241,0.566,0.3789,-1.063,0.6934,0.0399,-1.0032,0.2761,-0.3958,-0.1565,0.069,-0.2669,-0.6136,0.3712,0.2092,-0.001,0.2341,-0.2657,-0.1264,-0.2119,-0.2045,-0.2306,-0.2479,0.2317,-0.1026,0.2483,-0.2026,0.2377,-0.2494,0.2456,-0.0391,-0.2233,0.8427,0.4385,0.0465,-0.0335,0.1663,-1.0,-1.0,1.0,-1.0,1.0,-1.0,-1.0,-0.4686,-1.0,1.0,1.0,1.0,-1.0,1.0,-1.0,1.0,1.0,-1.0,0.0,0.0,0.0,0.0,0.0,0.0,0.0,0.0,0.0,0.3333,0.0,0.3333,0.0,0
3.28,run,12.19,10.12,5.25,-15.26,-0.01,0.0,0.05,0.0,0.89,-10.72,-22.76,92.2,-17.58,-55.37,115.66,16.88,-45.09,120.23,2.29,-38.67,95.1,-19.69,10.2,82.18,-16.08,-22.59,100.72,-15.68,-39.45,105.24,-29.0,-44.35,105.02,5.22,-50.46,108.29,14.0,-29.01,105.58,-32.0,18.46,70.54,-9.5,-11.87,89.33,-0.4481,-1.0,1.0,-1.0,1.0,-1.0,-1.0,-0.3623,-1.0,1.0,1.0,1.0,-1.0,1.0,-0.6183,1.0,1.0,-1.0,0.045,0.006,0.065,0.013,0.019,0.013,0.006,0.033,0.026,0.013,0.013,0.013,0.084,0.195,0.0,0.019,0.006,0.013,-0.1611,-0.4157,0.2194,-0.3605,-1.2195,0.5476,0.3574,-1.0784,0.6734,0.0568,-0.9956,0.2945,-0.4096,-0.1381,0.0491,-0.2485,-0.5983,0.3513,0.2097,-0.0064,0.2271,-0.2492,-0.0712,-0.2173,-0.2236,-0.2189,-0.2482,0.2255,-0.0431,0.2428,-0.1935,0.2353,-0.2493,0.2409,0.0301,-0.231,0.8673,0.4125,0.1502,-0.129,0.0828,-0.9824,-1.0,1.0,-1.0,1.0,-1.0,-1.0,-0.5434,-1.0,1.0,1.0,1.0,-1.0,1.0,-0.8868,1.0,1.0,-1.0,0.0,0.0,0.0,0.0,0.0,0.0,0.0,0.0,0.0,0.3333,0.0,0.3333,0.0,0
3.32,run,12.39,9.13,6.13,-24.26,-7.28,0.0,0.05,0.0,0.89,-10.2,-22.76,93.6,-18.81,-54.32,114.43,15.73,-46.41,119.0,3.69,-37.44,96.5,-21.01,11.51,80.77,-14.94,-21.36,99.58,-17.18,-40.95,106.74,-30.5,-42.85,103.52,3.72,-48.96,106.79,15.5,-27.51,107.08,-33.5,19.96,69.04,-8.0,-10.37,87.83,-1.0,-1.0,1.0,-1.0,1.0,-1.0,-1.0,0.9603,-1.0,1.0,1.0,1.0,-1.0,1.0,-1.0,1.0,1.0,-1.0,0.045,0.006,0.065,0.013,0.019,0.013,0.006,0.033,0.026,0.013,0.013,0.013,0.084,0.195,0.0,0.019,0.006,0.013,-0.1427,-0.4157,0.2378,-0.382,-1.2134,0.5262,0.3359,-1.0968,0.6535,0.0782,-0.9802,0.3145,-0.428,-0.1181,0.0291,-0.227,-0.5798,0.3298,0.2158,-0.0045,0.2281,-0.255,-0.0268,-0.2327,-0.2371,-0.2223,-0.2486,0.2384,0.0274,0.2448,-0.2045,0.2396,-0.2493,0.2492,0.0902,-0.2423,0.8818,0.3558,0.0917,-0.2664,-0.0002,-0.4481,-1.0,1.0,-1.0,1.0,-1.0,-1.0,-0.3623,-1.0,1.0,1.0,1.0,-1.0,1.0,-0.6183,1.0,1.0,-1.0,0.0,0.0,0.0,0.0,0.0,0.0,0.0,0.0,0.0,0.3333,0.0,0.3333,0.0,0
3.36,run,12.63,8.33,3.72,-17.75,-10.92,0.0,0.05,0.0,0.89,-9.4,-23.03,94.83,-20.04,-53.26,113.38,14.15,-47.55,117.86,4.83,-36.39,97.73,-22.32,12.57,79.54,-13.89,-20.3,98.53,-18.68,-42.45,108.24,-32.0,-41.35,102.02,2.22,-47.46,105.29,17.0,-26.01,105.58,-35.0,21.46,67.54,-6.5,-8.87,86.33,-1.0,-1.0,1.0,-1.0,1.0,-1.0,-1.0,1.0,-1.0,1.0,1.0,0.4751,-1.0,1.0,-0.7484,1.0,1.0,-1.0,0.045,0.006,0.065,0.013,0.019,0.013,0.006,0.033,0.026,0.013,0.013,0.013,0.084,0.195,0.0,0.019,0.006,0.013,-0.1335,-0.4157,0.2623,-0.4034,-1.195,0.5047,0.316,-1.1198,0.632,0.1028,-0.9587,0.339,-0.451,-0.0951,0.0046,-0.2071,-0.5584,0.3099,0.1856,-0.0032,0.2516,-0.259,0.0502,-0.2433,-0.2407,-0.2418,-0.2545,0.2588,0.0997,0.2633,-0.2294,0.2539,-0.2665,0.2492,0.1436,-0.2443,0.8993,0.2693,0.107,-0.4235,-0.1271,-1.0,-1.0,1.0,-1.0,1.0,-1.0,-1.0,0.9603,-1.0,1.0,1.0,1.0,-1.0,1.0,-1.0,1.0,1.0,-1.0,0.0,0.0,0.0,0.0,0.0,0.0,0.0,0.0,0.0,0.3333,0.0,0.3333,0.0,0
3.4,run,12.87,7.55,7.05,-18.2,-9.49,0.0,0.05,0.0,0.89,-8.79,-23.47,96.24,-21.45,-52.12,112.06,13.62,-48.34,116.63,6.24,-35.24,99.14,-23.64,13.8,78.13,-12.66,-19.07,97.38,-20.18,-43.95,109.74,-33.5,-39.85,100.52,0.72,-45.96,103.79,18.5,-24.51,104.08,-35.0,22.96,66.04,-5.0,-7.37,84.83,-1.0,-1.0,1.0,-1.0,0.9295,-1.0,-1.0,1.0,-0.8573,1.0,1.0,0.0905,-1.0,1.0,-0.5217,1.0,1.0,-1.0,0.019,0.006,0.052,0.019,0.026,0.019,0.033,0.013,0.026,0.013,0.013,0.006,0.052,0.267,0.0,0.026,0.019,0.019,-0.1197,-0.4203,0.2838,-0.4249,-1.1766,0.4863,0.2884,-1.1397,0.6121,0.1227,-0.9403,0.3605,-0.474,-0.0767,-0.0169,-0.1887,-0.54,0.2915,0.1772,-0.018,0.2497,-0.2549,0.0982,-0.2334,-0.2631,-0.2376,-0.2465,0.2495,0.1328,0.2579,-0.2394,0.2408,-0.2601,0.2375,0.1636,-0.2341,0.92,0.199,0.0649,-0.3098,-0.1906,-1.0,-1.0,1.0,-1.0,1.0,-1.0,-1.0,1.0,-1.0,1.0,1.0,0.4751,-1.0,1.0,-0.7484,1.0,1.0,-1.0,0.0,0.0,0.0,0.0,0.0,0.0,0.0,0.0,0.0,0.3333,0.0,0.3333,0.0,0
3.44,run,13.18,6.91,8.21,-14.44,-10.5,0.0,0.05,0.0,0.89,-8.53,-24.17,97.73,-22.85,-50.89,110.57,12.22,-48.78,115.31,7.65,-33.93,100.55,-24.96,15.12,76.64,-11.34,-17.75,96.15,-21.68,-45.45,111.24,-35.0,-38.35,99.02,-0.78,-44.46,102.29,20.0,-23.01,102.58,-35.0,24.46,64.54,-3.5,-5.87,83.33,-1.0,-1.0,1.0,-1.0,0.0753,-1.0,-1.0,1.0,0.1423,0.7337,1.0,-0.4096,-1.0,1.0,-0.6235,1.0,1.0,-1.0,0.019,0.006,0.052,0.019,0.026,0.019,0.033,0.013,0.026,0.013,0.013,0.006,0.052,0.267,0.0,0.026,0.019,0.019,-0.1089,-0.428,0.3083,-0.4495,-1.1566,0.4633,0.2792,-1.1536,0.5906,0.1473,-0.9204,0.385,-0.497,-0.0552,-0.0414,-0.1672,-0.5185,0.2715,0.1681,-0.044,0.2755,-0.2791,0.1505,-0.2578,-0.2219,-0.223,-0.2606,0.2753,0.1748,0.2812,-0.262,0.2566,-0.2828,0.2543,0.2026,-0.2457,0.9413,0.1315,0.123,-0.3177,-0.1656,-1.0,-1.0,1.0,-1.0,0.9295,-1.0,-1.0,1.0,-0.8573,1.0,1.0,0.0905,-1.0,1.0,-0.5217,1.0,1.0,-1.0,0.0,0.0,0.0,0.0,0.0,0.0,0.0,0.0,0.0,0.3333,0.0,0.3333,0.0,0
3.48,run,13.52,6.68,8.22,-4.56,-11.91,0.0,0.05,0.0,0.89,-8.7,-25.22,99.23,-24.17,-49.48,109.16,10.55,-49.04,113.99,9.05,-32.52,101.87,-26.37,16.52,75.23,-9.84,-16.35,94.75,-20.18,-46.95,112.74,-35.0,-39.85,100.52,-2.28,-42.96,103.79,18.5,-21.51,101.08,-35.0,25.96,63.04,-2.0,-4.37,81.83,0.3605,-1.0,1.0,-1.0,-0.2823,1.0,-1.0,1.0,0.641,-0.9434,1.0,-1.0,-1.0,1.0,-1.0,1.0,1.0,-1.0,0.019,0.006,0.052,0.019,0.026,0.019,0.033,0.013,0.026,0.013,0.013,0.006,0.052,0.267,0.0,0.026,0.019,0.019,-0.1043,-0.4403,0.3344,-0.474,-1.1351,0.4372,0.2546,-1.1612,0.5676,0.1718,-0.8974,0.4096,-0.52,-0.0322,-0.0675,-0.1442,-0.4955,0.25,0.1351,-0.0772,0.2914,-0.2882,0.1866,-0.2791,-0.2482,-0.1851,-0.2694,0.2856,0.2094,0.2897,-0.2704,0.2667,-0.2966,0.265,0.2288,-0.2532,0.9678,0.0758,0.1434,-0.252,-0.1833,-1.0,-1.0,1.0,-1.0,0.0753,-1.0,-1.0,1.0,0.1423,0.7337,1.0,-0.4096,-1.0,1.0,-0.6235,1.0,1.0,-1.0,0.0,0.0,0.0,0.0,0.0,0.0,0.0,0.0,0.0,0.3333,0.0,0.3333,0.0,0
3.52,run,13.94,6.69,8.88,2.17,-11.47,0.0,0.05,0.0,0.89,-9.58,-26.54,100.72,-25.66,-48.16,107.67,9.4,-48.78,112.5,10.55,-30.94,102.83,-27.77,18.02,73.74,-8.53,-14.94,93.34,-18.68,-48.45,114.24,-35.0,-38.35,102.02,-0.78,-41.46,105.29,17.0,-20.01,99.58,-35.0,27.46,61.54,-0.5,-2.87,80.33,1.0,-0.9413,1.0,-1.0,0.3238,1.0,0.2048,1.0,0.7736,-1.0,1.0,-1.0,-1.0,1.0,-1.0,1.0,1.0,-1.0,0.0,0.0,0.045,0.026,0.033,0.006,0.013,0.006,0.026,0.013,0.006,0.0,0.111,0.221,0.0,0.052,0.013,0.026,-0.1074,-0.4587,0.3605,-0.497,-1.1106,0.4126,0.2255,-1.1658,0.5446,0.1963,-0.8728,0.4326,-0.5446,-0.0077,-0.092,-0.1181,-0.4709,0.2255,0.083,-0.123,0.3017,-0.2879,0.2226,-0.2873,-0.2829,-0.1468,-0.2748,0.2918,0.2385,0.289,-0.2812,0.2786,-0.2996,0.2832,0.2521,-0.2692,0.998,0.0552,0.1435,-0.0796,-0.2078,0.3605,-1.0,1.0,-1.0,-0.2823,1.0,-1.0,1.0,0.641,-0.9434,1.0,-1.0,-1.0,1.0,-1.0,1.0,1.0,-1.0,0.0,0.0,0.0,0.0,0.0,0.0,0.0,0.0,0.0,0.3333,0.0,0.3333,0.0,0
3.56,run,14.29,6.81,8.75,3.14,-5.71,0.0,0.05,0.0,0.89,-10.55,-27.86,102.13,-26.98,-46.93,106.26,7.82,-48.16,111.18,11.87,-29.71,103.54,-29.09,19.34,72.33,-7.29,-13.89,91.93,-17.18,-46.95,115.74,-35.0,-36.85,103.52,0.72,-42.96,106.79,15.5,-18.51,98.08,-35.0,28.96,60.04,1.0,-1.37,78.83,1.0,-0.2915,1.0,-1.0,0.4047,1.0,0.3166,-0.4569,0.6942,-1.0,1.0,-1.0,-1.0,1.0,-1.0,1.0,1.0,-1.0,0.0,0.0,0.045,0.026,0.033,0.006,0.013,0.006,0.026,0.013,0.006,0.0,0.111,0.221,0.0,0.052,0.013,0.026,-0.1227,-0.4817,0.3866,-0.5231,-1.0876,0.3866,0.2056,-1.1612,0.5185,0.2224,-0.8452,0.4495,-0.5691,0.0184,-0.1181,-0.0951,-0.4464,0.201,0.0033,-0.1684,0.3045,-0.2948,0.2381,-0.2944,-0.2694,-0.0863,-0.2856,0.2976,0.2657,0.2626,-0.2847,0.2883,-0.303,0.2806,0.2643,-0.2762,1.0342,0.0566,0.155,0.0379,-0.2002,1.0,-0.9413,1.0,-1.0,0.3238,1.0,0.2048,1.0,0.7736,-1.0,1.0,-1.0,-1.0,1.0,-1.0,1.0,1.0,-1.0,0.0,0.0,0.0,0.0,0.0,0.0,0.0,0.0,0.0,0.3333,0.0,0.3333,0.0,0
3.6,run,14.66,7.05,9.83,6.49,-5.49,0.0,0.05,0.0,0.89,-11.69,-29.18,103.54,-28.3,-45.7,104.85,6.5,-47.2,109.78,13.27,-28.3,103.89,-30.5,20.74,70.93,-6.06,-12.39,90.62,-15.68,-45.45,117.24,-35.0,-35.35,105.02,2.22,-44.13,105.29,14.0,-17.01,96.58,-35.0,30.0,58.54,2.5,0.13,77.33,1.0,-0.2992,1.0,-1.0,0.5638,1.0,0.0978,-0.3478,0.0875,-1.0,1.0,-1.0,-1.0,1.0,-1.0,1.0,1.0,-1.0,0.0,0.0,0.045,0.026,0.033,0.006,0.013,0.006,0.026,0.013,0.006,0.0,0.111,0.221,0.0,0.052,0.013,0.026,-0.1396,-0.5047,0.4111,-0.5461,-1.0661,0.362,0.1779,-1.1505,0.4955,0.2454,-0.8237,0.4617,-0.5921,0.0414,-0.1427,-0.0736,-0.428,0.1764,-0.0642,-0.2086,0.3098,-0.297,0.2513,-0.3028,-0.2973,-0.0181,-0.2906,0.2989,0.2706,0.2322,-0.2899,0.2925,-0.3088,0.281,0.2575,-0.29,1.0653,0.0666,0.1527,0.0548,-0.0997,1.0,-0.2915,1.0,-1.0,0.4047,1.0,0.3166,-0.4569,0.6942,-1.0,1.0,-1.0,-1.0,1.0,-1.0,1.0,1.0,-1.0,0.0,0.0,0.0,0.0,0.0,0.0,0.0,0.0,0.0,0.3333,0.0,0.3333,0.0,0
3.64,run,14.83,7.2,3.46,3.29,-4.93,0.0,0.05,0.0,0.89,-12.92,-30.59,104.94,-29.62,-44.38,103.71,5.1,-45.97,108.46,14.33,-26.81,103.71,-31.82,22.24,69.35,-4.83,-10.99,89.21,-14.18,-43.95,118.74,-35.0,-33.85,106.52,0.72,-45.63,103.79,12.5,-15.51,95.08,-35.0,30.0,57.04,4.0,1.63,75.83,1.0,0.3858,1.0,-1.0,0.2653,1.0,-0.1488,-1.0,0.1185,-1.0,1.0,-1.0,-1.0,1.0,-1.0,1.0,1.0,-1.0,0.006,0.0,0.039,0.039,0.058,0.013,0.006,0.006,0.026,0.006,0.013,0.006,0.033,0.227,0.0,0.123,0.019,0.026,-0.1595,-0.5277,0.4357,-0.5691,-1.0446,0.3375,0.1549,-1.1336,0.4709,0.27,-0.7992,0.4679,-0.6167,0.066,-0.1672,-0.0522,-0.4019,0.1534,-0.1197,-0.2323,0.3089,-0.2942,0.2565,-0.304,-0.2945,0.0506,-0.2955,0.3013,0.2815,0.1856,-0.295,0.2968,-0.3082,0.2773,0.2781,-0.2893,1.0975,0.0872,0.1716,0.1132,-0.0957,1.0,-0.2992,1.0,-1.0,0.5638,1.0,0.0978,-0.3478,0.0875,-1.0,1.0,-1.0,-1.0,1.0,-1.0,1.0,1.0,-1.0,0.0,0.0,0.0,0.0,0.0,0.0,0.0,0.0,0.0,0.3333,0.0,0.3333,0.0,0
3.68,run,15.18,7.01,8.18,-4.33,6.56,0.0,0.05,0.0,0.89,-14.33,-31.99,106.35,-30.94,-43.07,103.01,3.87,-45.0,107.23,15.12,-25.4,103.62,-32.96,23.55,68.03,-3.43,-9.58,87.8,-12.68,-42.45,120.24,-35.0,-32.35,108.02,-0.78,-47.13,102.29,11.0,-14.01,93.58,-35.0,30.0,55.54,5.5,3.13,74.33,1.0,0.3353,1.0,-1.0,0.2366,1.0,-0.3694,-0.5725,0.181,-1.0,1.0,-1.0,-1.0,1.0,-1.0,1.0,1.0,-1.0,0.006,0.0,0.039,0.039,0.058,0.013,0.006,0.006,0.026,0.006,0.013,0.006,0.033,0.227,0.0,0.123,0.019,0.026,-0.181,-0.5522,0.4602,-0.5921,-1.0216,0.3175,0.1304,-1.1121,0.4479,0.2884,-0.7731,0.4648,-0.6397,0.092,-0.1948,-0.0307,-0.3774,0.1289,-0.1639,-0.2542,0.3078,-0.2918,0.2654,-0.2872,-0.2977,0.1156,-0.2927,0.2796,0.2943,0.1184,-0.2923,0.305,-0.3188,0.2742,0.2862,-0.2941,1.1124,0.1009,0.0604,0.0575,-0.086,1.0,0.3858,1.0,-1.0,0.2653,1.0,-0.1488,-1.0,0.1185,-1.0,1.0,-1.0,-1.0,1.0,-1.0,1.0,1.0,-1.0,0.0,0.0,0.0,0.0,0.0,0.0,0.0,0.0,0.0,0.3333,0.0,0.3333,0.0,0
3.72,run,15.54,6.55,9.16,-12.55,9.37,0.0,0.05,0.0,0.89,-14.59,-33.31,107.93,-32.08,-41.75,102.48,2.64,-44.56,106.0,15.64,-23.99,102.48,-33.49,24.96,66.53,-2.11,-8.17,86.4,-11.18,-40.95,121.74,-35.0,-33.85,109.52,-2.28,-48.63,103.79,9.5,-12.51,92.08,-35.0,30.0,54.04,7.0,4.63,72.83,1.0,-0.1455,1.0,-1.0,-0.7552,1.0,-0.1266,-0.8143,0.5914,-1.0,1.0,-1.0,-1.0,1.0,-1.0,1.0,1.0,-1.0,0.006,0.0,0.039,0.039,0.058,0.013,0.006,0.006,0.026,0.006,0.013,0.006,0.033,0.227,0.0,0.123,0.019,0.026,-0.2056,-0.5768,0.4847,-0.6151,-0.9986,0.3053,0.1089,-1.0953,0.4264,0.3022,-0.7486,0.4633,-0.6596,0.115,-0.2178,-0.0061,-0.3528,0.1043,-0.2073,-0.2704,0.308,-0.291,0.2725,-0.2473,-0.2893,0.1445,-0.2858,0.2478,0.2985,0.0771,-0.2798,0.3003,-0.3099,0.2844,0.2929,-0.2984,1.1428,0.0841,0.1428,-0.0756,0.1145,1.0,0.3353,1.0,-1.0,0.2366,1.0,-0.3694,-0.5725,0.181,-1.0,1.0,-1.0,-1.0,1.0,-1.0,1.0,1.0,-1.0,0.0,0.0,0.0,0.0,0.0,0.0,0.0,0.0,0.0,0.3333,0.0,0.3333,0.0,0
3.76,run,15.83,6.14,7.6,-9.51,4.52,0.0,0.05,0.0,0.89,-15.64,-34.63,109.51,-32.96,-40.52,102.13,1.41,-44.21,104.77,15.82,-22.59,101.43,-33.84,26.19,65.13,-0.7,-6.68,84.99,-9.68,-42.45,123.24,-35.0,-35.35,111.02,-0.78,-47.13,105.29,8.0,-11.01,90.58,-35.0,30.0,52.54,8.5,6.13,71.33,1.0,-0.9003,1.0,-1.0,-1.0,1.0,0.0136,-0.1787,0.9539,-1.0,1.0,-1.0,-1.0,1.0,-1.0,1.0,1.0,-1.0,0.013,0.006,0.026,0.039,0.117,0.039,0.013,0.019,0.019,0.006,0.013,0.013,0.104,0.227,0.0,0.104,0.019,0.045,-0.2102,-0.5998,0.5123,-0.6351,-0.9756,0.2961,0.0874,-1.0876,0.405,0.3114,-0.724,0.4433,-0.6688,0.1396,-0.2439,0.0169,-0.3283,0.0798,-0.1623,-0.2753,0.3188,-0.2783,0.2768,-0.2075,-0.2828,0.1298,-0.2804,0.2079,0.3008,-0.0206,-0.2303,0.302,-0.3144,0.2852,0.2968,-0.3007,1.1744,0.0439,0.1599,-0.219,0.1635,1.0,-0.1455,1.0,-1.0,-0.7552,1.0,-0.1266,-0.8143,0.5914,-1.0,1.0,-1.0,-1.0,1.0,-1.0,1.0,1.0,-1.0,0.0,0.0,0.0,0.0,0.0,0.0,0.0,0.0,0.0,0.3333,0.0,0.3333,0.0,0
3.8,run,15.91,6.01,1.11,-1.57,13.7,0.0,0.05,0.0,0.89,-15.73,-36.04,111.09,-33.66,-39.38,102.22,0.09,-44.38,103.8,15.64,-21.09,100.11,-34.01,27.25,63.72,0.79,-5.27,83.67,-8.18,-43.95,124.74,-35.0,-36.85,112.52,0.72,-48.63,106.79,6.5,-9.51,89.08,-35.0,28.5,51.04,10.0,7.63,69.83,1.0,-0.7543,1.0,-1.0,-1.0,1.0,0.1288,-1.0,1.0,-1.0,1.0,-1.0,-1.0,0.4112,-1.0,1.0,1.0,-1.0,0.013,0.006,0.026,0.039,0.117,0.039,0.013,0.019,0.019,0.006,0.013,0.013,0.104,0.227,0.0,0.104,0.019,0.045,-0.2286,-0.6228,0.54,-0.6504,-0.9541,0.2899,0.066,-1.0815,0.3835,0.3145,-0.6995,0.4249,-0.675,0.1611,-0.2684,0.0414,-0.3022,0.0552,-0.1826,-0.2789,0.3266,-0.2523,0.2742,-0.1683,-0.2784,0.1139,-0.2767,0.157,0.3025,-0.0834,-0.1842,0.2918,-0.312,0.2916,0.3054,-0.3024,1.1994,0.0085,0.1326,-0.1661,0.0789,1.0,-0.9003,1.0,-1.0,-1.0,1.0,0.0136,-0.1787,0.9539,-1.0,1.0,-1.0,-1.0,1.0,-1.0,1.0,1.0,-1.0,0.0,0.0,0.0,0.0,0.0,0.0,0.0,0.0,0.0,0.3333,0.0,0.3333,0.0,0
3.84,run,15.79,5.74,-3.45,-7.48,12.93,0.0,0.05,0.0,0.89,-15.12,-37.35,112.59,-33.84,-38.5,102.92,-0.79,-45.18,103.18,14.59,-19.69,98.61,-34.1,28.12,62.23,2.11,-4.04,82.27,-6.68,-45.45,126.24,-35.0,-38.35,114.02,2.22,-50.13,108.29,5.0,-8.01,87.58,-35.0,27.0,49.54,11.5,9.13,68.33,1.0,-0.8432,1.0,-1.0,-0.6756,1.0,0.6768,-1.0,1.0,-1.0,1.0,-1.0,-1.0,-1.0,-1.0,1.0,1.0,-1.0,0.013,0.006,0.026,0.039,0.117,0.039,0.013,0.019,0.019,0.006,0.013,0.013,0.104,0.227,0.0,0.104,0.019,0.045,-0.2301,-0.6473,0.5676,-0.6627,-0.9342,0.2915,0.043,-1.0845,0.3666,0.3114,-0.6734,0.4019,-0.678,0.1795,-0.293,0.0675,-0.2777,0.0322,-0.1333,-0.2834,0.3278,-0.2207,0.2636,-0.1123,-0.2775,0.0687,-0.2543,0.0989,0.3054,-0.141,-0.1399,0.2704,-0.3066,0.2978,0.302,-0.2943,1.2064,-0.0032,0.0193,-0.0274,0.2392,1.0,-0.7543,1.0,-1.0,-1.0,1.0,0.1288,-1.0,1.0,-1.0,1.0,-1.0,-1.0,0.4112,-1.0,1.0,1.0,-1.0,0.0,0.0,0.0,0.0,0.0,0.0,0.0,0.0,0.0,0.3333,0.0,0.3333,0.0,0
3.88,run,15.8,5.38,-1.63,-4.93,23.47,0.0,0.05,0.0,0.89,-14.59,-38.23,113.99,-34.1,-37.79,103.71,-1.41,-45.97,102.74,13.8,-18.19,97.21,-34.19,28.39,60.91,3.52,-3.08,80.95,-5.18,-46.95,127.74,-33.5,-39.85,115.52,3.72,-51.63,109.79,3.5,-6.51,86.08,-35.0,25.5,48.04,13.0,10.63,66.83,1.0,-1.0,1.0,-0.6368,-0.8018,1.0,1.0,-1.0,1.0,-1.0,1.0,-1.0,-1.0,-1.0,-1.0,1.0,1.0,-1.0,0.026,0.045,0.019,0.019,0.111,0.163,0.013,0.019,0.0,0.019,0.006,0.019,0.045,0.091,0.0,0.136,0.123,0.052,-0.2194,-0.6703,0.5937,-0.6657,-0.9189,0.3037,0.0276,-1.0983,0.3559,0.293,-0.6489,0.3758,-0.6796,0.1948,-0.3191,0.0905,-0.2562,0.0077,-0.0536,-0.2834,0.3259,-0.1658,0.2412,-0.0332,-0.251,-0.0029,-0.2177,0.0012,0.3045,-0.1951,-0.1036,0.246,-0.311,0.2935,0.2907,-0.2967,1.1959,-0.0268,-0.0602,-0.1305,0.2257,1.0,-0.8432,1.0,-1.0,-0.6756,1.0,0.6768,-1.0,1.0,-1.0,1.0,-1.0,-1.0,-1.0,-1.0,1.0,1.0,-1.0,0.0,0.0,0.0,0.0,0.0,0.0,0.0,0.0,0.0,0.3333,0.0,0.3333,0.0,0
3.92,run,15.56,5.3,-6.72,-1.57,25.56,0.0,0.05,0.0,0.89,-13.71,-39.9,115.49,-34.19,-37.35,104.85,-1.85,-47.02,102.74,12.48,-16.88,95.8,-34.19,28.56,59.41,5.01,-2.29,79.72,-3.68,-48.45,129.24,-32.0,-41.35,117.02,5.22,-53.13,111.29,2.0,-5.01,84.58,-35.0,24.0,46.54,14.5,12.13,65.33,1.0,-1.0,0.8016,1.0,-1.0,1.0,1.0,-1.0,1.0,-1.0,1.0,-1.0,-1.0,-1.0,-0.3897,0.872,1.0,-0.2561,0.026,0.045,0.019,0.019,0.111,0.163,0.013,0.019,0.0,0.019,0.006,0.019,0.045,0.091,0.0,0.136,0.123,0.052,-0.2102,-0.6857,0.6182,-0.6703,-0.9066,0.3175,0.0169,-1.1121,0.3482,0.2792,-0.6228,0.3513,-0.6811,0.1994,-0.3421,0.115,-0.2393,-0.0153,-0.003,-0.2559,0.3201,-0.1333,0.2148,0.0285,-0.2159,-0.0538,-0.1811,-0.0509,0.3109,-0.2286,-0.0783,0.1894,-0.3039,0.2974,0.2668,-0.294,1.1969,-0.0584,-0.0284,-0.086,0.4096,1.0,-1.0,1.0,-0.6368,-0.8018,1.0,1.0,-1.0,1.0,-1.0,1.0,-1.0,-1.0,-1.0,-1.0,1.0,1.0,-1.0,0.0,0.0,0.0,0.0,0.0,0.0,0.0,0.0,0.0,0.3333,0.0,0.3333,0.0,0
3.96,run,15.03,4.87,-15.92,-11.39,27.57,0.0,0.05,0.0,0.89,-12.04,-41.4,116.98,-34.1,-37.27,106.26,-1.85,-48.25,103.01,10.99,-15.38,94.39,-34.19,28.56,58.01,6.59,-1.49,78.31,-2.18,-49.95,127.74,-30.5,-42.85,118.52,6.72,-54.63,112.79,0.5,-3.51,83.08,-35.0,22.5,48.04,13.0,13.63,66.83,1.0,-1.0,-1.0,1.0,-1.0,1.0,1.0,-1.0,1.0,-1.0,1.0,-1.0,-1.0,-1.0,0.7048,-1.0,1.0,1.0,0.026,0.045,0.019,0.019,0.111,0.163,0.013,0.019,0.0,0.019,0.006,0.019,0.045,0.091,0.0,0.136,0.123,0.052,-0.1948,-0.7148,0.6443,-0.6719,-0.8989,0.3375,0.0092,-1.1305,0.3482,0.2562,-0.5998,0.3267,-0.6811,0.2025,-0.3682,0.1411,-0.2255,-0.0368,0.0557,-0.289,0.3224,-0.0991,0.1793,0.0951,-0.1801,-0.1071,-0.1268,-0.1224,0.3044,-0.2525,-0.0548,0.1442,-0.3111,0.3065,0.2388,-0.2868,1.176,-0.0649,-0.1172,-0.0274,0.4461,1.0,-1.0,0.8016,1.0,-1.0,1.0,1.0,-1.0,1.0,-1.0,1.0,-1.0,-1.0,-1.0,-0.3897,0.872,1.0,-0.2561,0.0,0.0,0.0,0.0,0.0,0.0,0.0,0.0,0.0,0.3333,0.0,0.3333,0.0,0
4.0,run,14.36,4.1,-17.11,-15.16,36.68,0.0,0.05,0.0,0.89,-10.63,-42.89,118.65,-33.49,-37.18,107.75,-1.85,-49.83,103.45,9.4,-13.8,92.72,-34.28,27.69,56.51,8.26,-0.53,76.73,-3.68,-51.45,126.24,-29.0,-44.35,120.02,8.22,-53.13,114.29,-1.0,-2.01,81.58,-35.0,21.0,49.54,11.5,15.13,68.33,-1.0,-1.0,-1.0,1.0,-1.0,1.0,1.0,0.1133,1.0,-1.0,1.0,-1.0,-1.0,-1.0,1.0,-1.0,1.0,1.0,0.0,0.033,0.013,0.013,0.0,0.189,0.026,0.026,0.033,0.006,0.013,0.006,0.033,0.0,0.0,0.117,0.416,0.065,-0.1657,-0.7409,0.6703,-0.6703,-0.8974,0.362,0.0092,-1.152,0.3528,0.2301,-0.5737,0.3022,-0.6811,0.2025,-0.3927,0.1687,-0.2117,-0.0614,0.1478,-0.2996,0.323,-0.0636,0.1312,0.1582,-0.1261,-0.1551,-0.0716,-0.183,0.3104,-0.2684,-0.0384,0.1009,-0.3093,0.3176,0.2187,-0.2923,1.1298,-0.103,-0.2778,-0.1987,0.4811,1.0,-1.0,-1.0,1.0,-1.0,1.0,1.0,-1.0,1.0,-1.0,1.0,-1.0,-1.0,-1.0,0.7048,-1.0,1.0,1.0,0.0,0.0,0.0,0.0,0.0,0.0,0.0,0.0,0.0,0.3333,0.0,0.3333,0.0,0
4.04,run,13.41,3.37,-26.32,-17.21,41.39,0.0,0.05,0.0,0.89,-9.23,-44.21,120.06,-32.52,-37.18,109.25,-1.14,-51.06,104.68,8.09,-12.39,91.49,-34.28,26.72,55.2,9.58,0.44,75.41,-5.18,-52.95,124.74,-27.5,-45.85,118.52,9.72,-51.63,115.79,-2.5,-0.51,80.08,-35.0,19.5,51.04,10.0,16.63,69.83,-1.0,-1.0,-1.0,1.0,-1.0,-0.6601,1.0,-0.0667,1.0,-1.0,1.0,-1.0,-1.0,-1.0,1.0,-1.0,1.0,1.0,0.0,0.033,0.013,0.013,0.0,0.189,0.026,0.026,0.033,0.006,0.013,0.006,0.033,0.0,0.0,0.117,0.416,0.065,-0.1411,-0.767,0.6995,-0.6596,-0.8958,0.3881,0.0092,-1.1796,0.3605,0.2025,-0.5461,0.273,-0.6826,0.1871,-0.4188,0.1979,-0.1948,-0.089,0.187,-0.2985,0.3253,-0.008,0.0971,0.1995,-0.0882,-0.2025,-0.024,-0.2221,0.3112,-0.287,-0.0321,0.0184,-0.3053,0.3215,0.2105,-0.2986,1.0712,-0.1695,-0.2986,-0.2645,0.6402,-1.0,-1.0,-1.0,1.0,-1.0,1.0,1.0,0.1133,1.0,-1.0,1.0,-1.0,-1.0,-1.0,1.0,-1.0,1.0,1.0,0.0,0.0,0.0,0.0,0.0,0.0,0.0,0.0,0.0,0.3333,0.0,0.3333,0.0,0
4.08,run,12.52,2.15,-18.85,-30.51,34.13,0.0,0.05,0.0,0.89,-8.0,-45.62,121.46,-31.64,-37.88,110.83,0.18,-52.03,106.0,6.68,-11.51,89.91,-34.28,25.31,53.79,10.9,2.72,73.92,-6.68,-54.45,123.24,-26.0,-47.35,117.02,11.22,-50.13,117.29,-4.0,0.99,78.58,-35.0,18.0,52.54,8.5,15.13,71.33,-1.0,-1.0,-1.0,1.0,-1.0,-0.3011,1.0,0.1521,1.0,-1.0,1.0,-1.0,-1.0,-1.0,1.0,-1.0,0.1926,1.0,0.0,0.033,0.013,0.013,0.0,0.189,0.026,0.026,0.033,0.006,0.013,0.006,0.033,0.0,0.0,0.117,0.416,0.065,-0.1166,-0.79,0.724,-0.6427,-0.8958,0.4142,0.0215,-1.2011,0.382,0.1795,-0.5216,0.2516,-0.6826,0.1703,-0.4418,0.2209,-0.1779,-0.112,0.2256,-0.2978,0.3225,0.0595,0.068,0.2403,-0.0144,-0.2247,0.0661,-0.2443,0.3126,-0.2838,-0.0225,-0.0522,-0.3025,0.3139,0.2125,-0.2979,0.9881,-0.2333,-0.4594,-0.3004,0.7224,-1.0,-1.0,-1.0,1.0,-1.0,-0.6601,1.0,-0.0667,1.0,-1.0,1.0,-1.0,-1.0,-1.0,1.0,-1.0,1.0,1.0,0.0,0.0,0.0,0.0,0.0,0.0,0.0,0.0,0.0,0.3333,0.0,0.3333,0.0,0
4.12,run,11.54,1.13,-24.1,-24.54,26.38,0.0,0.05,0.0,0.89,-6.59,-47.11,122.61,-30.5,-38.94,112.5,1.58,-52.91,107.4,5.36,-9.93,88.24,-34.28,23.82,52.56,11.87,5.19,72.51,-8.18,-55.95,121.74,-24.5,-48.85,115.52,12.72,-48.63,118.79,-5.5,2.49,77.08,-35.0,16.5,54.04,7.0,13.63,72.83,-1.0,-1.0,-1.0,1.0,-1.0,-1.0,1.0,0.4283,1.0,-1.0,1.0,-1.0,-1.0,-1.0,1.0,-1.0,-0.7558,1.0,0.0,0.033,0.013,0.013,0.0,0.039,0.013,0.0,0.033,0.019,0.026,0.0,0.033,0.0,0.0,0.013,0.058,0.026,-0.0951,-0.8145,0.7486,-0.6274,-0.9081,0.4418,0.0445,-1.218,0.405,0.1549,-0.5062,0.224,-0.6826,0.1457,-0.4663,0.2439,-0.1381,-0.1381,0.238,-0.2999,0.3172,0.0989,0.0018,0.2712,0.0757,-0.2202,0.1321,-0.2625,0.276,-0.3016,-0.0157,-0.1281,-0.3033,0.3055,0.2974,-0.3057,0.9106,-0.3399,-0.3289,-0.5325,0.5957,-1.0,-1.0,-1.0,1.0,-1.0,-0.3011,1.0,0.1521,1.0,-1.0,1.0,-1.0,-1.0,-1.0,1.0,-1.0,0.1926,1.0,0.0,0.0,0.0,0.0,0.0,0.0,0.0,0.0,0.0,0.3333,0.0,0.3333,0.0,0
4.16,run,11.4,0.67,-1.99,-6.45,14.82,0.0,0.05,0.0,0.89,-6.33,-48.6,123.31,-28.92,-40.25,114.08,2.99,-53.44,108.63,4.13,-8.7,86.92,-34.28,22.59,51.77,12.39,6.86,71.46,-9.68,-57.45,120.24,-23.0,-50.35,114.02,14.22,-47.13,120.29,-7.0,3.99,75.58,-35.0,15.0,55.54,5.5,12.13,74.33,-1.0,-1.0,-1.0,1.0,-1.0,-1.0,1.0,0.2582,1.0,-1.0,1.0,-1.0,-1.0,-1.0,1.0,-1.0,-1.0,1.0,0.0,0.033,0.013,0.013,0.0,0.039,0.013,0.0,0.033,0.019,0.026,0.0,0.033,0.0,0.0,0.013,0.058,0.026,-0.0706,-0.8406,0.7685,-0.6075,-0.9265,0.4709,0.069,-1.2333,0.4295,0.1319,-0.4786,0.1948,-0.6826,0.1197,-0.4878,0.2608,-0.0951,-0.1626,0.2589,-0.3081,0.2971,0.1442,-0.068,0.2994,0.1453,-0.2118,0.1848,-0.2703,0.2971,-0.3208,-0.011,-0.1877,-0.2931,0.2773,0.3698,-0.3063,0.8247,-0.4291,-0.4206,-0.4283,0.4605,-1.0,-1.0,-1.0,1.0,-1.0,-1.0,1.0,0.4283,1.0,-1.0,1.0,-1.0,-1.0,-1.0,1.0,-1.0,-0.7558,1.0,0.0,0.0,0.0,0.0,0.0,0.0,0.0,0.0,0.0,0.3333,0.0,0.3333,0.0,0
4.2,run,11.44,0.43,3.2,-2.94,7.94,0.0,0.05,0.0,0.89,-5.27,-50.01,124.1,-27.51,-41.57,115.05,4.31,-53.26,110.04,2.9,-7.47,85.61,-34.37,21.36,51.33,12.39,8.17,70.84,-11.18,-58.95,118.74,-21.5,-51.85,112.52,15.72,-48.63,121.79,-8.5,5.49,74.08,-35.0,13.5,57.04,4.0,10.63,75.83,-1.0,-1.0,-1.0,1.0,-1.0,-1.0,1.0,-0.7784,1.0,-1.0,1.0,-1.0,-1.0,-1.0,1.0,-1.0,-0.9782,1.0,0.0,0.033,0.013,0.013,0.0,0.039,0.013,0.0,0.033,0.019,0.026,0.0,0.033,0.0,0.0,0.013,0.058,0.026,-0.066,-0.8667,0.7808,-0.5798,-0.9495,0.4985,0.0936,-1.2425,0.451,0.1104,-0.4571,0.1718,-0.6826,0.0982,-0.5016,0.27,-0.066,-0.181,0.1984,-0.3129,0.2537,0.204,-0.1334,0.3126,0.1933,-0.1826,0.2094,-0.2693,0.2881,-0.3104,-0.0077,-0.2115,-0.2567,0.2285,0.3676,-0.2831,0.8132,-0.4689,-0.0348,-0.1126,0.2586,-1.0,-1.0,-1.0,1.0,-1.0,-1.0,1.0,0.2582,1.0,-1.0,1.0,-1.0,-1.0,-1.0,1.0,-1.0,-1.0,1.0,0.0,0.0,0.0,0.0,0.0,0.0,0.0,0.0,0.0,0.3333,0.0,0.3333,0.0,0
4.24,run,11.64,0.35,6.02,1.39,-9.5,0.0,0.05,0.0,0.89,-5.36,-51.5,124.8,-26.1,-42.98,115.84,5.71,-52.91,111.45,1.67,-6.15,84.11,-34.72,20.21,51.06,12.04,9.32,70.49,-12.68,-60.45,117.24,-20.0,-53.35,111.02,17.22,-50.13,123.29,-10.0,6.99,72.58,-35.0,12.0,58.54,2.5,9.13,77.33,-1.0,-1.0,-1.0,1.0,-1.0,-1.0,1.0,-1.0,1.0,-1.0,1.0,-1.0,-1.0,-1.0,1.0,-1.0,-0.8492,1.0,0.0,0.026,0.0,0.026,0.006,0.019,0.013,0.013,0.033,0.078,0.084,0.006,0.0,0.013,0.006,0.006,0.071,0.006,-0.0476,-0.8912,0.7946,-0.5553,-0.9725,0.5154,0.1166,-1.2395,0.4755,0.089,-0.4357,0.1488,-0.6842,0.0767,-0.5093,0.27,-0.043,-0.1917,0.2082,-0.3115,0.2296,0.2352,-0.1801,0.2824,0.222,-0.1163,0.2391,-0.2694,0.2826,-0.3039,-0.0112,-0.229,-0.2086,0.1599,0.344,-0.2386,0.8161,-0.4902,0.0558,-0.0514,0.1386,-1.0,-1.0,-1.0,1.0,-1.0,-1.0,1.0,-0.7784,1.0,-1.0,1.0,-1.0,-1.0,-1.0,1.0,-1.0,-0.9782,1.0,0.0,0.0,0.0,0.0,0.0,0.0,0.0,0.0,0.0,0.3333,0.0,0.3333,0.0,0
4.28,run,11.92,0.14,5.79,-3.46,-17.31,0.0,0.05,0.0,0.89,-5.36,-52.91,124.72,-24.79,-44.3,116.37,7.12,-52.12,112.85,0.35,-4.83,82.62,-34.8,18.81,51.24,10.99,10.11,70.49,-14.18,-61.95,115.74,-18.5,-54.85,109.52,18.72,-51.63,124.79,-11.5,8.49,71.08,-35.0,10.5,60.04,1.0,7.63,78.83,-1.0,-1.0,-1.0,1.0,-1.0,-1.0,1.0,-1.0,1.0,-1.0,1.0,-1.0,-1.0,-0.4821,1.0,-1.0,-0.5402,1.0,0.0,0.026,0.0,0.026,0.006,0.019,0.013,0.013,0.033,0.078,0.084,0.006,0.0,0.013,0.006,0.006,0.071,0.006,-0.0491,-0.9173,0.8069,-0.5308,-0.9971,0.5292,0.1411,-1.2333,0.5001,0.0675,-0.4126,0.1227,-0.6903,0.0568,-0.5139,0.2638,-0.023,-0.1979,0.14,-0.3154,0.2065,0.2563,-0.2177,0.2492,0.247,-0.0585,0.259,-0.2688,0.2837,-0.3101,-0.0307,-0.2347,-0.1632,0.089,0.3152,-0.1899,0.834,-0.4972,0.105,0.0242,-0.1658,-1.0,-1.0,-1.0,1.0,-1.0,-1.0,1.0,-1.0,1.0,-1.0,1.0,-1.0,-1.0,-1.0,1.0,-1.0,-0.8492,1.0,0.0,0.0,0.0,0.0,0.0,0.0,0.0,0.0,0.0,0.3333,0.0,0.3333,0.0,0
4.32,run,12.43,0.17,11.7,2.65,-27.95,0.0,0.05,0.0,0.89,-6.24,-54.4,124.1,-23.38,-45.7,116.46,8.44,-51.06,114.35,-1.05,-3.52,81.12,-34.89,17.49,52.03,9.84,10.72,70.75,-15.68,-63.45,114.24,-17.0,-56.35,108.02,20.22,-53.13,126.29,-13.0,9.99,69.58,-33.5,9.0,61.54,-0.5,6.13,80.33,-1.0,-1.0,-1.0,1.0,-1.0,-1.0,1.0,-0.8862,1.0,-1.0,1.0,-0.8706,-0.9031,0.0813,1.0,-1.0,-0.5942,1.0,0.0,0.026,0.0,0.026,0.006,0.019,0.013,0.013,0.033,0.078,0.084,0.006,0.0,0.013,0.006,0.006,0.071,0.006,-0.0491,-0.9419,0.8053,-0.5077,-1.0201,0.5384,0.1657,-1.2195,0.5246,0.0445,-0.3896,0.0966,-0.6918,0.0322,-0.5108,0.2454,-0.0092,-0.1979,0.098,-0.3083,0.1391,0.2615,-0.2344,0.2073,0.2605,0.0083,0.2688,-0.2702,0.2807,-0.3101,-0.027,-0.2519,-0.1033,-0.0033,0.2699,-0.133,0.8584,-0.5158,0.101,-0.0604,-0.3021,-1.0,-1.0,-1.0,1.0,-1.0,-1.0,1.0,-1.0,1.0,-1.0,1.0,-1.0,-1.0,-0.4821,1.0,-1.0,-0.5402,1.0,0.0,0.0,0.0,0.0,0.0,0.0,0.0,0.0,0.0,0.3333,0.0,0.3333,0.0,0
4.36,run,12.88,0.4,10.58,7.22,-23.74,0.0,0.05,0.0,0.89,-7.29,-55.72,123.31,-21.97,-47.11,116.02,9.93,-50.45,115.75,-2.64,-2.02,79.72,-34.89,16.0,52.91,8.61,10.9,71.37,-17.18,-64.95,112.74,-15.5,-57.85,106.52,21.72,-54.63,127.79,-14.5,11.49,68.08,-32.0,10.5,63.04,-2.0,4.63,81.83,-1.0,-0.8112,-1.0,1.0,-1.0,-1.0,1.0,-0.7795,1.0,-1.0,1.0,-0.5547,-0.089,0.9369,1.0,-1.0,0.1317,1.0,0.013,0.026,0.013,0.033,0.013,0.006,0.019,0.0,0.039,0.052,0.058,0.0,0.013,0.019,0.013,0.0,0.033,0.0,-0.0644,-0.9679,0.7946,-0.4832,-1.0446,0.54,0.1887,-1.2011,0.5507,0.0199,-0.3666,0.0706,-0.6934,0.0092,-0.497,0.2255,0.0015,-0.1933,0.0078,-0.3193,0.0548,0.2804,-0.2615,0.1512,0.2736,0.0789,0.2917,-0.2865,0.2878,-0.3205,-0.025,-0.2676,-0.0175,-0.0815,0.2315,-0.0748,0.9032,-0.5131,0.2043,0.0462,-0.4878,-1.0,-1.0,-1.0,1.0,-1.0,-1.0,1.0,-0.8862,1.0,-1.0,1.0,-0.8706,-0.9031,0.0813,1.0,-1.0,-0.5942,1.0,0.0,0.0,0.0,0.0,0.0,0.0,0.0,0.0,0.0,0.3333,0.0,0.3333,0.0,0
4.4,run,13.25,0.59,8.25,5.77,-18.28,0.0,0.05,0.0,0.89,-8.35,-57.22,122.17,-20.48,-48.43,115.31,11.25,-50.27,117.07,-4.04,-0.62,78.31,-34.28,14.59,54.05,7.12,10.9,72.42,-18.68,-63.45,111.24,-14.0,-59.35,105.02,23.22,-53.13,129.29,-16.0,12.99,66.58,-30.5,12.0,64.54,-3.5,6.13,83.33,-1.0,-0.4172,-1.0,1.0,-1.0,0.2166,1.0,0.2349,1.0,-1.0,1.0,-1.0,1.0,1.0,1.0,-1.0,0.5934,1.0,0.013,0.026,0.013,0.033,0.013,0.006,0.019,0.0,0.039,0.052,0.058,0.0,0.013,0.019,0.013,0.0,0.033,0.0,-0.0828,-0.991,0.7808,-0.4587,-1.0692,0.5323,0.2148,-1.1904,0.5752,-0.0077,-0.3405,0.046,-0.6934,-0.0169,-0.4817,0.204,0.0046,-0.1825,-0.0636,-0.3098,-0.0135,0.2884,-0.2751,0.0771,0.2894,0.0955,0.2962,-0.3042,0.2993,-0.3165,-0.0175,-0.2852,0.0453,-0.1376,0.1736,-0.0121,0.9423,-0.4928,0.1847,0.126,-0.4143,-1.0,-0.8112,-1.0,1.0,-1.0,-1.0,1.0,-0.7795,1.0,-1.0,1.0,-0.5547,-0.089,0.9369,1.0,-1.0,0.1317,1.0,0.0,0.0,0.0,0.0,0.0,0.0,0.0,0.0,0.0,0.3333,0.0,0.3333,0.0,0
4.44,run,13.67,0.92,10.24,10.28,-18.48,0.0,0.05,0.0,0.89,-9.93,-58.62,120.94,-18.98,-49.83,114.17,12.74,-50.27,118.56,-5.45,0.88,76.82,-33.4,13.27,55.46,5.71,10.81,73.74,-20.18,-61.95,109.74,-12.5,-60.85,106.52,24.72,-51.63,130.79,-17.5,14.49,65.08,-29.0,13.5,66.04,-5.0,4.63,84.83,-1.0,-0.0718,-1.0,1.0,-1.0,0.6447,1.0,1.0,1.0,-1.0,1.0,-1.0,1.0,0.9259,1.0,-1.0,-0.163,1.0,0.013,0.026,0.013,0.033,0.013,0.006,0.019,0.0,0.039,0.052,0.058,0.0,0.013,0.019,0.013,0.0,0.033,0.0,-0.1012,-1.017,0.7609,-0.4326,-1.0922,0.52,0.2378,-1.1873,0.5983,-0.0322,-0.316,0.0215,-0.6826,-0.0414,-0.4617,0.1779,0.0046,-0.1641,-0.1138,-0.3151,-0.0845,0.3,-0.2792,0.0077,0.2892,0.0784,0.294,-0.3053,0.3019,-0.3139,0.0282,-0.292,0.1068,-0.1945,0.1215,0.0608,0.974,-0.4761,0.144,0.1007,-0.319,-1.0,-0.4172,-1.0,1.0,-1.0,0.2166,1.0,0.2349,1.0,-1.0,1.0,-1.0,1.0,1.0,1.0,-1.0,0.5934,1.0,0.0,0.0,0.0,0.0,0.0,0.0,0.0,0.0,0.0,0.3333,0.0,0.3333,0.0,0
4.48,run,14.15,1.33,11.58,11.32,-18.13,0.0,0.05,0.0,0.89,-11.25,-59.94,119.53,-17.49,-50.98,112.94,14.15,-50.98,119.97,-6.94,2.29,75.5,-32.26,12.13,56.95,4.22,10.02,74.97,-21.68,-60.45,108.24,-11.0,-62.35,108.02,26.22,-50.13,132.29,-19.0,12.99,63.58,-27.5,15.0,67.54,-6.5,3.13,86.33,-1.0,0.7269,-1.0,1.0,-1.0,1.0,1.0,0.9814,1.0,-1.0,0.6109,-0.9228,1.0,1.0,1.0,-1.0,0.0381,1.0,0.013,0.013,0.013,0.019,0.019,0.019,0.019,0.013,0.033,0.058,0.058,0.0,0.013,0.019,0.013,0.006,0.0,0.019,-0.1289,-1.0416,0.7394,-0.4065,-1.1167,0.5001,0.2638,-1.1873,0.6243,-0.0568,-0.2899,-0.0046,-0.6673,-0.0644,-0.4372,0.1534,0.0031,-0.1411,-0.1829,-0.3123,-0.1394,0.3075,-0.2872,-0.0691,0.2999,0.0549,0.3033,-0.3055,0.3088,-0.3172,0.0771,-0.2904,0.1665,-0.2279,0.0793,0.1286,1.011,-0.4472,0.1787,0.1794,-0.3225,-1.0,-0.0718,-1.0,1.0,-1.0,0.6447,1.0,1.0,1.0,-1.0,1.0,-1.0,1.0,0.9259,1.0,-1.0,-0.163,1.0,0.0,0.0,0.0,0.0,0.0,0.0,0.0,0.0,0.0,0.3333,0.0,0.3333,0.0,0
4.52,run,14.64,1.96,12.53,16.36,-16.42,0.0,0.05,0.0,0.89,-12.66,-61.08,118.12,-16.08,-52.21,111.45,15.64,-51.42,121.46,-8.44,3.78,74.09,-30.85,11.34,58.36,2.81,8.88,76.03,-23.18,-58.95,106.74,-9.5,-63.85,109.52,27.72,-48.63,133.79,-20.5,11.49,62.08,-26.0,16.5,69.04,-8.0,1.63,87.83,-1.0,1.0,-1.0,1.0,-1.0,1.0,1.0,1.0,1.0,-1.0,0.0779,-0.7255,1.0,1.0,1.0,-1.0,0.396,1.0,0.013,0.013,0.013,0.019,0.019,0.019,0.019,0.013,0.033,0.058,0.058,0.0,0.013,0.019,0.013,0.006,0.0,0.019,-0.1519,-1.0646,0.7148,-0.3804,-1.1367,0.4786,0.2884,-1.1996,0.6489,-0.0828,-0.2654,-0.0276,-0.6473,-0.0844,-0.4111,0.1273,-0.0107,-0.1197,-0.2142,-0.3047,-0.1895,0.3129,-0.2757,-0.1288,0.3018,-0.0075,0.3042,-0.3114,0.308,-0.3082,0.1286,-0.2779,0.2142,-0.2571,0.0038,0.1704,1.0526,-0.4118,0.2021,0.1975,-0.3164,-1.0,0.7269,-1.0,1.0,-1.0,1.0,1.0,0.9814,1.0,-1.0,0.6109,-0.9228,1.0,1.0,1.0,-1.0,0.0381,1.0,0.0,0.0,0.0,0.0,0.0,0.0,0.0,0.0,0.0,0.3333,0.0,0.3333,0.0,0
4.56,run,15.14,2.78,12.7,21.26,-18.64,0.0,0.05,0.0,0.89,-14.15,-61.88,116.72,-14.59,-53.79,110.21,17.05,-51.59,123.05,-9.93,5.27,72.69,-29.53,10.9,59.85,1.41,7.56,77.7,-24.68,-57.45,105.24,-8.0,-65.35,111.02,29.22,-47.13,135.29,-22.0,9.99,60.58,-24.5,18.0,70.54,-9.5,3.13,89.33,-1.0,1.0,-1.0,1.0,-1.0,1.0,1.0,1.0,1.0,-1.0,-0.7888,-0.298,1.0,1.0,1.0,-1.0,1.0,1.0,0.013,0.013,0.013,0.019,0.019,0.019,0.019,0.013,0.033,0.058,0.058,0.0,0.013,0.019,0.013,0.006,0.0,0.019,-0.1764,-1.0845,0.6903,-0.3559,-1.1582,0.4525,0.3145,-1.2072,0.675,-0.1089,-0.2393,-0.0522,-0.6228,-0.0982,-0.3866,0.1028,-0.0307,-0.1012,-0.2426,-0.2887,-0.2254,0.3117,-0.2741,-0.1887,0.3098,-0.0342,0.3114,-0.3165,0.3141,-0.3085,0.1827,-0.2467,0.2426,-0.2727,-0.0727,0.1888,1.0957,-0.3564,0.2186,0.2856,-0.2867,-1.0,1.0,-1.0,1.0,-1.0,1.0,1.0,1.0,1.0,-1.0,0.0779,-0.7255,1.0,1.0,1.0,-1.0,0.396,1.0,0.0,0.0,0.0,0.0,0.0,0.0,0.0,0.0,0.0,0.3333,0.0,0.3333,0.0,0
4.6,run,15.86,3.56,16.0,19.74,-18.89,0.0,0.05,0.0,0.89,-15.56,-62.4,115.14,-13.01,-55.28,109.16,18.54,-50.98,124.54,-11.6,6.77,71.19,-28.04,10.72,61.35,-0.18,6.15,79.28,-26.18,-55.95,103.74,-6.5,-66.85,112.52,30.72,-45.63,136.79,-23.5,8.49,62.08,-23.0,19.5,72.04,-11.0,4.63,90.83,-1.0,1.0,-1.0,1.0,-1.0,1.0,1.0,1.0,1.0,-1.0,-1.0,0.2612,1.0,1.0,1.0,-1.0,1.0,1.0,0.013,0.0,0.013,0.013,0.026,0.006,0.019,0.006,0.033,0.019,0.019,0.0,0.013,0.006,0.013,0.006,0.0,0.019,-0.2025,-1.0983,0.6657,-0.3298,-1.1858,0.431,0.339,-1.2103,0.7026,-0.135,-0.2132,-0.0767,-0.5998,-0.1058,-0.3605,0.0782,-0.0537,-0.0721,-0.2671,-0.2536,-0.2493,0.3155,-0.2949,-0.2122,0.3084,-0.0354,0.321,-0.3189,0.3172,-0.3075,0.2138,-0.2013,0.2671,-0.2825,-0.1367,0.2409,1.1391,-0.285,0.2216,0.3711,-0.3253,-1.0,1.0,-1.0,1.0,-1.0,1.0,1.0,1.0,1.0,-1.0,-0.7888,-0.298,1.0,1.0,1.0,-1.0,1.0,1.0,0.0,0.0,0.0,0.0,0.0,0.0,0.0,0.0,0.0,0.3333,0.0,0.3333,0.0,0
4.64,run,16.48,4.54,12.02,19.97,-18.44,0.0,0.05,0.0,0.89,-17.31,-62.49,113.38,-11.25,-57.13,108.37,20.21,-49.83,126.3,-13.36,8.26,69.52,-26.19,11.34,63.11,-1.93,4.66,81.04,-27.68,-54.45,102.24,-5.0,-68.35,114.02,32.22,-44.13,135.29,-25.0,6.99,63.58,-21.5,21.0,73.54,-12.5,6.13,92.33,-1.0,1.0,-1.0,1.0,-1.0,1.0,1.0,1.0,0.1006,-1.0,-1.0,0.5588,1.0,1.0,1.0,-1.0,1.0,1.0,0.013,0.0,0.013,0.013,0.026,0.006,0.019,0.006,0.033,0.019,0.019,0.0,0.013,0.006,0.013,0.006,0.0,0.019,-0.227,-1.1075,0.6381,-0.3022,-1.2118,0.4126,0.3651,-1.1996,0.7286,-0.1641,-0.1871,-0.1028,-0.5737,-0.1089,-0.3344,0.0506,-0.0782,-0.0445,-0.2735,-0.2099,-0.2719,0.3182,-0.2983,-0.2134,0.3078,0.0131,0.3166,-0.3259,0.314,-0.3072,0.2416,-0.1517,0.2789,-0.2951,-0.1822,0.266,1.2018,-0.2169,0.2793,0.3445,-0.3297,-1.0,1.0,-1.0,1.0,-1.0,1.0,1.0,1.0,1.0,-1.0,-1.0,0.2612,1.0,1.0,1.0,-1.0,1.0,1.0,0.0,0.0,0.0,0.0,0.0,0.0,0.0,0.0,0.0,0.3333,0.0,0.3333,0.0,0
4.68,run,16.82,5.06,10.16,17.07,-20.05,0.0,0.05,0.0,0.89,-18.46,-62.4,112.24,-10.2,-58.18,108.11,21.36,-49.04,127.35,-14.5,9.05,68.55,-25.22,11.87,64.25,-3.08,3.87,82.18,-29.18,-52.95,100.74,-3.5,-69.85,115.52,33.72,-42.63,133.79,-26.5,5.49,65.08,-20.0,22.5,75.04,-14.0,7.63,93.83,-0.8578,1.0,-1.0,1.0,-1.0,1.0,1.0,1.0,-0.9631,-1.0,-1.0,1.0,1.0,1.0,1.0,-1.0,1.0,1.0,0.013,0.0,0.013,0.013,0.026,0.006,0.019,0.006,0.033,0.019,0.019,0.0,0.013,0.006,0.013,0.006,0.0,0.019,-0.2577,-1.1091,0.6075,-0.2715,-1.2441,0.3988,0.3942,-1.1796,0.7593,-0.1948,-0.1611,-0.1319,-0.5415,-0.0982,-0.3037,0.0199,-0.1043,-0.0138,-0.284,-0.1516,-0.2828,0.3153,-0.306,-0.191,0.3034,0.0693,0.3142,-0.3207,0.2984,-0.3029,0.2662,-0.0738,0.2878,-0.2991,-0.2062,0.2787,1.256,-0.1318,0.2097,0.3485,-0.3218,-1.0,1.0,-1.0,1.0,-1.0,1.0,1.0,1.0,0.1006,-1.0,-1.0,0.5588,1.0,1.0,1.0,-1.0,1.0,1.0,0.0,0.0,0.0,0.0,0.0,0.0,0.0,0.0,0.0,0.3333,0.0,0.3333,0.0,0
4.72,run,17.15,5.43,7.41,8.92,-21.28,0.0,0.05,0.0,0.89,-19.95,-61.7,110.83,-8.79,-59.59,108.19,22.76,-47.81,128.76,-16.08,9.76,67.24,-23.73,12.92,65.65,-4.48,3.34,83.58,-27.68,-51.45,99.24,-2.0,-71.35,117.02,35.0,-41.13,132.29,-28.0,3.99,66.58,-18.5,24.0,76.54,-15.5,9.13,95.33,0.767,1.0,-1.0,1.0,-1.0,1.0,1.0,1.0,-1.0,-1.0,-1.0,1.0,1.0,1.0,1.0,-1.0,1.0,1.0,0.013,0.013,0.013,0.019,0.019,0.006,0.019,0.013,0.033,0.019,0.0,0.006,0.006,0.013,0.006,0.0,0.0,0.013,-0.2777,-1.1075,0.5875,-0.2531,-1.2625,0.3942,0.4142,-1.1658,0.7777,-0.2148,-0.1473,-0.1488,-0.5246,-0.089,-0.2838,0.0,-0.1181,0.0061,-0.2946,-0.0987,-0.2938,0.3091,-0.3026,-0.1558,0.3081,0.1148,0.3083,-0.3203,0.2752,-0.2931,0.2674,-0.0075,0.2972,-0.3051,-0.2106,0.2909,1.286,-0.0858,0.1773,0.298,-0.35,-0.8578,1.0,-1.0,1.0,-1.0,1.0,1.0,1.0,-0.9631,-1.0,-1.0,1.0,1.0,1.0,1.0,-1.0,1.0,1.0,0.0,0.0,0.0,0.0,0.0,0.0,0.0,0.0,0.0,0.3333,0.0,0.3333,0.0,0
4.76,run,17.38,5.68,5.02,5.69,-19.79,0.0,0.05,0.0,0.89,-21.27,-60.82,109.42,-7.38,-61.0,108.72,24.26,-46.32,130.08,-17.49,10.28,66.18,-22.41,14.24,67.06,-5.89,3.08,84.99,-26.18,-49.95,97.74,-3.5,-72.85,118.52,35.0,-39.63,130.79,-29.5,2.49,68.08,-17.0,25.5,78.04,-17.0,10.63,96.83,1.0,1.0,-1.0,-1.0,-1.0,1.0,1.0,1.0,-1.0,-1.0,-1.0,1.0,1.0,1.0,0.6384,-1.0,1.0,1.0,0.013,0.013,0.013,0.019,0.019,0.006,0.019,0.013,0.033,0.019,0.0,0.006,0.006,0.013,0.006,0.0,0.0,0.013,-0.3037,-1.0953,0.563,-0.2286,-1.287,0.3958,0.4387,-1.1443,0.8023,-0.2424,-0.135,-0.1718,-0.4985,-0.0706,-0.2592,-0.0245,-0.1273,0.0307,-0.3039,-0.0231,-0.2976,0.3083,-0.3038,-0.1033,0.3076,0.1608,0.3078,-0.3276,0.2386,-0.2914,0.2849,0.0637,0.3,-0.3055,-0.1819,0.2956,1.3142,-0.0538,0.1294,0.1557,-0.3714,0.767,1.0,-1.0,1.0,-1.0,1.0,1.0,1.0,-1.0,-1.0,-1.0,1.0,1.0,1.0,1.0,-1.0,1.0,1.0,0.0,0.0,0.0,0.0,0.0,0.0,0.0,0.0,0.0,0.3333,0.0,0.3333,0.0,0
4.8,run,17.57,5.88,4.26,5.0,-15.56,0.0,0.05,0.0,0.89,-22.68,-59.5,108.02,-5.98,-62.49,109.6,25.58,-44.91,131.22,-18.81,9.67,65.21,-21.01,15.64,68.47,-7.38,2.99,86.4,-24.68,-48.45,96.24,-5.0,-74.35,120.02,35.0,-38.13,129.29,-31.0,0.99,69.58,-15.5,27.0,76.54,-18.5,12.13,98.33,1.0,1.0,-0.2525,-1.0,-1.0,1.0,1.0,-0.1663,-1.0,-1.0,-1.0,1.0,1.0,1.0,-0.2091,-1.0,1.0,1.0,0.013,0.013,0.013,0.019,0.019,0.006,0.019,0.013,0.033,0.019,0.0,0.006,0.006,0.013,0.006,0.0,0.0,0.013,-0.3267,-1.0799,0.5384,-0.204,-1.3116,0.405,0.4648,-1.1183,0.8253,-0.2669,-0.1258,-0.1902,-0.4755,-0.0476,-0.2347,-0.0491,-0.1319,0.0552,-0.2994,0.0416,-0.3007,0.3082,-0.305,-0.0377,0.3135,0.2108,0.3021,-0.3217,0.2017,-0.2733,0.286,0.1312,0.3024,-0.3063,-0.1447,0.2993,1.3343,-0.0319,0.0877,0.0993,-0.3454,1.0,1.0,-1.0,-1.0,-1.0,1.0,1.0,1.0,-1.0,-1.0,-1.0,1.0,1.0,1.0,0.6384,-1.0,1.0,1.0,0.0,0.0,0.0,0.0,0.0,0.0,0.0,0.0,0.0,0.3333,0.0,0.3333,0.0,0
4.84,run,17.7,6.02,2.72,3.28,-13.33,0.0,0.05,0.0,0.89,-23.99,-58.1,106.61,-4.83,-63.9,110.74,26.98,-43.42,132.01,-20.13,8.96,64.95,-19.51,17.05,69.96,-8.79,2.99,87.8,-23.18,-46.95,97.74,-6.5,-75.85,121.52,33.5,-39.63,127.79,-32.5,-0.51,71.08,-14.0,28.5,75.04,-20.0,13.63,99.83,1.0,1.0,0.3907,-1.0,-1.0,1.0,0.8961,-0.6779,-1.0,-1.0,-1.0,1.0,1.0,1.0,-1.0,-1.0,1.0,1.0,0.006,0.013,0.013,0.006,0.019,0.013,0.019,0.013,0.013,0.026,0.013,0.006,0.006,0.006,0.006,0.0,0.117,0.019,-0.3513,-1.0569,0.5139,-0.1795,-1.3376,0.4203,0.4878,-1.0937,0.8452,-0.2899,-0.1365,-0.2071,-0.451,-0.023,-0.2102,-0.0752,-0.1335,0.0798,-0.3011,0.115,-0.3021,0.3074,-0.3109,0.0309,0.3053,0.2391,0.2859,-0.3111,0.1011,-0.2543,0.2918,0.1835,0.3033,-0.3117,-0.107,0.3011,1.3512,-0.0141,0.0744,0.0872,-0.2716,1.0,1.0,-0.2525,-1.0,-1.0,1.0,1.0,-0.1663,-1.0,-1.0,-1.0,1.0,1.0,1.0,-0.2091,-1.0,1.0,1.0,0.0,0.0,0.0,0.0,0.0,0.0,0.0,0.0,0.0,0.3333,0.0,0.3333,0.0,0
4.88,run,17.82,6.11,2.26,1.78,-13.03,0.0,0.05,0.0,0.89,-24.96,-56.78,105.21,-4.04,-65.3,112.06,28.39,-42.1,132.54,-21.62,8.0,64.86,-18.19,18.19,71.28,-10.11,3.43,89.21,-21.68,-45.45,99.24,-8.0,-77.35,123.02,32.0,-41.13,126.29,-31.0,-2.01,72.58,-12.5,30.0,73.54,-21.5,12.13,98.33,1.0,1.0,0.9529,-1.0,-1.0,1.0,0.7627,-1.0,-1.0,-0.8118,-1.0,1.0,1.0,1.0,-1.0,-1.0,0.2439,-0.021,0.006,0.013,0.013,0.006,0.019,0.013,0.019,0.013,0.013,0.026,0.013,0.006,0.006,0.006,0.006,0.0,0.117,0.019,-0.3743,-1.0324,0.4893,-0.1595,-1.3622,0.4403,0.5123,-1.0677,0.859,-0.3129,-0.1488,-0.2117,-0.4249,0.0015,-0.1841,-0.0997,-0.1335,0.1043,-0.2977,0.1732,-0.3042,0.2905,-0.3103,0.097,0.3065,0.2659,0.2523,-0.3047,0.0244,-0.1954,0.3028,0.2212,0.3108,-0.3109,-0.0749,0.3035,1.3624,-0.0023,0.0474,0.0572,-0.2326,1.0,1.0,0.3907,-1.0,-1.0,1.0,0.8961,-0.6779,-1.0,-1.0,-1.0,1.0,1.0,1.0,-1.0,-1.0,1.0,1.0,0.0,0.0,0.0,0.0,0.0,0.0,0.0,0.0,0.0,0.3333,0.0,0.3333,0.0,0
4.92,run,18.19,6.22,10.09,3.13,-9.05,0.0,0.05,0.0,0.89,-25.66,-55.37,103.71,-3.34,-66.71,113.55,29.79,-40.96,132.71,-23.12,6.86,65.21,-16.88,19.51,72.51,-11.16,4.22,90.53,-20.18,-43.95,100.74,-9.5,-78.85,124.52,30.5,-42.63,124.79,-29.5,-3.51,74.08,-11.0,30.0,72.04,-23.0,10.63,96.83,1.0,1.0,1.0,-1.0,-1.0,0.8267,0.4429,-1.0,-1.0,-0.1138,-1.0,1.0,1.0,1.0,-1.0,-1.0,0.0378,-1.0,0.006,0.013,0.013,0.006,0.019,0.013,0.019,0.013,0.013,0.026,0.013,0.006,0.006,0.006,0.006,0.0,0.117,0.019,-0.3912,-1.0094,0.4648,-0.1457,-1.3867,0.4633,0.5369,-1.0446,0.8682,-0.339,-0.1657,-0.2132,-0.4019,0.0215,-0.1611,-0.1227,-0.1258,0.1289,-0.2711,0.2067,-0.3041,0.2546,-0.3084,0.1533,0.3057,0.2716,0.2108,-0.3101,-0.0456,-0.1425,0.2974,0.2289,0.303,-0.3031,-0.0239,0.3036,1.373,0.0053,0.0394,0.031,-0.2274,1.0,1.0,0.9529,-1.0,-1.0,1.0,0.7627,-1.0,-1.0,-0.8118,-1.0,1.0,1.0,1.0,-1.0,-1.0,0.2439,-0.021,0.0,0.0,0.0,0.0,0.0,0.0,0.0,0.0,0.0,0.3333,0.0,0.3333,0.0,0
4.96,run,18.75,6.34,14.37,2.8,-11.48,0.0,0.05,0.0,0.89,-26.1,-53.96,102.39,-3.16,-68.12,114.96,30.94,-40.25,132.71,-24.52,5.54,66.01,-15.38,20.92,73.48,-12.83,5.27,91.76,-18.68,-42.45,102.24,-11.0,-80.0,123.02,29.0,-44.13,123.29,-28.0,-5.01,75.58,-9.5,30.0,70.54,-24.5,9.13,95.33,1.0,1.0,1.0,-1.0,-1.0,0.1385,-0.3223,-1.0,-1.0,0.5564,-1.0,1.0,0.0285,1.0,-1.0,-1.0,-0.4231,-1.0,0.0,0.013,0.006,0.006,0.019,0.013,0.006,0.013,0.006,0.0,0.013,0.006,0.019,0.039,0.013,0.013,0.169,0.039,-0.4034,-0.9848,0.4387,-0.1335,-1.4113,0.4893,0.5614,-1.0247,0.8713,-0.3651,-0.1856,-0.2071,-0.3789,0.0445,-0.1396,-0.1411,-0.112,0.1519,-0.236,0.2371,-0.3111,0.2244,-0.3083,0.2055,0.3064,0.2652,0.1591,-0.3153,-0.107,-0.0766,0.2948,0.2469,0.293,-0.2815,0.0352,0.2992,1.4058,0.0151,0.1761,0.0546,-0.158,1.0,1.0,1.0,-1.0,-1.0,0.8267,0.4429,-1.0,-1.0,-0.1138,-1.0,1.0,1.0,1.0,-1.0,-1.0,0.0378,-1.0,0.0,0.0,0.0,0.0,0.0,0.0,0.0,0.0,0.0,0.3333,0.0,0.3333,0.0,0
5.0,run,19.95,6.73,26.81,8.67,-14.14,0.0,0.05,0.0,0.89,-26.1,-52.65,101.16,-3.08,-69.79,116.54,31.9,-39.81,132.1,-26.02,3.87,67.15,-13.8,22.41,74.18,-14.41,6.42,93.08,-17.18,-40.95,103.74,-12.5,-80.0,121.52,27.5,-45.63,121.79,-26.5,-6.51,77.08,-11.0,30.0,69.04,-26.0,7.63,93.83,1.0,-0.1163,1.0,-1.0,-1.0,0.6366,-1.0,-1.0,-1.0,1.0,-1.0,1.0,-0.9759,1.0,-1.0,-1.0,-1.0,-1.0,0.0,0.013,0.006,0.006,0.019,0.013,0.006,0.013,0.006,0.0,0.013,0.006,0.019,0.039,0.013,0.013,0.169,0.039,-0.4111,-0.9603,0.4157,-0.1304,-1.4358,0.5139,0.5814,-1.0124,0.8713,-0.3896,-0.2086,-0.1933,-0.3528,0.069,-0.1227,-0.1703,-0.0936,0.1733,-0.1939,0.2578,-0.3038,0.1686,-0.3076,0.2357,0.2891,0.2316,0.1114,-0.3126,-0.161,-0.002,0.304,0.2646,0.2682,-0.3061,0.0935,0.2898,1.4543,0.0258,0.2508,0.0488,-0.2003,1.0,1.0,1.0,-1.0,-1.0,0.1385,-0.3223,-1.0,-1.0,0.5564,-1.0,1.0,0.0285,1.0,-1.0,-1.0,-0.4231,-1.0,0.0,0.0,0.0,0.0,0.0,0.0,0.0,0.0,0.0,0.3333,0.0,0.3333,0.0,0
5.04,run,20.96,7.02,32.81,8.34,-14.76,0.0,0.048,0.0,0.89,-25.49,-51.42,100.46,-3.25,-70.93,117.77,32.34,-39.64,131.66,-26.89,2.72,68.2,-12.74,23.64,74.62,-15.64,7.12,93.87,-15.68,-42.45,105.24,-14.0,-80.0,123.02,26.0,-47.13,120.29,-25.0,-8.01,78.58,-12.5,30.0,67.54,-27.5,6.13,92.33,1.0,-0.5355,1.0,-1.0,-1.0,1.0,-1.0,-1.0,-1.0,1.0,-1.0,1.0,-1.0,1.0,-0.7356,-1.0,-1.0,-1.0,0.0,0.013,0.006,0.006,0.019,0.013,0.006,0.013,0.006,0.0,0.013,0.006,0.019,0.039,0.013,0.013,0.169,0.039,-0.4111,-0.9373,0.3942,-0.1289,-1.465,0.5415,0.5983,-1.0048,0.8606,-0.4157,-0.2378,-0.1733,-0.3252,0.0951,-0.1104,-0.1979,-0.0736,0.1963,-0.1357,0.2548,-0.282,0.123,-0.3095,0.2542,0.2569,0.1869,0.0433,-0.303,-0.2068,0.063,0.3019,0.2694,0.2274,-0.3034,0.1299,0.2771,1.5588,0.06,0.4679,0.1513,-0.2468,1.0,-0.1163,1.0,-1.0,-1.0,0.6366,-1.0,-1.0,-1.0,1.0,-1.0,1.0,-0.9759,1.0,-1.0,-1.0,-1.0,-1.0,0.0,0.0,0.0,0.0,0.0,0.0,0.0,0.0,0.0,0.32,0.0,0.32,0.0,0
5.08,run,22.62,7.83,41.57,20.64,-18.77,0.0,0.046,0.0,0.89,-24.7,-49.75,100.02,-4.22,-72.42,119.18,32.61,-40.34,130.43,-27.6,1.32,69.7,-11.6,25.14,74.79,-17.14,7.91,94.75,-14.18,-43.95,106.74,-15.5,-80.0,124.52,24.5,-48.63,118.79,-23.5,-9.51,80.08,-14.0,30.0,66.04,-29.0,4.63,90.83,1.0,-0.7519,1.0,-1.0,-1.0,1.0,-1.0,-1.0,-1.0,1.0,-1.0,1.0,-1.0,1.0,-0.4366,-1.0,-1.0,-1.0,0.006,0.019,0.0,0.006,0.019,0.019,0.006,0.0,0.013,0.006,0.026,0.006,0.013,0.013,0.006,0.013,0.117,0.019,-0.4004,-0.9158,0.382,-0.1319,-1.4849,0.563,0.6059,-1.0017,0.8529,-0.431,-0.2577,-0.1549,-0.3068,0.1166,-0.1028,-0.2194,-0.0614,0.2102,-0.0468,0.2747,-0.2525,0.0723,-0.3061,0.2743,0.2142,0.1446,-0.0041,-0.2809,-0.2343,0.1267,0.294,0.285,0.1936,-0.3088,0.146,0.256,1.6472,0.0848,0.5726,0.1456,-0.2576,1.0,-0.5355,1.0,-1.0,-1.0,1.0,-1.0,-1.0,-1.0,1.0,-1.0,1.0,-1.0,1.0,-0.7356,-1.0,-1.0,-1.0,0.0,0.0,0.0,0.0,0.0,0.0,0.0,0.0,0.0,0.3067,0.0,0.3067,0.0,0
