t_s,phase,roll_deg,pitch_deg,gyro_x_dps,gyro_y_dps,gyro_z_dps,height_ref_mm,vx_ref_mps,vy_ref_mps,max_cur_a,q0_deg,q1_deg,q2_deg,q3_deg,q4_deg,q5_deg,q6_deg,q7_deg,q8_deg,q9_deg,q10_deg,q11_deg,q12_deg,q13_deg,q14_deg,q15_deg,q16_deg,q17_deg,cmd0_deg,cmd1_deg,cmd2_deg,cmd3_deg,cmd4_deg,cmd5_deg,cmd6_deg,cmd7_deg,cmd8_deg,cmd9_deg,cmd10_deg,cmd11_deg,cmd12_deg,cmd13_deg,cmd14_deg,cmd15_deg,cmd16_deg,cmd17_deg,act0,act1,act2,act3,act4,act5,act6,act7,act8,act9,act10,act11,act12,act13,act14,act15,act16,act17,cur0_a,cur1_a,cur2_a,cur3_a,cur4_a,cur5_a,cur6_a,cur7_a,cur8_a,cur9_a,cur10_a,cur11_a,cur12_a,cur13_a,cur14_a,cur15_a,cur16_a,cur17_a,obs0,obs1,obs2,obs3,obs4,obs5,obs6,obs7,obs8,obs9,obs10,obs11,obs12,obs13,obs14,obs15,obs16,obs17,obs18,obs19,obs20,obs21,obs22,obs23,obs24,obs25,obs26,obs27,obs28,obs29,obs30,obs31,obs32,obs33,obs34,obs35,obs36,obs37,obs38,obs39,obs40,obs41,obs42,obs43,obs44,obs45,obs46,obs47,obs48,obs49,obs50,obs51,obs52,obs53,obs54,obs55,obs56,obs57,obs58,obs59,obs60,obs61,obs62,obs63,obs64,obs65,obs66,obs67,obs68,obs69,obs70,obs71,rot60_k
0.0,run,0.38,3.95,0.93,1.26,-4.57,0.0,0.0,0.0,0.052,0.35,17.23,78.49,0.62,16.08,77.96,0.0,16.96,78.57,-0.09,15.29,77.96,-0.18,15.82,78.22,-0.18,15.82,77.17,-1.32,16.08,77.25,-0.97,15.02,79.81,1.5,16.08,80.25,1.41,14.23,79.9,-1.68,15.11,77.25,-1.68,14.76,78.93,-1.0,-1.0,-0.2133,-1.0,-1.0,1.0,1.0,-1.0,1.0,1.0,-1.0,1.0,-0.2334,-1.0,-0.3039,-1.0,-1.0,1.0,0.026,0.0,0.0,0.006,0.0,0.039,0.006,0.006,0.013,0.013,0.006,0.052,0.013,0.013,0.0,0.006,0.0,0.019,0.0031,0.0,-0.0031,0.0,-0.0077,-0.0061,0.0,-0.0015,-0.0031,0.0,0.0,-0.0077,0.0,0.0,-0.0092,0.0,0.0,-0.0046,0.009,0.0,-0.0048,0.0,-0.0204,-0.0096,0.0,-0.0045,-0.0048,0.0,0.0,-0.0141,0.0,0.0,-0.0208,0.0,0.0,-0.0135,0.0,0.0,-0.017,-0.0122,0.0174,0.0,0.0,0.0,0.0,0.0,0.0,0.0,0.0,0.0,0.0,0.0,0.0,0.0,0.0,0.0,0.0,0.0,0.0,0.0,0.0,0.0,0.0,0.0,0.0,0.0,0.0,0.0,0.0,0.0,0.0,0.0,0
0.04,run,0.34,3.95,1.17,0.23,3.24,0.0,0.0,0.0,0.052,0.09,16.7,78.22,0.53,15.82,78.05,0.0,16.7,78.57,0.0,15.03,77.96,-0.26,15.64,77.87,-0.35,15.38,77.17,-2.82,17.58,78.75,-2.47,13.52,81.31,0.0,14.58,78.75,2.91,12.73,81.4,-3.18,16.61,78.75,-3.18,13.26,80.43,-1.0,1.0,1.0,-1.0,-1.0,1.0,-1.0,-1.0,-0.7898,1.0,-1.0,1.0,-1.0,0.8529,1.0,-1.0,-1.0,1.0,0.026,0.0,0.0,0.006,0.0,0.039,0.006,0.006,0.013,0.013,0.006,0.052,0.013,0.013,0.0,0.006,0.0,0.019,0.0031,-0.0061,-0.0046,0.0015,-0.0077,-0.0061,0.0,-0.0107,-0.0031,0.0,-0.0077,-0.0077,0.0,-0.0138,-0.0092,0.0,-0.0077,-0.0046,0.0063,-0.009,-0.0056,0.0023,-0.0143,-0.0068,0.0,-0.0167,-0.0034,0.0,-0.0113,-0.0099,0.0,-0.0203,-0.0145,0.0,-0.0113,-0.0095,0.0085,0.0074,0.0163,0.0219,-0.0798,-1.0,-1.0,-0.2133,-1.0,-1.0,1.0,1.0,-1.0,1.0,1.0,-1.0,1.0,-0.2334,-1.0,-0.3039,-1.0,-1.0,1.0,0.0,0.0,0.0,0.0,0.0,0.0,0.0,0.0,0.0,0.0,0.0,0.0,0.0,0
0.08,run,0.08,4.1,-5.15,2.26,1.04,0.0,0.0,0.0,0.052,-0.53,16.35,77.78,0.09,15.21,78.75,0.09,15.91,78.57,0.7,14.5,78.57,-1.23,14.94,77.52,-1.32,14.77,77.34,-1.32,19.08,80.25,-3.97,12.02,82.81,-1.5,16.08,80.25,4.41,11.23,82.9,-4.68,18.11,80.25,-4.68,11.76,81.93,-0.0115,0.8475,0.3795,-1.0,-1.0,1.0,-1.0,1.0,1.0,1.0,-1.0,1.0,-1.0,1.0,1.0,-1.0,-1.0,1.0,0.026,0.0,0.0,0.006,0.0,0.039,0.006,0.006,0.013,0.013,0.006,0.052,0.013,0.013,0.0,0.006,0.0,0.019,-0.0015,-0.0153,-0.0092,0.0,-0.0123,-0.0046,0.0,-0.0153,-0.0031,0.0015,-0.0123,-0.0077,-0.0015,-0.0169,-0.0153,-0.0031,-0.0153,-0.0046,-0.0129,-0.041,-0.0213,-0.0042,-0.0273,0.001,0.0,-0.029,-0.0024,0.0058,-0.0252,-0.0069,-0.0058,-0.0258,-0.0333,-0.0115,-0.0368,-0.0066,0.0053,0.0079,0.0204,0.0039,0.0565,-1.0,1.0,1.0,-1.0,-1.0,1.0,-1.0,-1.0,-0.7898,1.0,-1.0,1.0,-1.0,0.8529,1.0,-1.0,-1.0,1.0,0.0,0.0,0.0,0.0,0.0,0.0,0.0,0.0,0.0,0.0,0.0,0.0,0.0,0
0.12,run,-0.01,4.09,-2.47,-0.17,-11.3,0.0,0.0,0.0,0.117,-1.23,16.17,77.61,-0.7,14.33,79.63,0.62,15.29,79.1,1.58,13.54,79.45,-2.02,14.85,77.26,-2.2,14.06,78.13,-2.82,20.58,81.75,-5.47,10.52,84.31,-3.0,17.58,81.75,5.91,9.73,84.4,-3.18,16.61,78.75,-6.18,10.26,83.43,-1.0,1.0,0.3455,-1.0,-1.0,1.0,-1.0,1.0,1.0,1.0,-1.0,1.0,0.2906,-0.1176,-1.0,-1.0,-1.0,1.0,0.019,0.019,0.0,0.039,0.0,0.058,0.0,0.019,0.033,0.052,0.0,0.117,0.019,0.065,0.039,0.019,0.0,0.065,-0.0123,-0.0215,-0.0169,-0.0077,-0.023,0.0077,0.0015,-0.0291,-0.0031,0.0138,-0.0215,0.0031,-0.0184,-0.0291,-0.0215,-0.0199,-0.0261,-0.0015,-0.0494,-0.0518,-0.0437,-0.0318,-0.0595,0.0469,0.0058,-0.0723,-0.0017,0.0502,-0.0523,0.0356,-0.0675,-0.0642,-0.0464,-0.0716,-0.0661,0.0069,-0.0175,0.0209,-0.0899,0.0395,0.0182,-0.0115,0.8475,0.3795,-1.0,-1.0,1.0,-1.0,1.0,1.0,1.0,-1.0,1.0,-1.0,1.0,1.0,-1.0,-1.0,1.0,0.0,0.0,0.0,0.0,0.0,0.0,0.0,0.0,0.0,0.0,0.0,0.0,0.0,0
0.16,run,-0.01,4.1,-1.05,0.69,-9.23,0.0,0.0,0.0,0.117,-1.93,16.17,77.61,-1.76,13.27,80.95,0.62,15.03,79.54,2.64,12.39,80.77,-2.99,14.77,77.26,-3.52,12.92,79.19,-4.32,22.08,83.25,-6.97,9.02,85.81,-4.5,16.08,80.25,7.41,8.23,85.9,-4.68,18.11,80.25,-7.68,8.76,84.93,-1.0,1.0,0.4749,-1.0,-0.2431,1.0,-0.9427,0.1737,-0.1631,1.0,-1.0,1.0,-1.0,0.8297,1.0,-1.0,-1.0,1.0,0.019,0.019,0.0,0.039,0.0,0.058,0.0,0.019,0.033,0.052,0.0,0.117,0.019,0.065,0.039,0.019,0.0,0.065,-0.0245,-0.0245,-0.0199,-0.0215,-0.0383,0.023,0.0107,-0.0399,0.0061,0.0291,-0.0383,0.0184,-0.0322,-0.0307,-0.0261,-0.0353,-0.0383,0.0123,-0.0805,-0.0477,-0.0421,-0.0738,-0.099,0.0901,0.0384,-0.0907,0.0332,0.0925,-0.0996,0.0822,-0.0989,-0.0507,-0.0497,-0.1074,-0.0921,0.0564,-0.0257,0.0198,-0.043,-0.003,-0.1971,-1.0,1.0,0.3455,-1.0,-1.0,1.0,-1.0,1.0,1.0,1.0,-1.0,1.0,0.2906,-0.1176,-1.0,-1.0,-1.0,1.0,0.0,0.0,0.0,0.0,0.0,0.0,0.0,0.0,0.0,0.0,0.0,0.0,0.0,0
0.2,run,-0.01,4.09,-1.12,0.34,-8.42,0.0,0.0,0.0,0.117,-2.55,16.17,77.78,-2.99,12.04,82.18,0.62,14.94,80.24,3.96,11.16,82.18,-3.6,14.85,77.61,-4.75,11.78,80.42,-5.82,23.58,84.75,-8.47,7.52,87.31,-6.0,17.58,81.75,8.91,6.73,87.4,-6.18,16.61,81.75,-9.18,7.26,86.43,-1.0,1.0,0.7187,-1.0,-1.0,1.0,-1.0,1.0,1.0,1.0,-1.0,1.0,-1.0,0.2254,1.0,-1.0,-1.0,1.0,0.019,0.019,0.0,0.039,0.0,0.058,0.0,0.019,0.033,0.052,0.0,0.117,0.019,0.065,0.039,0.019,0.0,0.065,-0.0368,-0.0245,-0.0199,-0.0399,-0.0568,0.046,0.0107,-0.0445,0.0138,0.0476,-0.0583,0.0414,-0.0491,-0.0322,-0.0261,-0.0583,-0.0583,0.0307,-0.1028,-0.0334,-0.0295,-0.1214,-0.139,0.1502,0.0269,-0.0809,0.0523,0.1344,-0.1453,0.1447,-0.1331,-0.0413,-0.0348,-0.1623,-0.14,0.1092,-0.0252,0.0204,-0.0182,0.0121,-0.1612,-1.0,1.0,0.4749,-1.0,-0.2431,1.0,-0.9427,0.1737,-0.1631,1.0,-1.0,1.0,-1.0,0.8297,1.0,-1.0,-1.0,1.0,0.0,0.0,0.0,0.0,0.0,0.0,0.0,0.0,0.0,0.0,0.0,0.0,0.0,0
0.24,run,0.15,3.99,2.39,-1.09,-10.65,0.0,0.0,0.0,0.325,-3.34,16.61,78.49,-4.39,10.72,83.58,-0.18,14.94,80.68,5.19,9.84,83.5,-4.39,15.21,78.4,-6.06,10.46,81.83,-7.32,22.84,86.25,-9.97,6.02,88.81,-7.5,18.09,83.25,10.41,5.23,88.9,-7.68,15.11,80.25,-10.68,5.76,87.93,-1.0,0.8698,0.43,-1.0,-1.0,1.0,-1.0,0.7835,1.0,1.0,-1.0,1.0,-1.0,-0.0488,-0.6719,-1.0,-1.0,1.0,0.026,0.143,0.045,0.026,0.0,0.052,0.006,0.13,0.026,0.065,0.0,0.052,0.033,0.325,0.156,0.013,0.0,0.052,-0.0476,-0.0245,-0.0169,-0.0614,-0.0782,0.0675,0.0107,-0.046,0.0261,0.0706,-0.0798,0.066,-0.0598,-0.0307,-0.0199,-0.0798,-0.0782,0.0522,-0.1121,-0.0234,-0.0092,-0.1652,-0.1776,0.1854,0.0188,-0.0624,0.0825,0.1801,-0.1819,0.193,-0.1333,-0.0232,-0.0014,-0.1939,-0.1725,0.1567,-0.0255,0.0196,-0.0196,0.0059,-0.147,-1.0,1.0,0.7187,-1.0,-1.0,1.0,-1.0,1.0,1.0,1.0,-1.0,1.0,-1.0,0.2254,1.0,-1.0,-1.0,1.0,0.0,0.0,0.0,0.0,0.0,0.0,0.0,0.0,0.0,0.0,0.0,0.0,0.0,0
0.28,run,0.29,3.8,3.76,-5.12,-18.76,0.0,0.0,0.0,0.325,-4.39,17.4,79.45,-5.8,9.49,85.08,-1.41,15.38,80.95,6.59,8.61,85.08,-5.45,15.21,79.28,-7.47,9.14,83.32,-8.82,21.34,87.75,-11.47,4.52,90.31,-9.0,16.59,82.12,11.91,3.73,90.4,-9.18,13.61,81.75,-12.18,4.26,89.43,-1.0,-0.0581,0.3214,-1.0,-0.9352,1.0,-1.0,0.0264,0.2015,1.0,-1.0,1.0,-1.0,0.6371,1.0,-1.0,-1.0,1.0,0.026,0.143,0.045,0.026,0.0,0.052,0.006,0.13,0.026,0.065,0.0,0.052,0.033,0.325,0.156,0.013,0.0,0.052,-0.0614,-0.0169,-0.0046,-0.0859,-0.1012,0.092,-0.0031,-0.046,0.0337,0.092,-0.1028,0.089,-0.0736,-0.0245,-0.0061,-0.1028,-0.1012,0.0767,-0.1301,0.0123,0.0395,-0.2074,-0.2103,0.2216,-0.0384,-0.0437,0.0864,0.2064,-0.2134,0.2211,-0.1449,0.0067,0.0506,-0.2218,-0.2068,0.2015,-0.0116,0.0113,0.0417,-0.019,-0.1858,-1.0,0.8698,0.43,-1.0,-1.0,1.0,-1.0,0.7835,1.0,1.0,-1.0,1.0,-1.0,-0.0488,-0.6719,-1.0,-1.0,1.0,0.0,0.0,0.0,0.0,0.0,0.0,0.0,0.0,0.0,0.0,0.0,0.0,0.0,0
0.32,run,0.43,3.7,4.55,-2.51,-18.75,0.0,0.0,0.0,0.325,-5.54,18.28,80.68,-7.21,8.17,86.48,-2.72,15.91,81.3,7.91,7.29,86.48,-6.59,15.29,79.89,-8.88,7.82,84.73,-10.32,19.84,89.25,-12.97,3.02,91.81,-10.5,18.09,83.62,13.41,2.23,91.9,-10.68,12.11,83.25,-13.68,2.76,90.93,-1.0,-0.9416,0.8089,-1.0,-1.0,1.0,-1.0,1.0,1.0,1.0,-1.0,1.0,-1.0,-0.1846,0.5511,-1.0,-1.0,1.0,0.026,0.143,0.045,0.026,0.0,0.052,0.006,0.13,0.026,0.065,0.0,0.052,0.033,0.325,0.156,0.013,0.0,0.052,-0.0798,-0.0031,0.0123,-0.1104,-0.1227,0.1181,-0.0245,-0.0383,0.0383,0.1166,-0.1243,0.1166,-0.092,-0.0245,0.0092,-0.1273,-0.1243,0.1028,-0.1605,0.0607,0.0913,-0.2378,-0.2282,0.2535,-0.1079,-0.0016,0.0778,0.237,-0.2304,0.2589,-0.1709,0.0047,0.0933,-0.2478,-0.2316,0.2394,0.0002,-0.0055,0.0657,-0.0893,-0.3274,-1.0,-0.0581,0.3214,-1.0,-0.9352,1.0,-1.0,0.0264,0.2015,1.0,-1.0,1.0,-1.0,0.6371,1.0,-1.0,-1.0,1.0,0.0,0.0,0.0,0.0,0.0,0.0,0.0,0.0,0.0,0.0,0.0,0.0,0.0,0
0.36,run,0.34,3.59,-1.3,-3.02,-17.8,0.0,0.0,0.0,0.325,-6.86,18.98,81.91,-8.7,6.86,87.98,-4.04,16.0,81.56,9.4,5.98,87.98,-7.82,15.29,80.6,-10.46,6.59,86.22,-11.82,18.34,87.75,-14.47,1.52,93.31,-12.0,16.59,85.12,14.91,0.73,93.4,-12.18,10.61,84.75,-15.18,1.26,92.43,-1.0,-1.0,-0.1389,-1.0,-1.0,1.0,-1.0,-1.0,1.0,1.0,-1.0,1.0,-1.0,0.5381,0.4374,-1.0,-1.0,1.0,0.039,0.26,0.084,0.019,0.0,0.026,0.026,0.267,0.097,0.045,0.0,0.045,0.026,0.033,0.163,0.006,0.0,0.033,-0.0997,0.0123,0.0337,-0.135,-0.1457,0.1427,-0.0476,-0.0291,0.0445,0.1396,-0.1473,0.1411,-0.112,-0.023,0.0199,-0.1519,-0.1473,0.1273,-0.1868,0.0998,0.1441,-0.2581,-0.2457,0.2691,-0.1615,0.0332,0.0774,0.2518,-0.2472,0.2729,-0.1941,0.009,0.1054,-0.2651,-0.248,0.2592,0.0132,-0.0141,0.0794,-0.0439,-0.3272,-1.0,-0.9416,0.8089,-1.0,-1.0,1.0,-1.0,1.0,1.0,1.0,-1.0,1.0,-1.0,-0.1846,0.5511,-1.0,-1.0,1.0,0.0,0.0,0.0,0.0,0.0,0.0,0.0,0.0,0.0,0.0,0.0,0.0,0.0,0
0.4,run,0.22,3.6,-2.6,0.26,-19.23,0.0,0.0,0.0,0.325,-8.35,19.34,83.23,-10.28,5.45,89.56,-5.45,16.0,82.18,10.99,4.48,89.65,-9.32,14.94,81.56,-12.04,5.01,87.8,-13.32,16.84,89.25,-15.97,0.02,94.81,-13.5,18.09,86.62,16.41,-0.77,94.9,-13.68,9.11,86.25,-16.68,-0.24,93.93,-1.0,-1.0,0.7266,-1.0,-0.8807,1.0,-1.0,1.0,0.5388,1.0,-1.0,1.0,-1.0,-1.0,1.0,-1.0,-1.0,1.0,0.039,0.26,0.084,0.019,0.0,0.026,0.026,0.267,0.097,0.045,0.0,0.045,0.026,0.033,0.163,0.006,0.0,0.033,-0.1227,0.0245,0.0552,-0.1611,-0.1687,0.1687,-0.0706,-0.0276,0.0491,0.1657,-0.1703,0.1672,-0.1335,-0.023,0.0322,-0.1795,-0.1687,0.1534,-0.2161,0.1154,0.1805,-0.2774,-0.2573,0.2851,-0.1984,0.0289,0.0713,0.273,-0.2584,0.2878,-0.2155,0.0063,0.1193,-0.288,-0.2533,0.2782,0.005,-0.0241,-0.0228,-0.0527,-0.3107,-1.0,-1.0,-0.1389,-1.0,-1.0,1.0,-1.0,-1.0,1.0,1.0,-1.0,1.0,-1.0,0.5381,0.4374,-1.0,-1.0,1.0,0.0,0.0,0.0,0.0,0.0,0.0,0.0,0.0,0.0,0.0,0.0,0.0,0.0,0
0.44,run,0.06,3.59,-4.04,-0.03,-17.04,0.0,0.0,0.0,0.325,-9.49,19.34,84.2,-11.51,4.13,90.88,-6.68,16.0,82.71,12.3,3.16,90.79,-10.37,13.97,82.35,-13.18,3.87,89.12,-14.82,15.34,90.75,-17.47,-1.48,96.31,-15.0,16.59,88.12,17.91,-2.27,96.4,-15.18,7.61,87.75,-18.18,-1.74,95.43,-0.8654,-1.0,0.322,-1.0,0.2067,1.0,-1.0,-1.0,0.8928,1.0,-1.0,1.0,-1.0,-0.6103,1.0,-1.0,-1.0,0.6175,0.039,0.26,0.084,0.019,0.0,0.026,0.026,0.267,0.097,0.045,0.0,0.045,0.026,0.033,0.163,0.006,0.0,0.033,-0.1488,0.0307,0.0782,-0.1887,-0.1933,0.1963,-0.0951,-0.0276,0.0598,0.1933,-0.1963,0.1963,-0.1595,-0.0291,0.0491,-0.2071,-0.1963,0.181,-0.2403,0.1017,0.2049,-0.2884,-0.2639,0.2938,-0.2227,0.0203,0.0865,0.2854,-0.2699,0.3009,-0.2399,-0.0165,0.1411,-0.2959,-0.2716,0.289,-0.0057,-0.0229,-0.0454,0.0045,-0.3357,-1.0,-1.0,0.7266,-1.0,-0.8807,1.0,-1.0,1.0,0.5388,1.0,-1.0,1.0,-1.0,-1.0,1.0,-1.0,-1.0,1.0,0.0,0.0,0.0,0.0,0.0,0.0,0.0,0.0,0.0,0.0,0.0,0.0,0.0,0
0.48,run,-0.18,3.6,-6.52,-0.61,-15.76,0.0,0.0,0.0,0.325,-10.9,19.34,85.34,-13.01,2.9,92.37,-8.0,16.0,83.58,13.62,1.76,92.2,-11.78,12.48,83.58,-14.59,2.46,90.53,-16.32,13.84,89.25,-18.97,-2.98,94.81,-16.5,15.09,89.62,19.41,-3.77,97.9,-16.68,6.11,89.25,-19.68,-3.24,93.93,-0.9868,-1.0,0.0763,-1.0,0.0726,-1.0,-1.0,-1.0,0.6005,1.0,-1.0,1.0,-1.0,-0.9525,1.0,-1.0,-1.0,-0.9618,0.058,0.163,0.104,0.013,0.013,0.013,0.045,0.039,0.136,0.039,0.0,0.045,0.026,0.026,0.156,0.006,0.006,0.033,-0.1687,0.0307,0.0951,-0.2102,-0.2163,0.2194,-0.1166,-0.0276,0.069,0.2163,-0.2194,0.2163,-0.1779,-0.046,0.0629,-0.227,-0.2163,0.204,-0.2516,0.0712,0.214,-0.2918,-0.281,0.3019,-0.2457,0.0142,0.0991,0.296,-0.2852,0.2941,-0.2449,-0.0822,0.1565,-0.2905,-0.2735,0.2986,-0.0194,-0.0234,-0.0705,-0.0005,-0.2975,-0.8654,-1.0,0.322,-1.0,0.2067,1.0,-1.0,-1.0,0.8928,1.0,-1.0,1.0,-1.0,-0.6103,1.0,-1.0,-1.0,0.6175,0.0,0.0,0.0,0.0,0.0,0.0,0.0,0.0,0.0,0.0,0.0,0.0,0.0,0
0.52,run,-0.31,3.51,-3.0,-2.43,-21.49,0.0,0.0,0.0,0.325,-12.3,19.34,86.57,-14.5,1.58,93.78,-9.4,15.91,84.64,15.03,0.35,93.69,-13.1,10.99,84.81,-16.0,0.97,91.85,-17.82,12.34,87.75,-20.47,-3.06,93.31,-18.0,13.59,91.12,20.91,-5.27,99.4,-18.18,4.61,90.75,-18.18,-4.74,92.43,-1.0,-1.0,0.0468,-1.0,0.3988,-1.0,-1.0,-1.0,1.0,1.0,0.0443,1.0,-1.0,0.5248,1.0,1.0,-1.0,-1.0,0.058,0.163,0.104,0.013,0.013,0.013,0.045,0.039,0.136,0.039,0.0,0.045,0.026,0.026,0.156,0.006,0.006,0.033,-0.1933,0.0307,0.115,-0.2362,-0.2378,0.2454,-0.1396,-0.0276,0.0844,0.2393,-0.2439,0.2408,-0.2025,-0.0721,0.0844,-0.2516,-0.2408,0.2286,-0.2688,0.0498,0.2251,-0.3026,-0.2777,0.3097,-0.2588,0.0099,0.1272,0.294,-0.2922,0.2985,-0.2641,-0.1559,0.1906,-0.296,-0.2841,0.3016,-0.0403,-0.0233,-0.1138,-0.0107,-0.2751,-0.9868,-1.0,0.0763,-1.0,0.0726,-1.0,-1.0,-1.0,0.6005,1.0,-1.0,1.0,-1.0,-0.9525,1.0,-1.0,-1.0,-0.9618,0.0,0.0,0.0,0.0,0.0,0.0,0.0,0.0,0.0,0.0,0.0,0.0,0.0,0
0.56,run,-0.17,3.36,3.47,-3.67,-20.54,0.0,0.0,0.0,0.325,-13.71,19.34,87.54,-15.91,0.44,94.83,-10.81,15.03,85.78,16.44,-0.97,95.1,-14.41,9.67,86.13,-17.4,-0.35,92.99,-19.32,10.84,89.25,-21.97,-1.56,91.81,-19.5,15.09,92.62,22.41,-3.77,100.9,-19.68,3.11,92.25,-16.68,-6.24,90.93,-1.0,-1.0,0.4031,-1.0,0.7617,-1.0,-1.0,0.9505,1.0,1.0,0.5777,0.54,-1.0,0.3441,1.0,1.0,-1.0,-1.0,0.058,0.163,0.104,0.013,0.013,0.013,0.045,0.039,0.136,0.039,0.0,0.045,0.026,0.026,0.156,0.006,0.006,0.033,-0.2178,0.0307,0.1365,-0.2623,-0.2608,0.27,-0.1641,-0.0291,0.1028,0.2638,-0.2684,0.2669,-0.2255,-0.0982,0.1058,-0.2761,-0.2669,0.2516,-0.2793,0.0349,0.2374,-0.3087,-0.2799,0.308,-0.2724,0.0012,0.1575,0.297,-0.2958,0.3058,-0.2704,-0.206,0.2132,-0.2984,-0.2958,0.2966,-0.0516,-0.0304,-0.0523,-0.0424,-0.375,-1.0,-1.0,0.0468,-1.0,0.3988,-1.0,-1.0,-1.0,1.0,1.0,0.0443,1.0,-1.0,0.5248,1.0,1.0,-1.0,-1.0,0.0,0.0,0.0,0.0,0.0,0.0,0.0,0.0,0.0,0.0,0.0,0.0,0.0,0
0.6,run,-0.24,3.49,-2.03,1.85,-16.88,0.0,0.0,0.0,0.325,-15.12,18.9,88.24,-17.31,-0.79,95.54,-12.22,13.97,87.1,17.75,-2.29,96.5,-15.82,8.26,87.54,-18.46,-1.76,93.87,-20.82,9.34,90.75,-23.47,-3.06,90.31,-21.0,13.59,94.12,23.91,-2.27,99.4,-21.18,4.61,93.75,-15.18,-7.74,89.43,-0.891,-1.0,0.3969,-1.0,0.3261,-1.0,-1.0,-0.6413,1.0,1.0,1.0,-0.1929,-1.0,1.0,1.0,1.0,-1.0,-1.0,0.058,0.006,0.104,0.013,0.013,0.006,0.052,0.058,0.169,0.065,0.0,0.026,0.026,0.019,0.189,0.0,0.006,0.013,-0.2424,0.0307,0.1534,-0.2869,-0.2807,0.2884,-0.1887,-0.0445,0.1227,0.2884,-0.2915,0.2915,-0.2485,-0.1212,0.1289,-0.3007,-0.2899,0.2715,-0.2879,0.0244,0.2296,-0.3085,-0.271,0.2849,-0.283,-0.0568,0.1853,0.3003,-0.2936,0.3064,-0.2758,-0.2308,0.2358,-0.3012,-0.2936,0.2827,-0.0399,-0.0435,0.0605,-0.064,-0.3585,-1.0,-1.0,0.4031,-1.0,0.7617,-1.0,-1.0,0.9505,1.0,1.0,0.5777,0.54,-1.0,0.3441,1.0,1.0,-1.0,-1.0,0.0,0.0,0.0,0.0,0.0,0.0,0.0,0.0,0.0,0.0,0.0,0.0,0.0,0
0.64,run,-0.14,3.75,2.84,5.83,-17.55,0.0,0.0,0.0,0.325,-16.44,17.58,88.68,-18.98,-1.85,95.89,-13.54,13.45,88.33,19.16,-3.43,97.82,-17.14,6.86,88.86,-19.16,-3.16,94.39,-19.32,7.84,92.25,-24.97,-4.56,88.81,-22.5,15.09,95.62,25.41,-0.77,97.9,-22.68,3.11,95.25,-13.68,-9.24,87.93,0.2123,-1.0,0.7708,-1.0,0.3156,-1.0,-1.0,1.0,1.0,1.0,1.0,-1.0,-1.0,0.1705,1.0,1.0,-0.8822,-1.0,0.058,0.006,0.104,0.013,0.013,0.006,0.052,0.058,0.169,0.065,0.0,0.026,0.026,0.019,0.189,0.0,0.006,0.013,-0.2669,0.023,0.1657,-0.3114,-0.3022,0.3007,-0.2132,-0.0629,0.1457,0.3114,-0.3145,0.316,-0.273,-0.1457,0.1534,-0.3191,-0.3145,0.2869,-0.2935,-0.0117,0.2068,-0.3079,-0.2702,0.2454,-0.2901,-0.1088,0.216,0.2965,-0.2918,0.3065,-0.2851,-0.2536,0.2571,-0.2799,-0.2975,0.2554,-0.0453,-0.0328,-0.0354,0.0323,-0.2945,-0.891,-1.0,0.3969,-1.0,0.3261,-1.0,-1.0,-0.6413,1.0,1.0,1.0,-0.1929,-1.0,1.0,1.0,1.0,-1.0,-1.0,0.0,0.0,0.0,0.0,0.0,0.0,0.0,0.0,0.0,0.0,0.0,0.0,0.0,0
0.68,run,-0.12,4.0,0.79,6.04,-15.61,0.0,0.0,0.0,0.325,-17.75,16.26,88.95,-20.57,-2.55,95.98,-15.03,12.66,89.56,20.57,-4.31,98.79,-18.46,5.54,90.26,-19.6,-4.48,94.66,-17.82,6.34,93.75,-26.47,-6.06,87.31,-24.0,13.59,97.12,26.91,0.73,96.4,-24.18,4.61,96.75,-12.18,-10.74,86.43,1.0,-1.0,0.9426,-1.0,-0.0284,-0.3312,-1.0,-1.0,1.0,1.0,1.0,-1.0,-1.0,1.0,1.0,1.0,-0.1335,-1.0,0.058,0.006,0.104,0.013,0.013,0.006,0.052,0.058,0.169,0.065,0.0,0.026,0.026,0.019,0.189,0.0,0.006,0.013,-0.2899,0.0,0.1733,-0.3405,-0.3206,0.3068,-0.2362,-0.0721,0.1672,0.3359,-0.3344,0.339,-0.2961,-0.1703,0.1764,-0.3313,-0.339,0.2961,-0.2927,-0.0954,0.1738,-0.326,-0.2589,0.1951,-0.2903,-0.111,0.2325,0.3005,-0.2798,0.3018,-0.2868,-0.2705,0.2672,-0.2424,-0.3013,0.2136,-0.0372,-0.0102,0.0496,0.1017,-0.3063,0.2123,-1.0,0.7708,-1.0,0.3156,-1.0,-1.0,1.0,1.0,1.0,1.0,-1.0,-1.0,0.1705,1.0,1.0,-0.8822,-1.0,0.0,0.0,0.0,0.0,0.0,0.0,0.0,0.0,0.0,0.0,0.0,0.0,0.0,0
0.72,run,-0.11,4.4,1.15,10.52,-19.22,0.0,0.0,0.0,0.325,-18.9,14.94,89.38,-21.71,-3.43,95.54,-16.52,12.57,90.97,21.97,-4.83,99.58,-19.78,4.13,91.85,-19.69,-5.98,94.57,-16.32,4.84,95.25,-27.97,-7.56,88.81,-22.64,12.09,98.62,28.41,2.23,94.9,-25.68,5.01,95.25,-10.68,-9.24,84.93,1.0,-1.0,1.0,-1.0,-0.3447,0.381,-0.647,0.4727,1.0,1.0,1.0,-1.0,-1.0,0.5455,0.1767,1.0,1.0,-1.0,0.039,0.013,0.163,0.026,0.019,0.006,0.039,0.058,0.214,0.071,0.006,0.019,0.078,0.052,0.13,0.013,0.013,0.013,-0.3129,-0.023,0.1779,-0.3682,-0.3329,0.3083,-0.2623,-0.0859,0.1887,0.3605,-0.3497,0.3559,-0.3191,-0.1933,0.201,-0.339,-0.362,0.3007,-0.2903,-0.1522,0.1387,-0.3308,-0.2268,0.1422,-0.3,-0.129,0.2425,0.3015,-0.2529,0.2739,-0.2862,-0.2748,0.2782,-0.1982,-0.2964,0.1666,-0.0348,0.0121,0.0139,0.1055,-0.2724,1.0,-1.0,0.9426,-1.0,-0.0284,-0.3312,-1.0,-1.0,1.0,1.0,1.0,-1.0,-1.0,1.0,1.0,1.0,-0.1335,-1.0,0.0,0.0,0.0,0.0,0.0,0.0,0.0,0.0,0.0,0.0,0.0,0.0,0.0,0
0.76,run,0.4,4.9,11.01,9.58,-8.32,0.0,0.0,0.0,0.325,-19.86,13.1,90.44,-22.94,-4.75,94.31,-18.28,12.39,92.55,23.73,-4.92,100.11,-21.53,2.99,93.52,-19.07,-7.38,93.87,-14.82,3.34,96.75,-29.47,-6.06,90.31,-21.14,10.59,100.12,26.91,3.73,93.4,-27.18,6.51,93.75,-9.18,-7.74,83.43,0.4909,-0.3875,1.0,-1.0,0.9542,0.827,0.2405,-1.0,1.0,0.4413,0.7394,-1.0,-1.0,0.5967,-0.4969,1.0,1.0,-1.0,0.039,0.013,0.163,0.026,0.019,0.006,0.039,0.058,0.214,0.071,0.006,0.019,0.078,0.052,0.13,0.013,0.013,0.013,-0.3329,-0.046,0.1856,-0.3881,-0.3482,0.3007,-0.2884,-0.0874,0.2132,0.385,-0.359,0.3697,-0.3421,-0.2178,0.2286,-0.3405,-0.3881,0.2991,-0.2779,-0.1927,0.1258,-0.3062,-0.2162,0.0709,-0.3077,-0.096,0.2617,0.3029,-0.2114,0.2434,-0.2865,-0.2842,0.2981,-0.1445,-0.3051,0.1109,-0.0344,0.047,0.02,0.1835,-0.3354,1.0,-1.0,1.0,-1.0,-0.3447,0.381,-0.647,0.4727,1.0,1.0,1.0,-1.0,-1.0,0.5455,0.1767,1.0,1.0,-1.0,0.0,0.0,0.0,0.0,0.0,0.0,0.0,0.0,0.0,0.0,0.0,0.0,0.0,0
0.8,run,0.41,5.26,2.01,9.84,-12.04,0.0,0.0,0.0,0.325,-20.39,11.78,91.41,-24.61,-5.8,93.25,-19.51,11.51,93.87,25.14,-4.83,99.76,-22.94,2.46,94.57,-18.28,-8.17,93.08,-13.32,1.84,98.25,-30.97,-7.56,88.81,-19.64,9.09,101.62,25.41,5.23,91.9,-28.68,8.01,92.25,-7.68,-6.24,81.93,0.946,-0.8447,1.0,-1.0,-0.7632,-1.0,-0.2316,-1.0,1.0,0.2549,1.0,-0.0982,-1.0,1.0,-1.0,1.0,1.0,-1.0,0.039,0.013,0.163,0.026,0.019,0.006,0.039,0.058,0.214,0.071,0.006,0.019,0.078,0.052,0.13,0.013,0.013,0.013,-0.3497,-0.0782,0.204,-0.4096,-0.3712,0.2792,-0.3191,-0.0905,0.2408,0.4157,-0.3605,0.3789,-0.3728,-0.2378,0.2577,-0.3298,-0.4126,0.2869,-0.2439,-0.2291,0.1419,-0.2771,-0.2186,-0.0132,-0.3051,-0.0762,0.2639,0.3018,-0.1525,0.1973,-0.2902,-0.2573,0.2939,-0.0697,-0.2853,0.0418,0.0099,0.0907,0.1921,0.1671,-0.1452,0.4909,-0.3875,1.0,-1.0,0.9542,0.827,0.2405,-1.0,1.0,0.4413,0.7394,-1.0,-1.0,0.5967,-0.4969,1.0,1.0,-1.0,0.0,0.0,0.0,0.0,0.0,0.0,0.0,0.0,0.0,0.0,0.0,0.0,0.0,0
0.84,run,0.61,5.57,5.74,8.01,0.48,0.0,0.0,0.0,0.325,-20.39,10.37,92.64,-26.1,-6.5,91.93,-20.48,10.28,95.27,26.28,-4.22,99.4,-24.35,2.2,95.27,-17.23,-9.14,91.85,-14.82,0.34,99.75,-32.47,-6.06,90.31,-18.14,7.59,103.12,23.91,6.73,90.4,-30.18,6.51,90.75,-6.18,-4.74,80.43,-1.0,-0.5491,1.0,-1.0,1.0,1.0,0.206,-0.7839,1.0,0.1434,0.6227,-1.0,-1.0,0.543,-0.0386,1.0,1.0,-1.0,0.0,0.0,0.169,0.019,0.006,0.0,0.045,0.039,0.221,0.026,0.052,0.006,0.065,0.149,0.058,0.033,0.0,0.006,-0.359,-0.1012,0.2209,-0.4387,-0.3896,0.2608,-0.3405,-0.1058,0.2638,0.4403,-0.359,0.3728,-0.3973,-0.247,0.2761,-0.316,-0.4264,0.273,-0.2048,-0.2456,0.1619,-0.302,-0.2212,-0.0775,-0.2931,-0.1102,0.27,0.3022,-0.1011,0.1154,-0.2941,-0.2142,0.2739,0.0024,-0.2509,-0.0219,0.0111,0.122,0.0351,0.1717,-0.2101,0.946,-0.8447,1.0,-1.0,-0.7632,-1.0,-0.2316,-1.0,1.0,0.2549,1.0,-0.0982,-1.0,1.0,-1.0,1.0,1.0,-1.0,0.0,0.0,0.0,0.0,0.0,0.0,0.0,0.0,0.0,0.0,0.0,0.0,0.0,0
0.88,run,1.11,5.89,9.11,6.16,3.25,0.0,0.0,0.0,0.325,-20.13,8.35,94.39,-28.12,-7.12,90.62,-21.27,8.79,97.29,27.42,-2.9,98.17,-26.1,2.2,95.62,-15.56,-9.67,90.0,-15.45,-1.16,101.25,-33.97,-4.56,88.81,-16.64,6.09,104.62,22.41,5.23,88.9,-31.68,5.01,89.25,-4.68,-3.24,78.93,-0.4413,-1.0,1.0,-1.0,1.0,-1.0,1.0,-1.0,1.0,0.4181,-0.4742,0.1724,-1.0,-0.9481,-0.0063,1.0,1.0,-1.0,0.0,0.0,0.169,0.019,0.006,0.0,0.045,0.039,0.221,0.026,0.052,0.006,0.065,0.149,0.058,0.033,0.0,0.006,-0.359,-0.1258,0.2424,-0.4648,-0.4019,0.2378,-0.3574,-0.1273,0.2884,0.4602,-0.3482,0.3666,-0.4218,-0.2516,0.2884,-0.2976,-0.4433,0.2516,-0.1434,-0.2641,0.1939,-0.3093,-0.2009,-0.1406,-0.2685,-0.1577,0.2811,0.2864,-0.0304,0.0577,-0.298,-0.1672,0.2378,0.0707,-0.239,-0.096,0.0284,0.149,0.1002,0.1398,0.0083,-1.0,-0.5491,1.0,-1.0,1.0,1.0,0.206,-0.7839,1.0,0.1434,0.6227,-1.0,-1.0,0.543,-0.0386,1.0,1.0,-1.0,0.0,0.0,0.0,0.0,0.0,0.0,0.0,0.0,0.0,0.0,0.0,0.0,0.0,0
0.92,run,1.51,6.06,10.86,5.92,8.65,0.0,0.0,0.0,0.325,-19.07,6.94,95.62,-29.36,-7.56,89.91,-21.62,7.65,98.61,27.86,-1.67,96.94,-27.42,2.29,95.71,-14.15,-9.67,88.77,-16.95,-2.66,102.75,-35.0,-6.06,87.31,-15.14,4.59,106.12,20.91,6.73,90.4,-33.18,6.51,90.75,-3.18,-1.74,77.43,-1.0,-0.4254,1.0,-1.0,-0.0388,-1.0,0.9362,-1.0,1.0,-0.7063,0.75,1.0,-1.0,1.0,0.5947,1.0,1.0,-1.0,0.0,0.0,0.169,0.019,0.006,0.0,0.045,0.039,0.221,0.026,0.052,0.006,0.065,0.149,0.058,0.033,0.0,0.006,-0.3543,-0.1611,0.273,-0.5001,-0.4126,0.2148,-0.3712,-0.1534,0.3237,0.4801,-0.3252,0.3451,-0.4525,-0.2516,0.2945,-0.2684,-0.4525,0.2194,-0.0876,-0.2823,0.2205,-0.3139,-0.1703,-0.162,-0.2261,-0.1824,0.2942,0.2555,0.0422,-0.0189,-0.2933,-0.1171,0.1834,0.13,-0.1927,-0.1561,0.0721,0.1767,0.159,0.1075,0.0568,-0.4413,-1.0,1.0,-1.0,1.0,-1.0,1.0,-1.0,1.0,0.4181,-0.4742,0.1724,-1.0,-0.9481,-0.0063,1.0,1.0,-1.0,0.0,0.0,0.0,0.0,0.0,0.0,0.0,0.0,0.0,0.0,0.0,0.0,0.0,0
0.96,run,1.96,6.21,11.02,4.35,7.65,0.0,0.0,0.0,0.325,-18.11,5.54,97.03,-30.76,-7.29,88.95,-21.62,6.33,100.11,27.95,-0.53,95.71,-28.83,3.08,94.83,-13.01,-9.32,87.45,-18.45,-4.16,104.25,-35.0,-4.56,85.81,-13.64,3.09,107.62,19.41,5.23,91.9,-34.68,5.01,89.25,-1.68,-0.24,75.93,-1.0,-1.0,1.0,-1.0,0.9874,-1.0,1.0,-1.0,1.0,-1.0,0.1594,1.0,-1.0,-0.2418,-1.0,1.0,1.0,-1.0,0.013,0.0,0.136,0.026,0.013,0.006,0.0,0.052,0.208,0.0,0.052,0.0,0.058,0.292,0.0,0.033,0.013,0.013,-0.3359,-0.1856,0.2945,-0.5216,-0.4203,0.2025,-0.3774,-0.1733,0.3467,0.4878,-0.3037,0.3237,-0.4755,-0.25,0.2961,-0.2439,-0.4525,0.1979,0.0072,-0.289,0.2343,-0.2997,-0.1478,-0.1591,-0.1811,-0.202,0.2917,0.2074,0.1096,-0.0932,-0.291,-0.0762,0.1341,0.1824,-0.1349,-0.1893,0.1072,0.1922,0.1895,0.1033,0.151,-1.0,-0.4254,1.0,-1.0,-0.0388,-1.0,0.9362,-1.0,1.0,-0.7063,0.75,1.0,-1.0,1.0,0.5947,1.0,1.0,-1.0,0.0,0.0,0.0,0.0,0.0,0.0,0.0,0.0,0.0,0.0,0.0,0.0,0.0,0
1.0,run,2.34,6.32,9.16,3.19,1.85,0.0,0.0,0.0,0.325,-17.49,4.31,98.44,-31.99,-6.59,87.8,-21.62,5.01,101.51,27.51,0.7,94.48,-30.32,3.96,93.96,-11.78,-8.88,86.22,-19.95,-5.66,105.75,-35.0,-3.06,84.31,-12.14,1.59,109.12,17.91,3.73,93.4,-35.0,3.51,90.75,-0.18,1.26,74.43,-1.0,-1.0,1.0,-1.0,1.0,-1.0,1.0,-1.0,1.0,-1.0,0.3306,1.0,-1.0,0.1578,0.4428,1.0,1.0,-1.0,0.013,0.0,0.136,0.026,0.013,0.006,0.0,0.052,0.208,0.0,0.052,0.0,0.058,0.292,0.0,0.033,0.013,0.013,-0.3191,-0.2102,0.3191,-0.5461,-0.4157,0.1856,-0.3774,-0.1963,0.3728,0.4893,-0.2838,0.3022,-0.5001,-0.2362,0.2807,-0.224,-0.4464,0.1749,0.0677,-0.2935,0.2552,-0.301,-0.0864,-0.174,-0.1268,-0.2269,0.301,0.1509,0.1508,-0.145,-0.2949,-0.0021,0.0369,0.2018,-0.0716,-0.218,0.1461,0.2053,0.1923,0.0759,0.1335,-1.0,-1.0,1.0,-1.0,0.9874,-1.0,1.0,-1.0,1.0,-1.0,0.1594,1.0,-1.0,-0.2418,-1.0,1.0,1.0,-1.0,0.0,0.0,0.0,0.0,0.0,0.0,0.0,0.0,0.0,0.0,0.0,0.0,0.0,0
1.04,run,2.68,6.34,8.5,0.39,-3.07,0.0,0.002,0.0,0.325,-16.96,2.9,99.84,-32.96,-5.98,86.75,-21.09,3.87,103.01,26.81,1.93,93.34,-31.73,4.75,92.99,-10.55,-7.65,84.99,-21.45,-7.16,107.25,-35.0,-1.56,82.81,-10.64,0.09,110.62,16.41,2.23,94.9,-35.0,2.01,89.25,1.32,2.76,72.93,-1.0,-1.0,1.0,-1.0,0.9531,-1.0,1.0,-1.0,1.0,-1.0,-0.1363,1.0,-1.0,-1.0,-0.7705,1.0,1.0,-1.0,0.013,0.0,0.136,0.026,0.013,0.006,0.0,0.052,0.208,0.0,0.052,0.0,0.058,0.292,0.0,0.033,0.013,0.013,-0.3083,-0.2316,0.3436,-0.5676,-0.4034,0.1657,-0.3774,-0.2194,0.3973,0.4817,-0.2623,0.2807,-0.5262,-0.2209,0.2654,-0.2025,-0.4387,0.1534,0.0881,-0.2868,0.2716,-0.292,-0.014,-0.1973,-0.0887,-0.2459,0.3037,0.0766,0.1869,-0.1828,-0.3052,0.0566,-0.0323,0.2226,-0.0211,-0.2339,0.1791,0.2142,0.1599,0.0558,0.0323,-1.0,-1.0,1.0,-1.0,1.0,-1.0,1.0,-1.0,1.0,-1.0,0.3306,1.0,-1.0,0.1578,0.4428,1.0,1.0,-1.0,0.0,0.0,0.0,0.0,0.0,0.0,0.0,0.0,0.0,0.0133,0.0,0.0133,0.0,0
1.08,run,3.1,6.29,10.08,0.06,1.45,0.0,0.004,0.0,0.325,-16.52,1.58,101.16,-33.75,-5.01,85.52,-20.39,2.9,104.5,25.84,2.9,92.37,-32.87,5.36,91.67,-9.58,-6.5,83.94,-22.95,-8.66,108.75,-35.0,-0.06,81.31,-9.14,-1.41,112.12,14.91,0.73,96.4,-35.0,0.51,90.75,2.82,4.26,71.43,-1.0,-1.0,1.0,-1.0,1.0,-0.4876,1.0,-1.0,1.0,-1.0,0.0469,1.0,-1.0,-1.0,0.5244,1.0,1.0,-1.0,0.013,0.0,0.143,0.019,0.045,0.006,0.019,0.0,0.111,0.006,0.045,0.006,0.039,0.149,0.006,0.052,0.026,0.013,-0.2991,-0.2562,0.3682,-0.5844,-0.3927,0.1473,-0.3682,-0.2393,0.4234,0.4694,-0.2408,0.2608,-0.5507,-0.2071,0.2485,-0.181,-0.4172,0.1319,0.0962,-0.2928,0.2822,-0.2677,0.0305,-0.2072,-0.0276,-0.247,0.3104,0.0076,0.2114,-0.2028,-0.3057,0.0915,-0.0859,0.2364,0.0658,-0.2443,0.2092,0.2165,0.1484,0.0069,-0.0536,-1.0,-1.0,1.0,-1.0,0.9531,-1.0,1.0,-1.0,1.0,-1.0,-0.1363,1.0,-1.0,-1.0,-0.7705,1.0,1.0,-1.0,0.0,0.0,0.0,0.0,0.0,0.0,0.0,0.0,0.0,0.0267,0.0,0.0267,0.0,0
1.12,run,3.59,5.99,12.26,-8.51,7.64,0.0,0.006,0.0,0.325,-16.26,0.18,102.66,-34.1,-4.04,84.29,-19.16,1.23,106.08,24.61,3.6,91.67,-33.66,5.98,90.88,-8.44,-5.36,82.71,-24.45,-10.16,110.25,-35.0,-1.56,79.81,-7.64,-2.91,113.62,13.41,-0.77,97.9,-35.0,-0.99,89.25,4.32,5.76,69.93,-1.0,-1.0,1.0,-1.0,0.3344,-0.4545,1.0,-1.0,1.0,-1.0,0.1252,1.0,-1.0,-1.0,-0.5007,1.0,1.0,-0.3528,0.013,0.0,0.143,0.019,0.045,0.006,0.019,0.0,0.111,0.006,0.045,0.006,0.039,0.149,0.006,0.052,0.026,0.013,-0.2915,-0.2792,0.3912,-0.5983,-0.3758,0.1258,-0.3559,-0.2562,0.4495,0.4525,-0.224,0.2439,-0.5706,-0.1963,0.2255,-0.1641,-0.3973,0.1135,0.0962,-0.2914,0.284,-0.2393,0.0848,-0.2257,0.0268,-0.2363,0.3153,-0.0581,0.2114,-0.2054,-0.2889,0.1044,-0.1466,0.2289,0.121,-0.2402,0.246,0.2123,0.176,0.001,0.0252,-1.0,-1.0,1.0,-1.0,1.0,-0.4876,1.0,-1.0,1.0,-1.0,0.0469,1.0,-1.0,-1.0,0.5244,1.0,1.0,-1.0,0.0,0.0,0.0,0.0,0.0,0.0,0.0,0.0,0.0,0.04,0.0,0.04,0.0,0
1.16,run,3.78,5.93,5.67,-2.22,5.6,0.0,0.008,0.0,0.325,-16.26,-1.14,104.06,-34.28,-3.08,83.06,-17.93,0.18,107.49,23.38,4.13,91.23,-34.28,6.33,90.09,-7.29,-4.31,81.56,-25.95,-11.66,111.75,-33.5,-3.06,81.31,-6.14,-4.41,115.12,11.91,0.73,99.4,-35.0,-2.49,87.75,5.82,7.26,71.43,-1.0,-1.0,1.0,1.0,-0.5875,1.0,1.0,-1.0,1.0,-1.0,1.0,1.0,-1.0,-1.0,-0.5641,1.0,1.0,1.0,0.013,0.0,0.143,0.019,0.045,0.006,0.019,0.0,0.111,0.006,0.045,0.006,0.039,0.149,0.006,0.052,0.026,0.013,-0.2869,-0.3037,0.4172,-0.6044,-0.359,0.1043,-0.3344,-0.2853,0.4771,0.431,-0.2117,0.2316,-0.5844,-0.1856,0.2117,-0.1442,-0.3774,0.092,0.0845,-0.2959,0.2964,-0.1905,0.1225,-0.2384,0.0992,-0.2745,0.3241,-0.1211,0.1939,-0.1897,-0.2539,0.1133,-0.1543,0.2349,0.1594,-0.2485,0.2887,0.1861,0.214,-0.1486,0.1334,-1.0,-1.0,1.0,-1.0,0.3344,-0.4545,1.0,-1.0,1.0,-1.0,0.1252,1.0,-1.0,-1.0,-0.5007,1.0,1.0,-0.3528,0.0,0.0,0.0,0.0,0.0,0.0,0.0,0.0,0.0,0.0533,0.0,0.0533,0.0,0
1.2,run,4.01,5.75,6.66,-4.73,8.08,0.0,0.01,0.0,0.325,-16.44,-2.37,105.56,-34.19,-2.2,82.09,-16.79,-1.41,108.9,22.32,4.66,90.7,-34.45,6.59,89.12,-6.15,-3.34,80.16,-27.45,-13.16,110.25,-32.0,-4.56,82.81,-4.64,-5.91,116.62,10.41,-0.77,97.9,-35.0,-3.99,89.25,4.32,8.76,72.93,-1.0,-1.0,-0.6917,1.0,0.0147,1.0,1.0,-1.0,1.0,-1.0,-1.0,-1.0,-1.0,-1.0,0.4469,-1.0,1.0,1.0,0.013,0.0,0.091,0.006,0.052,0.0,0.026,0.013,0.104,0.019,0.065,0.0,0.019,0.039,0.0,0.058,0.058,0.026,-0.2869,-0.3267,0.4418,-0.6075,-0.3421,0.0828,-0.3129,-0.3037,0.5016,0.4096,-0.2025,0.224,-0.5952,-0.1795,0.1979,-0.1243,-0.359,0.0721,0.0592,-0.2939,0.3,-0.1449,0.1494,-0.2479,0.1504,-0.2616,0.3194,-0.1657,0.1704,-0.1617,-0.2182,0.1024,-0.1601,0.2396,0.1809,-0.2491,0.3052,0.1802,0.099,-0.0388,0.0977,-1.0,-1.0,1.0,1.0,-0.5875,1.0,1.0,-1.0,1.0,-1.0,1.0,1.0,-1.0,-1.0,-0.5641,1.0,1.0,1.0,0.0,0.0,0.0,0.0,0.0,0.0,0.0,0.0,0.0,0.0667,0.0,0.0667,0.0,0
1.24,run,4.09,5.55,2.79,-5.71,12.85,0.0,0.012,0.0,0.325,-17.05,-3.78,107.05,-33.84,-1.49,81.56,-15.64,-2.64,110.3,21.18,4.92,90.62,-34.54,6.68,88.15,-5.1,-2.37,78.93,-28.95,-14.66,108.75,-30.5,-6.06,84.31,-3.14,-7.41,118.12,8.91,-2.27,99.4,-35.0,-5.49,87.75,2.82,10.26,74.43,-1.0,-1.0,-0.5937,1.0,-1.0,1.0,1.0,-1.0,1.0,-1.0,-1.0,0.7721,-1.0,-1.0,-0.0554,-1.0,1.0,1.0,0.013,0.0,0.091,0.006,0.052,0.0,0.026,0.013,0.104,0.019,0.065,0.0,0.019,0.039,0.0,0.058,0.058,0.026,-0.2899,-0.3482,0.4679,-0.6059,-0.3267,0.066,-0.293,-0.3313,0.5262,0.3912,-0.1933,0.2148,-0.5983,-0.1749,0.181,-0.1043,-0.3421,0.0476,0.03,-0.2854,0.3068,-0.0957,0.1615,-0.2361,0.1792,-0.2855,0.3146,-0.1843,0.1535,-0.1473,-0.1642,0.0888,-0.1746,0.2417,0.1893,-0.2655,0.3249,0.1644,0.1163,-0.0825,0.141,-1.0,-1.0,-0.6917,1.0,0.0147,1.0,1.0,-1.0,1.0,-1.0,-1.0,-1.0,-1.0,-1.0,0.4469,-1.0,1.0,1.0,0.0,0.0,0.0,0.0,0.0,0.0,0.0,0.0,0.0,0.08,0.0,0.08,0.0,0
1.28,run,4.17,5.05,2.87,-14.19,10.67,0.0,0.014,0.0,0.325,-17.75,-5.01,108.28,-33.05,-1.14,81.21,-14.33,-4.22,111.71,19.95,4.92,90.62,-34.54,6.33,87.71,-3.78,-0.97,77.61,-30.45,-16.16,107.25,-29.0,-7.56,85.81,-1.64,-8.91,119.62,7.41,-3.77,97.9,-35.0,-6.99,89.25,1.32,11.76,75.93,-1.0,-1.0,-0.5098,1.0,-1.0,1.0,1.0,-1.0,1.0,-1.0,-0.698,-0.6732,-1.0,-1.0,0.7647,-1.0,1.0,1.0,0.013,0.0,0.091,0.006,0.052,0.0,0.026,0.013,0.104,0.019,0.065,0.0,0.019,0.039,0.0,0.058,0.058,0.026,-0.3007,-0.3728,0.4939,-0.5998,-0.3145,0.0568,-0.273,-0.3528,0.5507,0.3712,-0.1887,0.2132,-0.5998,-0.1733,0.1641,-0.0859,-0.3252,0.0261,-0.0192,-0.2917,0.3124,-0.044,0.159,-0.1997,0.2002,-0.2803,0.3122,-0.2037,0.1247,-0.1089,-0.1207,0.0679,-0.1854,0.2381,0.1957,-0.2663,0.3326,0.1477,0.0486,-0.0996,0.2243,-1.0,-1.0,-0.5937,1.0,-1.0,1.0,1.0,-1.0,1.0,-1.0,-1.0,0.7721,-1.0,-1.0,-0.0554,-1.0,1.0,1.0,0.0,0.0,0.0,0.0,0.0,0.0,0.0,0.0,0.0,0.0933,0.0,0.0933,0.0,0
1.32,run,4.5,4.84,6.89,-5.48,10.69,0.0,0.016,0.0,0.325,-18.9,-6.24,109.25,-31.99,-0.97,81.21,-12.92,-5.45,113.2,18.81,4.75,91.14,-34.54,5.45,87.45,-2.46,0.53,76.46,-31.95,-17.66,105.75,-27.5,-9.06,87.31,-0.14,-10.41,121.12,5.91,-5.27,96.4,-35.0,-8.49,90.49,-0.18,13.26,77.43,-1.0,-1.0,-1.0,1.0,-1.0,1.0,1.0,-1.0,1.0,-1.0,-0.2813,-0.2718,-1.0,-1.0,0.2999,-1.0,1.0,1.0,0.026,0.0,0.033,0.019,0.013,0.026,0.039,0.0,0.091,0.071,0.0,0.071,0.019,0.006,0.019,0.136,0.052,0.026,-0.3129,-0.3942,0.5154,-0.586,-0.3083,0.0506,-0.25,-0.3804,0.5752,0.3497,-0.1887,0.2132,-0.5998,-0.1795,0.1565,-0.0629,-0.3007,0.0031,-0.0594,-0.2847,0.2992,0.0209,0.1343,-0.1628,0.2263,-0.2997,0.3105,-0.2231,0.0873,-0.0762,-0.0845,0.0245,-0.1586,0.2529,0.229,-0.2726,0.3394,0.104,0.0501,-0.2476,0.1863,-1.0,-1.0,-0.5098,1.0,-1.0,1.0,1.0,-1.0,1.0,-1.0,-0.698,-0.6732,-1.0,-1.0,0.7647,-1.0,1.0,1.0,0.0,0.0,0.0,0.0,0.0,0.0,0.0,0.0,0.0,0.1067,0.0,0.1067,0.0,0
1.36,run,4.64,4.44,2.53,-10.58,17.83,0.0,0.018,0.0,0.325,-20.21,-7.56,109.86,-30.76,-0.97,81.56,-11.6,-6.68,114.7,17.49,4.04,91.85,-34.54,4.31,87.71,-1.32,1.85,75.59,-33.45,-19.16,104.25,-26.0,-10.56,88.81,1.36,-11.91,122.62,4.41,-6.77,94.9,-35.0,-9.99,91.99,-1.68,14.76,78.93,-1.0,-1.0,-1.0,1.0,-1.0,1.0,1.0,-1.0,1.0,-1.0,-0.452,-1.0,-1.0,-1.0,1.0,-1.0,0.8027,1.0,0.026,0.0,0.033,0.019,0.013,0.026,0.039,0.0,0.091,0.071,0.0,0.071,0.019,0.006,0.019,0.136,0.052,0.026,-0.3329,-0.4157,0.5323,-0.5676,-0.3053,0.0506,-0.2255,-0.4019,0.6013,0.3298,-0.1917,0.2224,-0.5998,-0.1948,0.1519,-0.0399,-0.2746,-0.0169,-0.1165,-0.2799,0.2728,0.0838,0.1055,-0.114,0.2506,-0.2904,0.3153,-0.231,0.0496,-0.0188,-0.0591,-0.0404,-0.1283,0.2635,0.2582,-0.2657,0.3681,0.0852,0.1203,-0.0957,0.1866,-1.0,-1.0,-1.0,1.0,-1.0,1.0,1.0,-1.0,1.0,-1.0,-0.2813,-0.2718,-1.0,-1.0,0.2999,-1.0,1.0,1.0,0.0,0.0,0.0,0.0,0.0,0.0,0.0,0.0,0.0,0.12,0.0,0.12,0.0,0
1.4,run,4.65,4.13,1.31,-8.22,23.98,0.0,0.02,0.0,0.325,-21.8,-8.96,110.21,-29.53,-1.32,82.35,-10.11,-8.35,116.28,15.91,2.81,93.08,-34.54,2.81,88.42,-0.35,3.25,74.97,-34.95,-20.66,102.75,-24.5,-12.06,90.31,2.86,-13.41,124.12,2.91,-8.27,93.4,-35.0,-11.49,93.49,-3.18,13.26,80.43,-1.0,-1.0,-1.0,1.0,-1.0,1.0,1.0,-1.0,1.0,-1.0,0.0043,-0.4271,-1.0,-1.0,0.7934,-1.0,-0.0185,1.0,0.026,0.0,0.033,0.019,0.013,0.026,0.039,0.0,0.091,0.071,0.0,0.071,0.019,0.006,0.019,0.136,0.052,0.026,-0.3559,-0.4387,0.543,-0.5461,-0.3053,0.0568,-0.2025,-0.4234,0.6274,0.3068,-0.204,0.2347,-0.5998,-0.2148,0.1565,-0.0199,-0.2516,-0.0322,-0.168,-0.2824,0.2313,0.1393,0.0739,-0.0567,0.2619,-0.284,0.3187,-0.2482,-0.0114,0.033,-0.0414,-0.1032,-0.0725,0.2594,0.2672,-0.2436,0.3802,0.0506,0.0441,-0.1847,0.3111,-1.0,-1.0,-1.0,1.0,-1.0,1.0,1.0,-1.0,1.0,-1.0,-0.452,-1.0,-1.0,-1.0,1.0,-1.0,0.8027,1.0,0.0,0.0,0.0,0.0,0.0,0.0,0.0,0.0,0.0,0.1333,0.0,0.1333,0.0,0
1.44,run,4.7,3.93,2.82,-5.7,18.93,0.0,0.022,0.0,0.325,-23.12,-10.2,110.21,-28.65,-2.11,83.23,-8.79,-9.67,117.6,14.77,1.49,93.87,-34.54,1.58,89.21,0.26,4.39,74.62,-35.0,-22.16,101.25,-23.0,-13.56,91.81,4.36,-14.91,125.62,1.41,-6.77,91.9,-35.0,-12.99,94.99,-4.68,11.76,81.93,-1.0,-1.0,-1.0,1.0,-1.0,1.0,1.0,-1.0,1.0,-1.0,0.401,-0.6272,-1.0,-1.0,1.0,-1.0,-0.6571,1.0,0.019,0.0,0.0,0.033,0.0,0.078,0.045,0.006,0.065,0.143,0.0,0.026,0.019,0.013,0.019,0.026,0.091,0.0,-0.3835,-0.4633,0.5492,-0.5246,-0.3114,0.0706,-0.1764,-0.4525,0.655,0.2792,-0.2255,0.2562,-0.5998,-0.2408,0.1687,-0.0031,-0.227,-0.043,-0.2139,-0.2832,0.1833,0.1724,0.0303,0.0084,0.2742,-0.3004,0.3193,-0.27,-0.0829,0.0979,-0.029,-0.1632,-0.008,0.2404,0.2726,-0.208,0.3813,0.0237,0.0229,-0.1436,0.4185,-1.0,-1.0,-1.0,1.0,-1.0,1.0,1.0,-1.0,1.0,-1.0,0.0043,-0.4271,-1.0,-1.0,0.7934,-1.0,-0.0185,1.0,0.0,0.0,0.0,0.0,0.0,0.0,0.0,0.0,0.0,0.1467,0.0,0.1467,0.0,0
1.48,run,4.33,4.12,-2.32,1.39,6.93,0.0,0.024,0.0,0.325,-28.65,-14.77,106.88,-24.26,-7.29,88.77,-3.52,-14.41,123.05,9.23,-3.6,93.87,-34.63,-3.69,93.78,-0.7,8.35,76.46,-35.0,-23.66,99.75,-21.5,-15.06,93.31,5.86,-16.41,127.12,-0.09,-5.27,90.4,-35.0,-14.49,96.49,-6.18,10.26,83.43,-1.0,-1.0,-1.0,1.0,-1.0,1.0,1.0,-1.0,1.0,-1.0,0.5748,-0.2129,-1.0,-1.0,1.0,-1.0,-0.8176,1.0,0.013,0.033,0.013,0.019,0.0,0.019,0.033,0.013,0.026,0.045,0.0,0.006,0.013,0.013,0.006,0.013,0.189,0.006,-0.4065,-0.4847,0.5492,-0.5093,-0.3252,0.0859,-0.1534,-0.4755,0.678,0.2592,-0.2485,0.27,-0.5998,-0.2623,0.1825,0.0077,-0.2071,-0.0491,-0.2433,-0.2857,0.1283,0.1831,-0.035,0.0683,0.2856,-0.3039,0.3172,-0.2701,-0.1516,0.1247,-0.0203,-0.2016,0.0506,0.212,0.272,-0.1706,0.3858,0.0062,0.0492,-0.0995,0.3305,-1.0,-1.0,-1.0,1.0,-1.0,1.0,1.0,-1.0,1.0,-1.0,0.401,-0.6272,-1.0,-1.0,1.0,-1.0,-0.6571,1.0,0.0,0.0,0.0,0.0,0.0,0.0,0.0,0.0,0.0,0.16,0.0,0.16,0.0,0
1.52,run,4.37,4.27,0.48,4.33,7.37,0.0,0.026,0.0,0.325,-30.15,-16.26,105.47,-23.73,-8.61,90.0,-2.02,-15.03,124.01,7.65,-4.83,93.08,-34.8,-5.27,94.48,-1.67,8.88,77.96,-35.0,-22.16,98.25,-20.0,-16.56,94.81,7.36,-17.91,128.62,-1.59,-6.77,88.9,-33.5,-15.99,97.99,-7.68,8.76,84.93,-1.0,0.2351,-1.0,1.0,-1.0,1.0,1.0,-1.0,1.0,-1.0,-0.1156,0.0468,-0.036,-1.0,1.0,-1.0,-1.0,1.0,0.013,0.033,0.013,0.019,0.0,0.019,0.033,0.013,0.026,0.045,0.0,0.006,0.013,0.013,0.006,0.013,0.189,0.006,-0.5031,-0.5645,0.4909,-0.4326,-0.4157,0.1825,-0.0614,-0.5584,0.7731,0.1626,-0.3375,0.27,-0.6013,-0.3543,0.2623,-0.0092,-0.1381,-0.0169,-0.2654,-0.2784,0.0325,0.2036,-0.1135,0.1429,0.2905,-0.2942,0.3156,-0.2842,-0.1937,0.0873,-0.0157,-0.2317,0.1139,0.1318,0.2583,-0.0877,0.3531,0.0225,-0.0405,0.0243,0.121,-1.0,-1.0,-1.0,1.0,-1.0,1.0,1.0,-1.0,1.0,-1.0,0.5748,-0.2129,-1.0,-1.0,1.0,-1.0,-0.8176,1.0,0.0,0.0,0.0,0.0,0.0,0.0,0.0,0.0,0.0,0.1733,0.0,0.1733,0.0,0
1.56,run,3.97,3.85,-9.05,-8.3,4.25,0.0,0.028,0.0,0.325,-31.55,-17.75,104.15,-23.2,-9.93,91.32,-0.62,-16.35,125.07,6.06,-5.71,91.85,-34.72,-6.59,95.45,-3.16,9.05,79.28,-35.0,-20.66,96.75,-18.5,-18.06,96.31,8.86,-19.41,130.12,-3.09,-8.27,90.4,-32.0,-17.49,99.49,-9.18,7.26,86.43,-1.0,1.0,-1.0,1.0,-1.0,1.0,1.0,-1.0,1.0,-1.0,-0.0863,0.7694,1.0,-1.0,1.0,-1.0,-1.0,1.0,0.013,0.033,0.013,0.019,0.0,0.019,0.033,0.013,0.026,0.045,0.0,0.006,0.013,0.013,0.006,0.013,0.189,0.006,-0.5292,-0.5906,0.4663,-0.4234,-0.4387,0.204,-0.0353,-0.5691,0.79,0.135,-0.359,0.2562,-0.6044,-0.382,0.2746,-0.0261,-0.1289,0.0092,-0.2827,-0.2918,-0.0684,0.1767,-0.1649,0.1798,0.3002,-0.2459,0.2836,-0.3015,-0.2154,0.0098,-0.0224,-0.2648,0.1253,0.0296,0.215,0.0355,0.3563,0.0354,0.0084,0.0756,0.1286,-1.0,0.2351,-1.0,1.0,-1.0,1.0,1.0,-1.0,1.0,-1.0,-0.1156,0.0468,-0.036,-1.0,1.0,-1.0,-1.0,1.0,0.0,0.0,0.0,0.0,0.0,0.0,0.0,0.0,0.0,0.1867,0.0,0.1867,0.0,0
1.6,run,3.74,3.71,-5.4,-2.17,1.56,0.0,0.03,0.0,0.325,-32.87,-19.07,102.83,-22.24,-11.34,92.72,0.79,-17.49,126.39,4.57,-6.5,90.53,-34.45,-8.17,96.59,-4.48,9.05,80.51,-35.0,-19.16,95.25,-17.0,-19.56,97.81,10.36,-20.91,131.62,-4.59,-6.77,88.9,-30.5,-18.99,100.99,-10.68,5.76,87.93,-1.0,1.0,-1.0,1.0,-1.0,1.0,1.0,-0.9754,1.0,-1.0,0.5898,-0.4846,1.0,-1.0,1.0,-1.0,-1.0,1.0,0.0,0.019,0.006,0.033,0.0,0.033,0.033,0.0,0.019,0.026,0.0,0.0,0.019,0.0,0.019,0.026,0.071,0.026,-0.5538,-0.6167,0.4433,-0.4142,-0.4617,0.227,-0.0107,-0.5921,0.8084,0.1074,-0.3743,0.2347,-0.6029,-0.405,0.2915,-0.0522,-0.1258,0.0322,-0.2896,-0.3018,-0.134,0.1581,-0.2015,0.2119,0.3019,-0.2581,0.2674,-0.3143,-0.2081,-0.0734,-0.0099,-0.2714,0.1508,-0.0768,0.162,0.1109,0.3222,-0.0013,-0.158,-0.1449,0.0743,-1.0,1.0,-1.0,1.0,-1.0,1.0,1.0,-1.0,1.0,-1.0,-0.0863,0.7694,1.0,-1.0,1.0,-1.0,-1.0,1.0,0.0,0.0,0.0,0.0,0.0,0.0,0.0,0.0,0.0,0.2,0.0,0.2,0.0,0
1.64,run,3.7,3.62,-1.53,-1.53,1.04,0.0,0.032,0.0,0.325,-33.84,-20.21,101.34,-21.09,-12.74,94.13,2.2,-18.9,127.71,3.16,-7.38,89.65,-33.57,-9.49,97.82,-5.89,9.05,81.83,-35.0,-17.66,93.75,-15.5,-21.06,99.31,11.86,-22.41,133.12,-6.09,-5.27,90.4,-29.0,-20.49,102.49,-12.18,4.26,89.43,-1.0,0.8487,-1.0,1.0,-1.0,1.0,1.0,-0.7338,1.0,-1.0,0.5558,0.5913,1.0,-1.0,1.0,-1.0,-1.0,1.0,0.0,0.019,0.006,0.033,0.0,0.033,0.033,0.0,0.019,0.026,0.0,0.0,0.019,0.0,0.019,0.026,0.071,0.026,-0.5768,-0.6397,0.4203,-0.3973,-0.4863,0.2516,0.0138,-0.6121,0.8314,0.0813,-0.3881,0.2117,-0.5983,-0.4326,0.3114,-0.0752,-0.1258,0.0537,-0.2896,-0.2981,-0.1806,0.1744,-0.2337,0.241,0.304,-0.256,0.274,-0.3184,-0.1978,-0.1382,0.0104,-0.2942,0.1808,-0.1406,0.1134,0.1587,0.3016,-0.0133,-0.0943,-0.0379,0.0272,-1.0,1.0,-1.0,1.0,-1.0,1.0,1.0,-0.9754,1.0,-1.0,0.5898,-0.4846,1.0,-1.0,1.0,-1.0,-1.0,1.0,0.0,0.0,0.0,0.0,0.0,0.0,0.0,0.0,0.0,0.2133,0.0,0.2133,0.0,0
1.68,run,3.82,3.52,2.65,-0.96,0.97,0.0,0.034,0.0,0.325,-34.54,-21.01,99.84,-19.78,-14.24,95.54,3.6,-20.21,128.94,1.67,-7.91,89.21,-32.43,-10.72,99.23,-7.29,8.79,83.06,-35.0,-16.16,92.25,-14.0,-22.56,100.81,13.36,-23.91,134.62,-7.59,-6.77,88.9,-27.5,-21.99,103.99,-13.68,2.76,90.93,-1.0,1.0,-1.0,1.0,-1.0,1.0,1.0,-0.4829,1.0,-1.0,-0.0312,-0.508,1.0,-1.0,1.0,-1.0,-1.0,1.0,0.0,0.019,0.006,0.033,0.0,0.033,0.033,0.0,0.019,0.026,0.0,0.0,0.019,0.0,0.019,0.026,0.071,0.026,-0.5937,-0.6596,0.3942,-0.3774,-0.5108,0.2761,0.0383,-0.6366,0.8544,0.0568,-0.4034,0.1963,-0.5829,-0.4556,0.3329,-0.0997,-0.1258,0.0767,-0.2656,-0.283,-0.2237,0.1964,-0.2551,0.2602,0.3043,-0.2707,0.2776,-0.3144,-0.1956,-0.154,0.0645,-0.2917,0.2067,-0.19,0.0794,0.1969,0.2978,-0.0213,-0.0266,-0.0267,0.0182,-1.0,0.8487,-1.0,1.0,-1.0,1.0,1.0,-0.7338,1.0,-1.0,0.5558,0.5913,1.0,-1.0,1.0,-1.0,-1.0,1.0,0.0,0.0,0.0,0.0,0.0,0.0,0.0,0.0,0.0,0.2267,0.0,0.2267,0.0,0
1.72,run,3.92,3.56,2.89,0.8,3.16,0.0,0.036,0.0,0.325,-34.89,-21.45,98.35,-18.46,-15.64,96.94,5.1,-21.53,130.34,0.18,-8.26,88.77,-31.2,-12.22,100.63,-8.7,7.82,84.29,-35.0,-14.66,90.75,-12.5,-24.06,102.31,14.86,-22.41,136.12,-9.09,-5.27,90.4,-26.0,-23.49,105.49,-15.18,1.26,92.43,-1.0,1.0,-1.0,1.0,-1.0,1.0,1.0,0.1917,1.0,-1.0,0.4075,1.0,1.0,-0.3,1.0,-1.0,-1.0,1.0,0.0,0.0,0.013,0.033,0.0,0.026,0.033,0.013,0.039,0.026,0.006,0.013,0.013,0.0,0.013,0.026,0.0,0.065,-0.6059,-0.6734,0.3682,-0.3543,-0.5369,0.3007,0.0629,-0.6596,0.8759,0.0307,-0.4126,0.1887,-0.563,-0.4771,0.3574,-0.1243,-0.1304,0.0982,-0.232,-0.2499,-0.2544,0.2238,-0.2764,0.2742,0.3051,-0.2758,0.2749,-0.3179,-0.1715,-0.1366,0.1199,-0.2848,0.2367,-0.225,0.0383,0.2184,0.3088,-0.03,0.0462,-0.0167,0.017,-1.0,1.0,-1.0,1.0,-1.0,1.0,1.0,-0.4829,1.0,-1.0,-0.0312,-0.508,1.0,-1.0,1.0,-1.0,-1.0,1.0,0.0,0.0,0.0,0.0,0.0,0.0,0.0,0.0,0.0,0.24,0.0,0.24,0.0,0
1.76,run,4.04,3.73,2.99,4.79,-7.46,0.0,0.038,0.0,0.325,-34.89,-21.62,96.94,-17.05,-17.05,98.35,6.59,-22.76,131.57,-1.14,-8.26,88.77,-29.79,-13.62,102.04,-10.02,6.5,85.61,-35.0,-13.16,89.25,-11.0,-25.56,103.81,16.36,-20.91,134.62,-10.59,-6.77,88.9,-24.5,-21.99,106.99,-16.68,-0.24,93.93,-1.0,1.0,-1.0,1.0,-1.0,1.0,1.0,1.0,0.7239,-1.0,-0.8495,-1.0,1.0,0.5569,1.0,-1.0,-1.0,1.0,0.0,0.0,0.013,0.033,0.0,0.026,0.033,0.013,0.039,0.026,0.006,0.013,0.013,0.0,0.013,0.026,0.0,0.065,-0.6121,-0.6811,0.3421,-0.3313,-0.5614,0.3252,0.089,-0.6826,0.9004,0.0046,-0.4188,0.181,-0.5415,-0.5031,0.382,-0.1488,-0.1473,0.1197,-0.1854,-0.2038,-0.2761,0.2431,-0.2857,0.2842,0.3116,-0.2795,0.2847,-0.3206,-0.1431,-0.1244,0.1647,-0.2973,0.258,-0.2498,-0.0366,0.2336,0.3177,-0.0268,0.0504,0.0139,0.0551,-1.0,1.0,-1.0,1.0,-1.0,1.0,1.0,0.1917,1.0,-1.0,0.4075,1.0,1.0,-0.3,1.0,-1.0,-1.0,1.0,0.0,0.0,0.0,0.0,0.0,0.0,0.0,0.0,0.0,0.2533,0.0,0.2533,0.0,0
1.8,run,4.26,4.15,6.86,11.52,-12.27,0.0,0.04,0.0,0.325,-34.89,-21.62,95.54,-15.73,-18.54,99.76,8.0,-23.55,132.71,-2.55,-8.26,89.12,-28.39,-15.03,103.54,-11.51,5.19,87.01,-35.0,-11.66,87.75,-9.5,-27.06,105.31,17.86,-19.41,133.12,-12.09,-8.27,87.4,-23.0,-20.49,108.49,-18.18,-1.74,95.43,-1.0,1.0,-1.0,1.0,-1.0,1.0,1.0,1.0,0.248,-1.0,-0.6476,0.259,1.0,1.0,1.0,-1.0,-1.0,1.0,0.0,0.0,0.013,0.033,0.0,0.026,0.033,0.013,0.039,0.026,0.006,0.013,0.013,0.0,0.013,0.026,0.0,0.065,-0.6121,-0.6842,0.3175,-0.3068,-0.586,0.3497,0.115,-0.7041,0.9219,-0.0184,-0.4188,0.181,-0.517,-0.5277,0.4065,-0.1718,-0.1703,0.1427,-0.1298,-0.1541,-0.2852,0.2622,-0.292,0.2909,0.3158,-0.2761,0.2797,-0.3106,-0.1002,-0.0871,0.2072,-0.3001,0.2725,-0.261,-0.1118,0.2497,0.3281,-0.0119,0.0521,0.0836,-0.1303,-1.0,1.0,-1.0,1.0,-1.0,1.0,1.0,1.0,0.7239,-1.0,-0.8495,-1.0,1.0,0.5569,1.0,-1.0,-1.0,1.0,0.0,0.0,0.0,0.0,0.0,0.0,0.0,0.0,0.0,0.2667,0.0,0.2667,0.0,0
1.84,run,4.36,4.53,2.24,10.55,-8.63,0.0,0.042,0.0,0.325,-34.89,-21.36,94.13,-14.33,-19.95,101.16,9.32,-24.26,133.59,-3.96,-7.91,89.21,-26.98,-16.44,104.94,-12.92,3.78,88.33,-35.0,-10.16,86.25,-8.0,-28.56,106.81,19.36,-17.91,131.62,-13.59,-9.77,85.9,-21.5,-18.99,109.99,-19.68,-3.24,96.93,-1.0,1.0,-1.0,1.0,-1.0,1.0,1.0,1.0,-0.2469,-1.0,-1.0,-1.0,1.0,1.0,1.0,-1.0,-0.3643,1.0,0.0,0.013,0.013,0.039,0.0,0.058,0.039,0.033,0.039,0.033,0.019,0.006,0.019,0.013,0.013,0.033,0.0,0.065,-0.6121,-0.6842,0.293,-0.2838,-0.6121,0.3743,0.1396,-0.7179,0.9419,-0.043,-0.4188,0.1871,-0.4924,-0.5522,0.4326,-0.1979,-0.1933,0.1672,-0.0909,-0.1079,-0.2909,0.269,-0.3013,0.2948,0.3123,-0.2446,0.2699,-0.3086,-0.0701,-0.0382,0.2363,-0.3013,0.2877,-0.2797,-0.1638,0.266,0.3471,0.0252,0.1198,0.201,-0.2142,-1.0,1.0,-1.0,1.0,-1.0,1.0,1.0,1.0,0.248,-1.0,-0.6476,0.259,1.0,1.0,1.0,-1.0,-1.0,1.0,0.0,0.0,0.0,0.0,0.0,0.0,0.0,0.0,0.0,0.28,0.0,0.28,0.0,0
1.88,run,4.54,5.14,4.39,16.58,-6.6,0.0,0.044,0.0,0.325,-34.89,-19.95,92.11,-12.83,-21.36,102.48,10.72,-24.52,134.3,-5.27,-7.82,88.68,-25.49,-17.67,106.35,-14.33,2.29,89.74,-35.0,-8.66,84.75,-6.5,-30.06,108.31,20.86,-16.41,130.12,-15.09,-11.27,84.4,-20.0,-17.49,111.49,-21.18,-4.74,98.43,-1.0,1.0,-1.0,1.0,-1.0,1.0,1.0,1.0,-0.4563,-1.0,-1.0,-1.0,1.0,1.0,1.0,-1.0,0.2054,1.0,0.0,0.013,0.013,0.039,0.0,0.058,0.039,0.033,0.039,0.033,0.019,0.006,0.019,0.013,0.013,0.033,0.0,0.065,-0.6121,-0.6796,0.2684,-0.2592,-0.6366,0.3988,0.1626,-0.7302,0.9572,-0.0675,-0.4126,0.1887,-0.4679,-0.5768,0.4571,-0.2224,-0.2178,0.1902,-0.0636,-0.0581,-0.2965,0.2812,-0.3038,0.2993,0.3057,-0.2177,0.247,-0.309,-0.0259,-0.0209,0.2583,-0.3038,0.2943,-0.2887,-0.2076,0.2733,0.3558,0.0587,0.0392,0.1841,-0.1506,-1.0,1.0,-1.0,1.0,-1.0,1.0,1.0,1.0,-0.2469,-1.0,-1.0,-1.0,1.0,1.0,1.0,-1.0,-0.3643,1.0,0.0,0.0,0.0,0.0,0.0,0.0,0.0,0.0,0.0,0.2933,0.0,0.2933,0.0,0
1.92,run,4.5,5.25,-0.65,3.36,-3.81,0.0,0.046,0.0,0.325,-34.98,-19.69,91.14,-11.51,-22.85,103.97,12.13,-24.52,134.56,-6.77,-7.82,88.15,-24.08,-18.72,107.75,-15.73,0.88,91.05,-33.5,-7.16,83.25,-5.0,-31.56,109.81,22.36,-14.91,128.62,-16.59,-12.77,82.9,-18.5,-15.99,112.99,-22.68,-3.24,99.93,-0.4338,1.0,-1.0,0.8314,-1.0,1.0,1.0,1.0,-0.8753,-1.0,-1.0,-1.0,1.0,1.0,1.0,-1.0,1.0,1.0,0.0,0.013,0.013,0.039,0.0,0.058,0.039,0.033,0.039,0.033,0.019,0.006,0.019,0.013,0.013,0.033,0.0,0.065,-0.6121,-0.655,0.2332,-0.2332,-0.6611,0.4218,0.1871,-0.7348,0.9695,-0.0905,-0.4111,0.1795,-0.4418,-0.5983,0.4817,-0.247,-0.2439,0.2148,-0.0445,0.051,-0.3394,0.2943,-0.3044,0.2955,0.3057,-0.1696,0.2188,-0.3022,-0.0124,-0.049,0.2782,-0.2929,0.2977,-0.2938,-0.2427,0.283,0.3713,0.1119,0.0766,0.2895,-0.1152,-1.0,1.0,-1.0,1.0,-1.0,1.0,1.0,1.0,-0.4563,-1.0,-1.0,-1.0,1.0,1.0,1.0,-1.0,0.2054,1.0,0.0,0.0,0.0,0.0,0.0,0.0,0.0,0.0,0.0,0.3067,0.0,0.3067,0.0,0
1.96,run,4.67,5.6,2.83,9.97,-3.22,0.0,0.048,0.0,0.325,-34.89,-17.84,89.74,-10.11,-24.17,105.29,13.71,-24.52,134.65,-8.26,-8.35,87.01,-22.68,-19.51,109.07,-17.14,-0.53,92.37,-32.0,-5.66,81.75,-6.5,-33.06,111.31,23.86,-13.41,127.12,-18.09,-14.27,81.4,-17.0,-14.49,111.49,-24.18,-4.74,101.43,0.3888,1.0,-1.0,-0.979,-1.0,1.0,1.0,1.0,-1.0,-1.0,-1.0,-1.0,1.0,1.0,-0.5612,-1.0,0.2411,1.0,0.019,0.026,0.0,0.033,0.0,0.045,0.026,0.312,0.013,0.026,0.006,0.0,0.013,0.0,0.013,0.033,0.0,0.091,-0.6136,-0.6504,0.2163,-0.2102,-0.6872,0.4479,0.2117,-0.7348,0.9741,-0.1166,-0.4111,0.1703,-0.4172,-0.6167,0.5062,-0.2715,-0.2684,0.2378,-0.0369,0.053,-0.3011,0.2926,-0.3112,0.305,0.3063,-0.1187,0.1704,-0.3097,-0.0087,-0.0689,0.2871,-0.2743,0.3008,-0.298,-0.2623,0.2847,0.3678,0.1214,-0.0113,0.0586,-0.0664,-0.4338,1.0,-1.0,0.8314,-1.0,1.0,1.0,1.0,-0.8753,-1.0,-1.0,-1.0,1.0,1.0,1.0,-1.0,1.0,1.0,0.0,0.0,0.0,0.0,0.0,0.0,0.0,0.0,0.0,0.32,0.0,0.32,0.0,0
2.0,run,4.47,5.63,-6.84,0.17,-2.12,0.0,0.05,0.0,0.325,-34.28,-16.52,88.33,-8.7,-25.66,106.79,15.12,-24.52,134.65,-9.76,-9.23,85.87,-21.27,-20.21,110.39,-18.63,-1.85,93.69,-30.5,-4.16,80.25,-8.0,-34.56,112.81,25.36,-14.91,125.62,-19.59,-15.77,82.9,-15.5,-12.99,109.99,-25.68,-3.24,102.93,1.0,1.0,-0.1124,-1.0,-1.0,1.0,1.0,-0.3166,-1.0,-1.0,-1.0,1.0,1.0,1.0,-0.8733,-1.0,0.5015,1.0,0.019,0.026,0.0,0.033,0.0,0.045,0.026,0.312,0.013,0.026,0.006,0.0,0.013,0.0,0.013,0.033,0.0,0.091,-0.6121,-0.6182,0.1917,-0.1856,-0.7102,0.4709,0.2393,-0.7348,0.9756,-0.1427,-0.4203,0.1503,-0.3927,-0.6305,0.5292,-0.2961,-0.293,0.2608,-0.0201,0.1579,-0.3028,0.2968,-0.3041,0.2998,0.318,-0.0831,0.1251,-0.3146,-0.0406,-0.123,0.293,-0.2438,0.2968,-0.3006,-0.2756,0.2856,0.3829,0.1517,0.0493,0.1741,-0.0562,0.3888,1.0,-1.0,-0.979,-1.0,1.0,1.0,1.0,-1.0,-1.0,-1.0,-1.0,1.0,1.0,-0.5612,-1.0,0.2411,1.0,0.0,0.0,0.0,0.0,0.0,0.0,0.0,0.0,0.0,0.3333,0.0,0.3333,0.0,0
2.04,run,4.61,5.79,3.98,2.51,-2.75,0.0,0.05,0.0,0.325,-33.22,-15.21,86.92,-7.65,-26.98,108.19,16.61,-23.73,134.21,-11.16,-9.93,84.73,-19.95,-20.04,111.27,-19.95,-3.08,95.01,-29.0,-2.66,81.75,-9.5,-36.06,114.31,26.86,-16.41,124.12,-18.09,-17.27,81.4,-14.0,-11.49,108.49,-27.18,-4.74,104.43,1.0,1.0,0.8201,-1.0,-0.9524,1.0,1.0,-0.0081,-1.0,0.1278,-1.0,0.187,1.0,1.0,-1.0,-1.0,-0.4418,1.0,0.019,0.026,0.0,0.033,0.0,0.045,0.026,0.312,0.013,0.026,0.006,0.0,0.013,0.0,0.013,0.033,0.0,0.091,-0.6013,-0.5952,0.1672,-0.1611,-0.7363,0.497,0.2638,-0.7348,0.9756,-0.1687,-0.4357,0.1304,-0.3682,-0.6427,0.5522,-0.3221,-0.316,0.2838,0.0267,0.1978,-0.305,0.3009,-0.3118,0.3088,0.3157,-0.0582,0.0875,-0.3191,-0.0866,-0.1618,0.2982,-0.2172,0.2951,-0.3094,-0.2802,0.2872,0.3653,0.1542,-0.1194,0.003,-0.037,1.0,1.0,-0.1124,-1.0,-1.0,1.0,1.0,-0.3166,-1.0,-1.0,-1.0,1.0,1.0,1.0,-0.8733,-1.0,0.5015,1.0,0.0,0.0,0.0,0.0,0.0,0.0,0.0,0.0,0.0,0.3333,0.0,0.3333,0.0,0
2.08,run,5.1,6.33,12.44,12.37,-4.26,0.0,0.05,0.0,0.604,-32.26,-13.97,85.43,-6.77,-28.39,109.6,18.02,-22.68,133.33,-12.66,-11.51,83.32,-18.63,-19.69,111.97,-21.27,-4.22,96.33,-27.5,-1.16,83.25,-11.0,-37.56,115.81,28.36,-17.91,122.62,-16.59,-18.77,82.9,-12.5,-9.99,106.99,-28.68,-6.24,102.93,1.0,1.0,1.0,-1.0,-1.0,1.0,1.0,-1.0,-1.0,0.7765,-1.0,1.0,1.0,1.0,-1.0,-1.0,-0.6808,0.1087,0.026,0.052,0.0,0.013,0.0,0.039,0.026,0.604,0.0,0.019,0.0,0.0,0.019,0.045,0.013,0.058,0.006,0.149,-0.5829,-0.5722,0.1427,-0.1427,-0.7593,0.5216,0.2899,-0.721,0.9679,-0.1933,-0.4479,0.1104,-0.3451,-0.6397,0.5676,-0.3451,-0.3375,0.3068,0.0869,0.2238,-0.3045,0.2789,-0.3036,0.3071,0.3177,0.0105,0.0328,-0.3144,-0.1061,-0.1872,0.2941,-0.1407,0.2634,-0.3019,-0.2758,0.2863,0.378,0.168,0.0694,0.0438,-0.0479,1.0,1.0,0.8201,-1.0,-0.9524,1.0,1.0,-0.0081,-1.0,0.1278,-1.0,0.187,1.0,1.0,-1.0,-1.0,-0.4418,1.0,0.0,0.0,0.0,0.0,0.0,0.0,0.0,0.0,0.0,0.3333,0.0,0.3333,0.0,0
2.12,run,5.15,6.69,1.24,7.87,-3.55,0.0,0.05,0.0,0.604,-30.59,-12.57,83.85,-6.15,-30.06,111.27,19.6,-21.36,131.92,-14.24,-13.27,82.44,-16.88,-18.9,112.41,-22.94,-5.36,97.91,-26.0,0.34,84.75,-12.5,-39.06,114.31,29.86,-19.41,121.12,-15.09,-20.27,84.4,-11.0,-8.49,105.49,-30.18,-7.74,101.43,1.0,1.0,1.0,-1.0,-1.0,-0.6812,1.0,-1.0,-1.0,1.0,-1.0,1.0,0.9035,1.0,-1.0,-1.0,-1.0,-1.0,0.026,0.052,0.0,0.013,0.0,0.039,0.026,0.604,0.0,0.019,0.0,0.0,0.019,0.045,0.013,0.058,0.006,0.149,-0.566,-0.5507,0.1166,-0.1273,-0.7839,0.5461,0.3145,-0.7026,0.9526,-0.2194,-0.4755,0.0859,-0.3221,-0.6335,0.5798,-0.3682,-0.3574,0.3298,0.1239,0.237,-0.3107,0.2526,-0.3043,0.3068,0.3142,0.0762,-0.0344,-0.3176,-0.1775,-0.2228,0.2919,-0.0755,0.2303,-0.2974,-0.2676,0.2865,0.4208,0.2154,0.2172,0.2159,-0.0744,1.0,1.0,1.0,-1.0,-1.0,1.0,1.0,-1.0,-1.0,0.7765,-1.0,1.0,1.0,1.0,-1.0,-1.0,-0.6808,0.1087,0.0,0.0,0.0,0.0,0.0,0.0,0.0,0.0,0.0,0.3333,0.0,0.3333,0.0,0
2.16,run,5.3,6.93,3.46,5.4,0.66,0.0,0.05,0.0,0.604,-29.44,-11.25,82.88,-5.98,-31.46,112.68,21.01,-20.3,130.52,-15.21,-14.68,81.65,-15.47,-17.84,112.32,-24.52,-6.24,99.05,-24.5,1.84,86.25,-14.0,-40.56,112.81,31.36,-20.91,119.62,-13.59,-21.77,85.9,-12.5,-6.99,103.99,-31.68,-9.24,99.93,1.0,0.9942,1.0,-1.0,-1.0,-1.0,1.0,-1.0,-1.0,1.0,-1.0,1.0,-0.76,1.0,-1.0,-1.0,-1.0,-1.0,0.026,0.052,0.0,0.013,0.0,0.039,0.026,0.604,0.0,0.019,0.0,0.0,0.019,0.045,0.013,0.058,0.006,0.149,-0.5369,-0.5262,0.089,-0.1166,-0.813,0.5752,0.3421,-0.6796,0.9281,-0.247,-0.5062,0.0706,-0.2915,-0.6197,0.5875,-0.3973,-0.3774,0.3574,0.1778,0.2426,-0.3038,0.2104,-0.3041,0.3058,0.3062,0.1252,-0.1007,-0.3086,-0.2201,-0.2039,0.3002,-0.0097,0.1852,-0.2992,-0.2496,0.2868,0.4251,0.2471,0.0217,0.1373,-0.0619,1.0,1.0,1.0,-1.0,-1.0,-0.6812,1.0,-1.0,-1.0,1.0,-1.0,1.0,0.9035,1.0,-1.0,-1.0,-1.0,-1.0,0.0,0.0,0.0,0.0,0.0,0.0,0.0,0.0,0.0,0.3333,0.0,0.3333,0.0,0
2.2,run,5.75,7.31,11.76,10.07,7.12,0.0,0.05,0.0,0.604,-28.21,-9.93,82.18,-5.89,-32.87,113.82,22.32,-19.69,129.2,-15.91,-16.08,81.56,-14.24,-16.61,111.8,-25.84,-7.29,100.11,-23.0,0.34,87.75,-15.5,-42.06,111.31,29.86,-22.41,118.12,-12.09,-23.27,87.4,-14.0,-5.49,102.49,-30.18,-10.74,98.43,1.0,-0.5978,1.0,-1.0,-1.0,-1.0,0.7656,-1.0,-1.0,1.0,-1.0,1.0,-1.0,1.0,-1.0,0.7052,-1.0,-1.0,0.039,0.117,0.0,0.026,0.0,0.033,0.033,0.52,0.0,0.013,0.019,0.0,0.013,0.078,0.006,0.039,0.0,0.111,-0.517,-0.5031,0.0721,-0.1135,-0.8376,0.5998,0.3666,-0.6611,0.9035,-0.2638,-0.5308,0.0568,-0.2669,-0.6013,0.586,-0.4249,-0.3927,0.3774,0.1987,0.2554,-0.2754,0.1587,-0.3042,0.3054,0.3057,0.1561,-0.1619,-0.2788,-0.2454,-0.1941,0.3015,0.0617,0.1239,-0.3122,-0.2318,0.275,0.4378,0.2674,0.0604,0.0943,0.0115,1.0,0.9942,1.0,-1.0,-1.0,-1.0,1.0,-1.0,-1.0,1.0,-1.0,1.0,-0.76,1.0,-1.0,-1.0,-1.0,-1.0,0.0,0.0,0.0,0.0,0.0,0.0,0.0,0.0,0.0,0.3333,0.0,0.3333,0.0,0
2.24,run,6.0,7.37,7.18,0.69,7.7,0.0,0.05,0.0,0.604,-26.81,-8.7,81.74,-5.89,-34.28,114.61,23.73,-19.34,127.97,-16.35,-17.58,81.65,-13.18,-15.12,110.83,-27.33,-8.44,100.9,-21.5,-1.16,89.25,-17.0,-43.56,109.81,28.36,-23.91,116.62,-10.59,-24.77,88.9,-15.5,-3.99,100.99,-28.68,-12.24,96.93,1.0,-0.9314,1.0,-1.0,-1.0,-1.0,0.3251,-1.0,-1.0,1.0,-1.0,1.0,-1.0,1.0,-1.0,1.0,-1.0,-1.0,0.039,0.117,0.0,0.026,0.0,0.033,0.033,0.52,0.0,0.013,0.019,0.0,0.013,0.078,0.006,0.039,0.0,0.111,-0.4955,-0.4801,0.0598,-0.112,-0.8621,0.6197,0.3896,-0.6504,0.8805,-0.2761,-0.5553,0.0552,-0.2454,-0.5798,0.5768,-0.4479,-0.4111,0.3958,0.2196,0.2651,-0.2388,0.1168,-0.305,0.2886,0.3002,0.1496,-0.1996,-0.2412,-0.2638,-0.1416,0.2915,0.1237,0.0522,-0.3048,-0.2313,0.2615,0.477,0.3008,0.2053,0.1758,0.1242,1.0,-0.5978,1.0,-1.0,-1.0,-1.0,0.7656,-1.0,-1.0,1.0,-1.0,1.0,-1.0,1.0,-1.0,0.7052,-1.0,-1.0,0.0,0.0,0.0,0.0,0.0,0.0,0.0,0.0,0.0,0.3333,0.0,0.3333,0.0,0
2.28,run,6.11,7.43,0.98,1.36,15.86,0.0,0.05,0.0,0.604,-25.58,-7.56,81.74,-7.29,-35.68,115.22,25.14,-19.34,126.74,-16.44,-18.9,82.09,-12.57,-13.8,109.69,-28.48,-9.49,101.34,-20.0,-2.66,90.75,-18.5,-45.06,108.31,26.86,-25.41,115.12,-9.09,-26.27,90.4,-17.0,-2.49,99.49,-27.18,-13.74,95.43,1.0,-1.0,1.0,-1.0,-1.0,-1.0,-0.5008,-1.0,-1.0,1.0,-1.0,1.0,-1.0,1.0,-1.0,1.0,-1.0,-1.0,0.039,0.117,0.0,0.026,0.0,0.033,0.033,0.52,0.0,0.013,0.019,0.0,0.013,0.078,0.006,0.039,0.0,0.111,-0.4709,-0.4587,0.0522,-0.112,-0.8866,0.6335,0.4142,-0.6443,0.859,-0.2838,-0.5814,0.0568,-0.227,-0.5538,0.5599,-0.474,-0.431,0.4096,0.2458,0.2661,-0.1959,0.0818,-0.3055,0.2538,0.3022,0.1277,-0.2203,-0.1976,-0.2825,-0.0934,0.2731,0.1844,-0.0267,-0.3112,-0.2367,0.2348,0.4988,0.3065,0.1254,0.0121,0.1343,1.0,-0.9314,1.0,-1.0,-1.0,-1.0,0.3251,-1.0,-1.0,1.0,-1.0,1.0,-1.0,1.0,-1.0,1.0,-1.0,-1.0,0.0,0.0,0.0,0.0,0.0,0.0,0.0,0.0,0.0,0.3333,0.0,0.3333,0.0,0
2.32,run,6.44,7.37,7.75,-1.88,18.27,0.0,0.05,0.0,0.604,-24.17,-6.42,81.83,-8.61,-37.0,115.49,26.28,-19.34,125.77,-16.26,-20.3,83.32,-11.95,-12.48,108.28,-29.27,-10.63,101.43,-18.5,-4.16,92.25,-20.0,-46.56,106.81,25.36,-26.91,113.62,-7.59,-27.77,91.9,-18.5,-0.99,97.99,-25.68,-15.24,93.93,1.0,-1.0,1.0,-1.0,-1.0,-1.0,-1.0,-1.0,-1.0,1.0,-1.0,1.0,-1.0,1.0,-1.0,1.0,-1.0,-1.0,0.045,0.149,0.045,0.026,0.006,0.006,0.026,0.071,0.019,0.013,0.026,0.006,0.006,0.084,0.0,0.013,0.0,0.013,-0.4495,-0.4387,0.0522,-0.1365,-0.9112,0.6443,0.4387,-0.6443,0.8376,-0.2853,-0.6044,0.0644,-0.2163,-0.5308,0.54,-0.4939,-0.4495,0.4172,0.2527,0.2611,-0.1372,-0.0349,-0.306,0.218,0.3037,0.0894,-0.2348,-0.1441,-0.2841,-0.0366,0.2315,0.2155,-0.0936,-0.2927,-0.2348,0.1932,0.5083,0.3112,0.0171,0.0237,0.2768,1.0,-1.0,1.0,-1.0,-1.0,-1.0,-0.5008,-1.0,-1.0,1.0,-1.0,1.0,-1.0,1.0,-1.0,1.0,-1.0,-1.0,0.0,0.0,0.0,0.0,0.0,0.0,0.0,0.0,0.0,0.3333,0.0,0.3333,0.0,0
2.36,run,6.84,7.3,9.61,0.41,14.78,0.0,0.05,0.0,0.604,-22.85,-5.54,82.53,-10.02,-38.32,115.14,27.25,-19.34,124.37,-15.21,-21.8,84.38,-11.87,-11.07,106.88,-29.79,-11.78,101.51,-17.0,-5.66,93.75,-21.5,-48.06,105.31,23.86,-28.41,112.12,-6.09,-29.27,93.4,-20.0,0.51,96.49,-24.18,-16.74,92.43,1.0,-1.0,1.0,-1.0,-1.0,-0.737,-1.0,-1.0,-1.0,1.0,-1.0,1.0,-1.0,1.0,-1.0,1.0,-1.0,-1.0,0.045,0.149,0.045,0.026,0.006,0.006,0.026,0.071,0.019,0.013,0.026,0.006,0.006,0.084,0.0,0.013,0.0,0.013,-0.4249,-0.4188,0.0537,-0.1595,-0.9342,0.6489,0.4587,-0.6443,0.8207,-0.2823,-0.6289,0.0859,-0.2056,-0.5077,0.5154,-0.5077,-0.4694,0.4188,0.2689,0.2576,-0.0903,-0.1107,-0.3005,0.1698,0.2874,0.0626,-0.2276,-0.0894,-0.2909,0.0549,0.2023,0.2371,-0.1575,-0.2566,-0.2391,0.141,0.5374,0.3059,0.1352,-0.0328,0.3189,1.0,-1.0,1.0,-1.0,-1.0,-1.0,-1.0,-1.0,-1.0,1.0,-1.0,1.0,-1.0,1.0,-1.0,1.0,-1.0,-1.0,0.0,0.0,0.0,0.0,0.0,0.0,0.0,0.0,0.0,0.3333,0.0,0.3333,0.0,0
2.4,run,6.91,6.87,2.11,-7.4,17.87,0.0,0.05,0.0,0.604,-21.53,-4.83,83.5,-11.51,-39.2,114.7,27.77,-20.57,123.05,-14.24,-23.2,85.87,-12.3,-9.67,105.56,-29.88,-12.92,100.99,-15.5,-7.16,95.25,-23.0,-49.56,103.81,22.36,-29.91,110.62,-4.59,-30.77,94.9,-21.5,2.01,94.99,-22.68,-18.24,90.93,1.0,-1.0,1.0,-1.0,-0.6079,-0.6903,-1.0,-1.0,-1.0,1.0,-1.0,1.0,-1.0,1.0,-1.0,1.0,-1.0,-1.0,0.045,0.149,0.045,0.026,0.006,0.006,0.026,0.071,0.019,0.013,0.026,0.006,0.006,0.084,0.0,0.013,0.0,0.013,-0.4019,-0.4034,0.066,-0.1841,-0.9572,0.6427,0.4755,-0.6443,0.7961,-0.2638,-0.655,0.1043,-0.204,-0.4832,0.4909,-0.517,-0.4893,0.4203,0.2742,0.2376,-0.0173,-0.1692,-0.2963,0.0959,0.2642,0.0438,-0.251,0.0062,-0.3011,0.1072,0.1473,0.2577,-0.202,-0.214,-0.2419,0.1044,0.5724,0.3,0.1677,0.0071,0.258,1.0,-1.0,1.0,-1.0,-1.0,-0.737,-1.0,-1.0,-1.0,1.0,-1.0,1.0,-1.0,1.0,-1.0,1.0,-1.0,-1.0,0.0,0.0,0.0,0.0,0.0,0.0,0.0,0.0,0.0,0.3333,0.0,0.3333,0.0,0
2.44,run,7.46,6.55,13.41,-4.93,24.71,0.0,0.05,0.0,0.604,-20.04,-4.31,84.73,-12.92,-40.61,113.64,28.12,-21.71,121.9,-12.83,-24.61,87.28,-13.18,-8.35,104.33,-29.53,-14.06,100.02,-14.0,-8.66,96.75,-24.5,-48.06,102.31,20.86,-31.41,109.12,-3.09,-32.27,96.4,-23.0,3.51,93.49,-21.18,-19.74,89.43,1.0,-1.0,1.0,-1.0,0.0615,-1.0,-1.0,-0.4156,-1.0,1.0,-1.0,1.0,-1.0,1.0,-1.0,1.0,-1.0,-1.0,0.052,0.136,0.078,0.019,0.019,0.013,0.006,0.0,0.071,0.019,0.019,0.0,0.019,0.117,0.013,0.013,0.033,0.019,-0.3789,-0.3912,0.0828,-0.2102,-0.9725,0.6351,0.4847,-0.6657,0.7731,-0.247,-0.6796,0.1304,-0.2117,-0.4587,0.4679,-0.5185,-0.5093,0.4111,0.279,0.2127,0.0517,-0.2171,-0.2654,0.0382,0.2197,-0.0506,-0.2628,0.0682,-0.3036,0.1737,0.0741,0.2732,-0.2284,-0.1556,-0.2447,0.0383,0.5784,0.2623,0.0368,-0.1292,0.3119,1.0,-1.0,1.0,-1.0,-0.6079,-0.6903,-1.0,-1.0,-1.0,1.0,-1.0,1.0,-1.0,1.0,-1.0,1.0,-1.0,-1.0,0.0,0.0,0.0,0.0,0.0,0.0,0.0,0.0,0.0,0.3333,0.0,0.3333,0.0,0
2.48,run,8.12,6.41,16.83,-0.81,20.92,0.0,0.05,0.0,0.604,-18.54,-4.22,86.04,-14.41,-42.28,112.32,28.21,-23.03,120.67,-11.43,-26.02,88.68,-14.06,-6.77,102.83,-29.0,-14.85,99.23,-12.5,-10.16,98.25,-26.0,-46.56,100.81,19.36,-32.91,107.62,-1.59,-33.77,97.9,-24.5,5.01,91.99,-19.68,-21.24,87.93,0.9227,-1.0,1.0,-1.0,0.1586,-1.0,-1.0,-0.9052,-1.0,1.0,-1.0,1.0,-1.0,1.0,-1.0,1.0,-0.491,-1.0,0.052,0.136,0.078,0.019,0.019,0.013,0.006,0.0,0.071,0.019,0.019,0.0,0.019,0.117,0.013,0.013,0.033,0.019,-0.3528,-0.382,0.1043,-0.2347,-0.9971,0.6167,0.4909,-0.6857,0.7532,-0.2224,-0.7041,0.1549,-0.227,-0.4357,0.4464,-0.5123,-0.5292,0.3942,0.2925,0.1832,0.1163,-0.2435,-0.2773,-0.0419,0.1767,-0.1098,-0.2583,0.1393,-0.304,0.2131,-0.0053,0.277,-0.24,-0.0861,-0.2457,-0.0361,0.6262,0.2344,0.234,-0.0861,0.4313,1.0,-1.0,1.0,-1.0,0.0615,-1.0,-1.0,-0.4156,-1.0,1.0,-1.0,1.0,-1.0,1.0,-1.0,1.0,-1.0,-1.0,0.0,0.0,0.0,0.0,0.0,0.0,0.0,0.0,0.0,0.3333,0.0,0.3333,0.0,0
2.52,run,8.58,5.96,10.83,-7.04,21.32,0.0,0.05,0.0,0.604,-17.23,-4.22,87.36,-15.91,-43.59,110.83,28.39,-24.43,119.18,-10.02,-27.42,90.09,-15.38,-5.36,101.34,-27.86,-16.52,97.56,-11.0,-11.66,99.75,-27.5,-45.06,99.31,17.86,-34.41,106.12,-0.09,-35.27,99.4,-26.0,6.51,90.49,-18.18,-19.74,86.43,1.0,-1.0,1.0,-1.0,0.5847,-1.0,-1.0,-0.7673,-1.0,1.0,-1.0,1.0,-1.0,1.0,-1.0,1.0,0.1675,-1.0,0.052,0.136,0.078,0.019,0.019,0.013,0.006,0.0,0.071,0.019,0.019,0.0,0.019,0.117,0.013,0.013,0.033,0.019,-0.3267,-0.3804,0.1273,-0.2608,-1.0262,0.5937,0.4924,-0.7087,0.7317,-0.1979,-0.7286,0.1795,-0.2424,-0.408,0.4203,-0.5031,-0.543,0.3804,0.3023,0.134,0.1675,-0.268,-0.3031,-0.1154,0.1294,-0.1629,-0.2611,0.1893,-0.3046,0.241,-0.0611,0.2972,-0.2655,-0.0258,-0.2236,-0.0769,0.6836,0.2227,0.2937,-0.014,0.3651,0.9227,-1.0,1.0,-1.0,0.1586,-1.0,-1.0,-0.9052,-1.0,1.0,-1.0,1.0,-1.0,1.0,-1.0,1.0,-0.491,-1.0,0.0,0.0,0.0,0.0,0.0,0.0,0.0,0.0,0.0,0.3333,0.0,0.3333,0.0,0
2.56,run,9.19,5.39,15.75,-11.41,19.74,0.0,0.05,0.0,0.604,-15.73,-4.22,88.68,-17.31,-44.74,109.51,27.51,-25.93,117.77,-8.61,-28.92,91.49,-16.79,-4.04,99.93,-26.46,-17.84,96.15,-9.5,-13.16,101.25,-29.0,-43.56,97.81,16.36,-32.91,104.62,1.41,-36.77,100.9,-27.5,8.01,88.99,-16.68,-18.24,84.93,-0.0614,-1.0,1.0,-1.0,1.0,-1.0,-1.0,0.6686,-1.0,1.0,-0.8883,1.0,-1.0,1.0,-1.0,1.0,0.6817,-1.0,0.033,0.006,0.071,0.019,0.013,0.013,0.019,0.0,0.058,0.013,0.033,0.013,0.013,0.111,0.013,0.013,0.026,0.019,-0.3037,-0.3804,0.1503,-0.2869,-1.0492,0.5676,0.4955,-0.7332,0.7056,-0.1733,-0.7532,0.204,-0.2654,-0.3835,0.3942,-0.4832,-0.5722,0.3513,0.2981,0.0938,0.2037,-0.2856,-0.2987,-0.1789,0.1021,-0.2063,-0.2809,0.2248,-0.3055,0.261,-0.1293,0.3003,-0.2839,0.0569,-0.2661,-0.1634,0.7238,0.1832,0.1889,-0.1229,0.372,1.0,-1.0,1.0,-1.0,0.5847,-1.0,-1.0,-0.7673,-1.0,1.0,-1.0,1.0,-1.0,1.0,-1.0,1.0,0.1675,-1.0,0.0,0.0,0.0,0.0,0.0,0.0,0.0,0.0,0.0,0.3333,0.0,0.3333,0.0,0
2.6,run,9.99,5.53,19.57,0.48,13.58,0.0,0.05,0.0,0.604,-14.24,-4.92,90.18,-18.63,-45.62,108.11,26.37,-27.33,116.28,-7.21,-30.32,92.9,-18.37,-2.64,98.53,-25.14,-18.9,94.66,-11.0,-14.66,102.75,-30.5,-42.06,96.31,14.86,-31.41,103.12,2.91,-35.27,102.4,-29.0,9.51,87.49,-15.18,-16.74,83.43,-0.8519,-1.0,1.0,-1.0,1.0,-1.0,-1.0,0.0362,-1.0,1.0,0.2166,1.0,-1.0,1.0,-1.0,1.0,1.0,-1.0,0.033,0.006,0.071,0.019,0.013,0.013,0.019,0.0,0.058,0.013,0.033,0.013,0.013,0.111,0.013,0.013,0.026,0.019,-0.2777,-0.3804,0.1733,-0.3114,-1.0692,0.5446,0.4801,-0.7593,0.6811,-0.1488,-0.7793,0.2286,-0.2899,-0.3605,0.3697,-0.4587,-0.5952,0.3267,0.3065,0.0657,0.2289,-0.292,-0.2839,-0.2115,0.014,-0.2422,-0.2886,0.2494,-0.3117,0.2747,-0.1825,0.2965,-0.2908,0.1319,-0.2726,-0.2065,0.7772,0.1331,0.2749,-0.1991,0.3444,-0.0614,-1.0,1.0,-1.0,1.0,-1.0,-1.0,0.6686,-1.0,1.0,-0.8883,1.0,-1.0,1.0,-1.0,1.0,0.6817,-1.0,0.0,0.0,0.0,0.0,0.0,0.0,0.0,0.0,0.0,0.3333,0.0,0.3333,0.0,0
2.64,run,9.47,5.11,-12.08,-17.05,0.16,0.0,0.05,0.0,0.604,-13.01,-6.15,91.49,-20.48,-46.14,106.61,25.14,-28.65,114.43,-5.71,-31.82,94.31,-19.78,-1.23,97.12,-23.64,-19.69,93.34,-9.5,-16.16,104.25,-32.0,-40.56,94.81,13.36,-32.91,101.62,4.41,-33.77,103.9,-30.5,11.01,85.99,-13.68,-15.24,81.93,0.0687,-1.0,1.0,-1.0,1.0,-1.0,-1.0,-0.6577,-1.0,1.0,1.0,1.0,-1.0,1.0,-0.9528,1.0,1.0,-1.0,0.033,0.006,0.071,0.019,0.013,0.013,0.019,0.0,0.058,0.013,0.033,0.013,0.013,0.111,0.013,0.013,0.026,0.019,-0.2516,-0.3927,0.1994,-0.3344,-1.0845,0.52,0.4602,-0.7839,0.655,-0.1243,-0.8038,0.2531,-0.3175,-0.3359,0.3451,-0.4357,-0.6136,0.3007,0.3117,0.0002,0.2574,-0.2901,-0.2559,-0.2395,-0.0645,-0.261,-0.2992,0.266,-0.3096,0.2838,-0.2307,0.299,-0.295,0.1781,-0.2594,-0.2417,0.8475,0.1459,0.3416,0.0083,0.2369,-0.8519,-1.0,1.0,-1.0,1.0,-1.0,-1.0,0.0362,-1.0,1.0,0.2166,1.0,-1.0,1.0,-1.0,1.0,1.0,-1.0,0.0,0.0,0.0,0.0,0.0,0.0,0.0,0.0,0.0,0.3333,0.0,0.3333,0.0,0
2.68,run,10.1,3.91,5.44,-22.6,3.56,0.0,0.05,0.0,0.604,-11.95,-7.29,92.99,-21.27,-46.49,105.29,23.82,-29.97,112.5,-4.57,-32.87,95.8,-21.36,0.09,95.62,-22.24,-20.21,91.93,-11.0,-17.66,105.75,-33.5,-39.06,93.31,11.86,-31.41,100.12,5.91,-32.27,105.4,-32.0,12.51,84.49,-12.18,-13.74,80.43,-1.0,-1.0,1.0,-1.0,1.0,-1.0,-1.0,1.0,-1.0,1.0,1.0,1.0,-1.0,1.0,-1.0,1.0,1.0,-1.0,0.065,0.0,0.058,0.026,0.0,0.013,0.052,0.0,0.013,0.019,0.013,0.0,0.013,0.117,0.013,0.013,0.006,0.019,-0.2301,-0.4142,0.2224,-0.3666,-1.0937,0.4939,0.4387,-0.8069,0.6228,-0.0982,-0.8299,0.2777,-0.3421,-0.3114,0.3206,-0.4096,-0.6274,0.2777,0.2991,-0.0808,0.2669,-0.3245,-0.2138,-0.2659,-0.1261,-0.2694,-0.3309,0.2845,-0.315,0.2911,-0.254,0.3018,-0.299,0.2229,-0.2336,-0.2559,0.8019,0.109,-0.2108,-0.2976,0.0028,0.0687,-1.0,1.0,-1.0,1.0,-1.0,-1.0,-0.6577,-1.0,1.0,1.0,1.0,-1.0,1.0,-0.9528,1.0,1.0,-1.0,0.0,0.0,0.0,0.0,0.0,0.0,0.0,0.0,0.0,0.3333,0.0,0.3333,0.0,0
2.72,run,10.43,4.3,6.81,3.13,4.48,0.0,0.05,0.0,0.604,-11.16,-8.61,94.48,-23.03,-46.41,103.8,22.59,-31.11,111.27,-2.81,-33.75,97.03,-22.41,1.49,94.04,-20.83,-20.39,90.44,-12.5,-19.16,107.25,-35.0,-37.56,91.81,10.36,-29.91,98.62,7.41,-30.77,106.9,-33.5,14.01,82.99,-10.68,-12.24,78.93,-1.0,-1.0,1.0,-1.0,1.0,-1.0,-1.0,1.0,-1.0,1.0,1.0,1.0,-1.0,1.0,-1.0,1.0,1.0,-1.0,0.065,0.0,0.058,0.026,0.0,0.013,0.052,0.0,0.013,0.019,0.013,0.0,0.013,0.117,0.013,0.013,0.006,0.019,-0.2117,-0.4341,0.2485,-0.3804,-1.0999,0.4709,0.4157,-0.8299,0.589,-0.0782,-0.8483,0.3037,-0.3697,-0.2884,0.2945,-0.385,-0.6366,0.2531,0.2784,-0.1313,0.2846,-0.2789,-0.1727,-0.2724,-0.1745,-0.2749,-0.3581,0.2739,-0.2895,0.3016,-0.2813,0.2975,-0.3071,0.2481,-0.198,-0.2712,0.8563,0.0046,0.095,-0.3944,0.0621,-1.0,-1.0,1.0,-1.0,1.0,-1.0,-1.0,1.0,-1.0,1.0,1.0,1.0,-1.0,1.0,-1.0,1.0,1.0,-1.0,0.0,0.0,0.0,0.0,0.0,0.0,0.0,0.0,0.0,0.3333,0.0,0.3333,0.0,0
2.76,run,10.38,4.56,2.62,6.8,0.45,0.0,0.05,0.0,0.604,-10.55,-10.02,95.89,-24.35,-46.14,102.3,20.92,-31.82,109.95,-1.49,-34.45,98.53,-23.91,2.9,92.9,-19.42,-20.39,89.12,-14.0,-20.66,108.75,-35.0,-36.06,90.31,8.86,-28.41,97.12,8.91,-29.27,108.4,-35.0,15.51,81.49,-9.18,-10.74,77.43,-1.0,-1.0,1.0,-1.0,1.0,-1.0,-1.0,0.3574,-1.0,1.0,1.0,1.0,-1.0,1.0,-1.0,1.0,1.0,-1.0,0.065,0.0,0.058,0.026,0.0,0.013,0.052,0.0,0.013,0.019,0.013,0.0,0.013,0.117,0.013,0.013,0.006,0.019,-0.1979,-0.4571,0.2746,-0.4111,-1.0983,0.4449,0.3942,-0.8498,0.5676,-0.0476,-0.8636,0.3252,-0.3881,-0.2638,0.2669,-0.3605,-0.6397,0.227,0.2467,-0.1782,0.297,-0.3103,-0.1151,-0.2885,-0.2027,-0.2672,-0.3312,0.3068,-0.2602,0.2916,-0.2659,0.3003,-0.3185,0.2657,-0.1501,-0.2876,0.8854,0.0383,0.1189,0.0546,0.0783,-1.0,-1.0,1.0,-1.0,1.0,-1.0,-1.0,1.0,-1.0,1.0,1.0,1.0,-1.0,1.0,-1.0,1.0,1.0,-1.0,0.0,0.0,0.0,0.0,0.0,0.0,0.0,0.0,0.0,0.3333,0.0,0.3333,0.0,0
2.8,run,11.06,4.79,12.89,6.02,8.42,0.0,0.05,0.0,0.604,-10.46,-11.6,97.65,-26.19,-45.0,100.55,18.9,-32.7,108.19,0.26,-34.8,100.37,-25.4,4.48,90.88,-17.67,-19.69,87.45,-15.5,-22.16,110.25,-35.0,-34.56,88.81,7.36,-26.91,95.62,10.41,-27.77,109.9,-35.0,17.01,79.99,-7.68,-9.24,75.93,-1.0,-1.0,1.0,-1.0,1.0,-1.0,-1.0,0.4639,-1.0,1.0,1.0,1.0,-1.0,1.0,-1.0,1.0,1.0,-1.0,0.019,0.0,0.091,0.019,0.026,0.019,0.019,0.006,0.019,0.013,0.0,0.013,0.045,0.182,0.006,0.019,0.013,0.026,-0.1871,-0.4817,0.2991,-0.4341,-1.0937,0.4188,0.3651,-0.8621,0.5446,-0.0245,-0.8759,0.3513,-0.4142,-0.2393,0.247,-0.3359,-0.6397,0.204,0.213,-0.2169,0.3001,-0.3036,-0.0633,-0.2999,-0.2513,-0.2331,-0.3183,0.3012,-0.2282,0.3021,-0.2841,0.3024,-0.2978,0.2781,-0.1051,-0.2877,0.8809,0.0613,0.0457,0.1186,0.0079,-1.0,-1.0,1.0,-1.0,1.0,-1.0,-1.0,0.3574,-1.0,1.0,1.0,1.0,-1.0,1.0,-1.0,1.0,1.0,-1.0,0.0,0.0,0.0,0.0,0.0,0.0,0.0,0.0,0.0,0.3333,0.0,0.3333,0.0,0
2.84,run,11.64,5.02,16.43,7.36,6.25,0.0,0.05,0.0,0.604,-10.46,-12.92,98.96,-27.51,-43.86,99.23,17.49,-32.7,106.88,1.58,-34.8,101.69,-26.63,5.8,89.56,-16.35,-18.81,86.13,-17.0,-23.66,111.75,-35.0,-33.06,87.31,5.86,-28.41,94.12,11.91,-26.27,111.4,-35.0,18.51,78.49,-6.18,-7.74,74.43,-0.4885,-1.0,1.0,-1.0,1.0,-0.7691,-1.0,-0.3512,-1.0,1.0,1.0,1.0,-1.0,1.0,-1.0,1.0,1.0,-1.0,0.019,0.0,0.091,0.019,0.026,0.019,0.019,0.006,0.019,0.013,0.0,0.013,0.045,0.182,0.006,0.019,0.013,0.026,-0.1856,-0.5093,0.3298,-0.4663,-1.0738,0.3881,0.3298,-0.8774,0.5139,0.0061,-0.882,0.3835,-0.4403,-0.2117,0.2117,-0.3053,-0.6274,0.1749,0.1537,-0.2349,0.3023,-0.3094,0.0157,-0.3022,-0.2821,-0.2093,-0.3151,0.3031,-0.1782,0.3083,-0.2773,0.2947,-0.3146,0.287,-0.0367,-0.2891,0.9402,0.0806,0.2249,0.1051,0.147,-1.0,-1.0,1.0,-1.0,1.0,-1.0,-1.0,0.4639,-1.0,1.0,1.0,1.0,-1.0,1.0,-1.0,1.0,1.0,-1.0,0.0,0.0,0.0,0.0,0.0,0.0,0.0,0.0,0.0,0.3333,0.0,0.3333,0.0,0
2.88,run,12.06,5.34,10.37,9.68,-5.13,0.0,0.05,0.0,0.604,-10.99,-14.24,100.28,-28.83,-42.54,97.82,16.0,-32.78,105.47,2.9,-34.28,103.1,-27.95,7.29,87.98,-15.03,-17.49,84.73,-15.5,-25.16,113.25,-35.0,-31.56,85.81,4.36,-29.91,92.62,13.41,-24.77,112.9,-35.0,20.01,76.99,-4.68,-6.24,72.93,0.6119,-0.9051,1.0,-1.0,0.536,-0.0484,-1.0,-0.6931,-1.0,0.923,1.0,1.0,-1.0,1.0,-1.0,1.0,1.0,-1.0,0.019,0.0,0.091,0.019,0.026,0.019,0.019,0.006,0.019,0.013,0.0,0.013,0.045,0.182,0.006,0.019,0.013,0.026,-0.1856,-0.5323,0.3528,-0.4893,-1.0538,0.3651,0.3053,-0.8774,0.4909,0.0291,-0.882,0.4065,-0.4617,-0.1887,0.1887,-0.2823,-0.6121,0.1519,0.1076,-0.257,0.3042,-0.3092,0.0912,-0.3041,-0.2962,-0.1465,-0.3131,0.3048,-0.1247,0.3084,-0.2805,0.2989,-0.3128,0.2935,0.0361,-0.2949,0.9908,0.1013,0.2867,0.1284,0.1092,-0.4885,-1.0,1.0,-1.0,1.0,-0.7691,-1.0,-0.3512,-1.0,1.0,1.0,1.0,-1.0,1.0,-1.0,1.0,1.0,-1.0,0.0,0.0,0.0,0.0,0.0,0.0,0.0,0.0,0.0,0.3333,0.0,0.3333,0.0,0
2.92,run,12.5,5.68,10.86,10.44,-17.23,0.0,0.05,0.0,0.604,-11.87,-15.73,101.69,-30.32,-41.13,96.42,14.59,-31.99,104.06,4.39,-33.31,104.5,-29.36,8.61,86.57,-13.54,-16.08,83.32,-14.0,-23.66,114.75,-35.0,-30.06,87.31,2.86,-31.41,91.12,11.91,-23.27,114.4,-35.0,21.51,75.49,-3.18,-4.74,71.43,1.0,0.2649,1.0,-1.0,0.6194,0.8925,-1.0,-0.7443,-1.0,0.2477,1.0,1.0,-1.0,1.0,-1.0,1.0,1.0,-1.0,0.0,0.0,0.084,0.019,0.013,0.006,0.019,0.006,0.019,0.026,0.013,0.013,0.065,0.189,0.0,0.026,0.0,0.033,-0.1948,-0.5553,0.3758,-0.5123,-1.0308,0.3405,0.2792,-0.879,0.4663,0.0522,-0.8728,0.431,-0.4847,-0.1626,0.1611,-0.2592,-0.589,0.1273,0.0412,-0.2653,0.2983,-0.3018,0.1492,-0.3039,-0.3041,-0.1083,-0.3102,0.2987,-0.0532,0.3069,-0.2817,0.306,-0.3214,0.2908,0.1106,-0.2975,1.0281,0.1292,0.1809,0.1689,-0.0896,0.6119,-0.9051,1.0,-1.0,0.536,-0.0484,-1.0,-0.6931,-1.0,0.923,1.0,1.0,-1.0,1.0,-1.0,1.0,1.0,-1.0,0.0,0.0,0.0,0.0,0.0,0.0,0.0,0.0,0.0,0.3333,0.0,0.3333,0.0,0
2.96,run,12.94,6.14,10.17,11.13,-15.91,0.0,0.05,0.0,0.604,-13.01,-17.31,103.18,-31.73,-40.25,94.83,13.01,-31.38,102.66,5.89,-32.17,106.08,-30.85,10.11,84.99,-12.22,-14.59,81.91,-12.5,-22.16,116.25,-35.0,-28.56,88.81,1.36,-32.91,89.62,10.41,-21.77,112.9,-35.0,23.01,73.99,-1.68,-3.24,69.93,1.0,1.0,1.0,-1.0,0.4275,1.0,-1.0,-1.0,-1.0,-0.2528,1.0,0.5268,-1.0,1.0,-1.0,1.0,1.0,-1.0,0.0,0.0,0.084,0.019,0.013,0.006,0.019,0.006,0.019,0.026,0.013,0.013,0.065,0.189,0.0,0.026,0.0,0.033,-0.2102,-0.5814,0.4004,-0.5384,-1.0063,0.316,0.2546,-0.8652,0.4418,0.0782,-0.856,0.4556,-0.5093,-0.1396,0.1365,-0.2332,-0.5645,0.1028,-0.0285,-0.2831,0.3005,-0.3086,0.1961,-0.3044,-0.3045,-0.0242,-0.3088,0.3065,0.0258,0.3065,-0.2889,0.3001,-0.3166,0.3009,0.1691,-0.2999,1.0661,0.1589,0.1895,0.1822,-0.3007,1.0,0.2649,1.0,-1.0,0.6194,0.8925,-1.0,-0.7443,-1.0,0.2477,1.0,1.0,-1.0,1.0,-1.0,1.0,1.0,-1.0,0.0,0.0,0.0,0.0,0.0,0.0,0.0,0.0,0.0,0.3333,0.0,0.3333,0.0,0
3.0,run,13.3,6.46,8.63,7.3,-6.88,0.0,0.05,0.0,0.604,-13.62,-18.72,104.59,-32.78,-38.58,93.08,11.51,-31.11,101.16,7.21,-30.76,107.4,-32.17,11.51,83.67,-10.9,-13.1,80.6,-11.0,-20.66,117.75,-35.0,-27.06,90.31,-0.14,-34.41,88.12,8.91,-20.27,111.4,-35.0,24.51,72.49,-0.18,-1.74,68.43,1.0,1.0,1.0,-1.0,0.4387,1.0,-1.0,-1.0,-0.8619,-0.939,1.0,0.2561,-1.0,1.0,-1.0,1.0,1.0,-1.0,0.0,0.0,0.084,0.019,0.013,0.006,0.019,0.006,0.019,0.026,0.013,0.013,0.065,0.189,0.0,0.026,0.0,0.033,-0.2301,-0.609,0.4264,-0.563,-0.991,0.2884,0.227,-0.8544,0.4172,0.1043,-0.836,0.4832,-0.5354,-0.1135,0.1089,-0.2102,-0.5384,0.0782,-0.0905,-0.2959,0.3026,-0.3029,0.1915,-0.3108,-0.3109,0.021,-0.303,0.3068,0.0886,0.3123,-0.2945,0.3023,-0.3193,0.2921,0.2106,-0.2968,1.1041,0.1984,0.1775,0.1942,-0.2776,1.0,1.0,1.0,-1.0,0.4275,1.0,-1.0,-1.0,-1.0,-0.2528,1.0,0.5268,-1.0,1.0,-1.0,1.0,1.0,-1.0,0.0,0.0,0.0,0.0,0.0,0.0,0.0,0.0,0.0,0.3333,0.0,0.3333,0.0,0
3.04,run,13.74,6.8,10.25,7.93,1.56,0.0,0.05,0.0,0.604,-14.15,-20.04,106.0,-33.66,-37.18,92.02,10.11,-31.38,99.76,8.53,-29.36,108.81,-33.13,12.83,82.18,-9.58,-11.78,79.28,-9.5,-19.16,119.25,-35.0,-25.56,91.81,-1.64,-35.91,86.62,7.41,-18.77,109.9,-35.0,26.01,70.99,1.32,-0.24,66.93,1.0,1.0,1.0,-1.0,0.3341,1.0,-1.0,-1.0,-0.0686,-1.0,1.0,-0.2252,-1.0,1.0,-1.0,1.0,1.0,-1.0,0.006,0.0,0.078,0.019,0.033,0.006,0.013,0.0,0.026,0.006,0.006,0.006,0.052,0.169,0.0,0.084,0.006,0.045,-0.2408,-0.6335,0.451,-0.5814,-0.9618,0.2577,0.201,-0.8498,0.3912,0.1273,-0.8115,0.5062,-0.5584,-0.089,0.0859,-0.1871,-0.5123,0.0552,-0.1034,-0.2987,0.3034,-0.2807,0.2429,-0.3321,-0.315,0.0319,-0.3095,0.3007,0.1537,0.3045,-0.292,0.3033,-0.3094,0.2903,0.2448,-0.2936,1.136,0.2268,0.1507,0.1274,-0.12,1.0,1.0,1.0,-1.0,0.4387,1.0,-1.0,-1.0,-0.8619,-0.939,1.0,0.2561,-1.0,1.0,-1.0,1.0,1.0,-1.0,0.0,0.0,0.0,0.0,0.0,0.0,0.0,0.0,0.0,0.3333,0.0,0.3333,0.0,0
3.08,run,14.38,6.52,10.33,-4.74,9.94,0.0,0.05,0.0,0.604,-13.97,-21.62,108.37,-34.37,-35.07,90.44,7.82,-32.61,97.47,9.76,-26.98,110.39,-33.84,15.12,79.98,-7.47,-9.4,76.99,-8.0,-17.66,120.75,-35.0,-27.06,93.31,-3.14,-37.41,88.12,5.91,-17.27,108.4,-35.0,27.51,69.49,2.82,1.26,65.43,1.0,1.0,1.0,-1.0,-0.4163,1.0,-1.0,-1.0,0.7003,-1.0,1.0,-1.0,-1.0,1.0,-1.0,1.0,1.0,-1.0,0.006,0.0,0.078,0.019,0.033,0.006,0.013,0.0,0.026,0.006,0.006,0.006,0.052,0.169,0.0,0.084,0.006,0.045,-0.25,-0.6565,0.4755,-0.5967,-0.9373,0.2393,0.1764,-0.8544,0.3666,0.1503,-0.7869,0.5308,-0.5752,-0.066,0.0598,-0.1641,-0.4893,0.0322,-0.1068,-0.2951,0.3041,-0.2539,0.2618,-0.3013,-0.3122,0.0051,-0.3084,0.2965,0.1993,0.3049,-0.2675,0.2983,-0.3141,0.2892,0.2574,-0.2916,1.1744,0.2568,0.1789,0.1384,0.0272,1.0,1.0,1.0,-1.0,0.3341,1.0,-1.0,-1.0,-0.0686,-1.0,1.0,-0.2252,-1.0,1.0,-1.0,1.0,1.0,-1.0,0.0,0.0,0.0,0.0,0.0,0.0,0.0,0.0,0.0,0.3333,0.0,0.3333,0.0,0
3.12,run,14.53,6.05,1.67,-7.79,18.74,0.0,0.05,0.0,0.604,-12.92,-22.15,110.39,-34.45,-33.31,89.56,6.06,-34.1,95.62,10.2,-25.14,111.18,-34.19,17.05,77.87,-5.8,-7.47,75.15,-6.5,-16.16,122.25,-35.0,-28.56,94.81,-4.64,-38.91,89.62,4.41,-15.77,106.9,-35.0,29.01,67.99,4.32,2.76,63.93,1.0,0.805,1.0,-1.0,-1.0,1.0,-1.0,-1.0,1.0,-1.0,1.0,-1.0,-1.0,1.0,-1.0,1.0,1.0,-1.0,0.033,0.006,0.071,0.006,0.045,0.013,0.013,0.013,0.019,0.006,0.006,0.006,0.039,0.26,0.0,0.078,0.0,0.058,-0.247,-0.6842,0.517,-0.609,-0.9004,0.2117,0.1365,-0.8759,0.3267,0.1718,-0.7455,0.5584,-0.5875,-0.0261,0.0215,-0.1273,-0.4479,-0.0077,-0.0676,-0.2706,0.3089,-0.2061,0.2686,-0.2749,-0.311,-0.0462,-0.3083,0.2573,0.2355,0.2774,-0.2157,0.3013,-0.3088,0.2878,0.2762,-0.2965,1.2306,0.2322,0.1803,-0.0827,0.1735,1.0,1.0,1.0,-1.0,-0.4163,1.0,-1.0,-1.0,0.7003,-1.0,1.0,-1.0,-1.0,1.0,-1.0,1.0,1.0,-1.0,0.0,0.0,0.0,0.0,0.0,0.0,0.0,0.0,0.0,0.3333,0.0,0.3333,0.0,0
3.16,run,14.98,5.38,10.14,-10.74,16.59,0.0,0.05,0.0,0.604,-11.51,-22.24,112.15,-34.45,-31.9,89.03,4.57,-35.42,94.04,9.93,-23.64,111.09,-34.28,18.63,76.11,-4.13,-5.98,73.39,-5.0,-14.66,123.75,-35.0,-30.06,96.31,-6.14,-38.91,91.12,2.91,-14.27,105.4,-35.0,30.0,66.49,5.82,4.26,62.43,1.0,0.2823,1.0,-1.0,-1.0,1.0,-0.2733,-0.253,1.0,-1.0,1.0,-1.0,-1.0,1.0,-1.0,1.0,1.0,-1.0,0.033,0.006,0.071,0.006,0.045,0.013,0.013,0.013,0.019,0.006,0.006,0.006,0.039,0.26,0.0,0.078,0.0,0.058,-0.2286,-0.6934,0.5522,-0.6105,-0.8698,0.1963,0.1058,-0.902,0.2945,0.1795,-0.7133,0.5722,-0.5937,0.0077,-0.0153,-0.0982,-0.4142,-0.0399,-0.0002,-0.213,0.3067,-0.1482,0.2666,-0.2317,-0.2963,-0.0992,-0.2984,0.1998,0.2474,0.2296,-0.1667,0.2974,-0.3105,0.2762,0.2798,-0.2902,1.2431,0.1906,0.0292,-0.136,0.327,1.0,0.805,1.0,-1.0,-1.0,1.0,-1.0,-1.0,1.0,-1.0,1.0,-1.0,-1.0,1.0,-1.0,1.0,1.0,-1.0,0.0,0.0,0.0,0.0,0.0,0.0,0.0,0.0,0.0,0.3333,0.0,0.3333,0.0,0
3.2,run,15.1,4.48,1.99,-20.46,8.0,0.0,0.05,0.0,0.604,-10.28,-22.24,113.55,-34.45,-30.85,88.07,3.43,-36.47,92.9,8.96,-22.5,110.57,-34.28,20.04,74.79,-2.99,-4.83,72.16,-3.5,-16.16,125.25,-35.0,-31.56,97.81,-7.64,-40.41,92.62,1.41,-12.77,103.9,-35.0,30.0,64.99,7.32,5.76,60.93,1.0,-0.716,1.0,-1.0,-1.0,1.0,-0.3761,-0.5246,1.0,-1.0,1.0,-1.0,-1.0,1.0,-1.0,1.0,1.0,-1.0,0.033,0.006,0.071,0.006,0.045,0.013,0.013,0.013,0.019,0.006,0.006,0.006,0.039,0.26,0.0,0.078,0.0,0.058,-0.204,-0.6949,0.5829,-0.6105,-0.8452,0.1871,0.0798,-0.925,0.2669,0.1749,-0.6872,0.5706,-0.5952,0.0353,-0.046,-0.069,-0.3881,-0.0706,0.0678,-0.1533,0.2996,-0.1038,0.2546,-0.1877,-0.2796,-0.1331,-0.2853,0.1271,0.2454,0.1565,-0.1209,0.2846,-0.3023,0.274,0.268,-0.288,1.2823,0.1326,0.1769,-0.1875,0.2896,1.0,0.2823,1.0,-1.0,-1.0,1.0,-0.2733,-0.253,1.0,-1.0,1.0,-1.0,-1.0,1.0,-1.0,1.0,1.0,-1.0,0.0,0.0,0.0,0.0,0.0,0.0,0.0,0.0,0.0,0.3333,0.0,0.3333,0.0,0
3.24,run,15.23,3.79,3.53,-17.22,9.46,0.0,0.05,0.0,0.604,-9.32,-21.88,114.79,-34.45,-30.06,87.63,2.46,-37.44,92.02,8.09,-21.45,109.78,-33.84,21.09,73.74,-1.85,-3.87,71.02,-2.0,-17.66,126.75,-35.0,-33.06,99.31,-9.14,-38.91,94.12,-0.09,-11.27,102.4,-35.0,28.5,63.49,8.82,7.26,59.43,1.0,-1.0,1.0,-1.0,-1.0,1.0,-0.4614,0.9643,1.0,-1.0,1.0,-1.0,-1.0,0.3896,-1.0,1.0,1.0,-1.0,0.026,0.104,0.065,0.0,0.045,0.006,0.026,0.006,0.013,0.019,0.006,0.013,0.033,0.195,0.0,0.091,0.013,0.078,-0.1825,-0.6949,0.6075,-0.6105,-0.8268,0.1703,0.0598,-0.9434,0.247,0.158,-0.6673,0.5614,-0.5952,0.0598,-0.069,-0.0491,-0.3682,-0.092,0.1253,-0.1073,0.2987,-0.0726,0.2449,-0.1925,-0.268,-0.1599,-0.272,0.0278,0.244,0.0762,-0.0847,0.2882,-0.295,0.2641,0.2599,-0.2794,1.2927,0.0539,0.0348,-0.3571,0.1397,1.0,-0.716,1.0,-1.0,-1.0,1.0,-0.3761,-0.5246,1.0,-1.0,1.0,-1.0,-1.0,1.0,-1.0,1.0,1.0,-1.0,0.0,0.0,0.0,0.0,0.0,0.0,0.0,0.0,0.0,0.3333,0.0,0.3333,0.0,0
3.28,run,15.62,3.04,9.22,-18.12,17.14,0.0,0.05,0.0,0.604,-8.09,-21.01,116.1,-34.45,-29.27,87.01,1.23,-38.41,91.14,6.94,-20.21,108.63,-33.84,22.5,72.33,-0.62,-3.25,69.7,-0.5,-19.16,128.25,-35.0,-34.56,100.81,-7.64,-37.41,95.62,-1.59,-9.77,100.9,-35.0,27.0,61.99,10.32,8.76,57.93,1.0,-1.0,1.0,-1.0,-1.0,1.0,0.1186,-0.0781,1.0,-1.0,1.0,-1.0,-1.0,0.2835,-1.0,1.0,1.0,-1.0,0.026,0.104,0.065,0.0,0.045,0.006,0.026,0.006,0.013,0.019,0.006,0.013,0.033,0.195,0.0,0.091,0.013,0.078,-0.1657,-0.6888,0.6289,-0.6105,-0.813,0.1626,0.043,-0.9603,0.2316,0.1427,-0.6489,0.5476,-0.5875,0.0782,-0.0874,-0.0291,-0.3513,-0.112,0.1573,-0.0499,0.2976,-0.0508,0.2283,-0.1664,-0.2571,-0.1815,-0.2536,-0.0438,0.2467,-0.0036,-0.0277,0.2776,-0.2824,0.267,0.2515,-0.2778,1.3048,-0.0061,0.0617,-0.3006,0.1651,1.0,-1.0,1.0,-1.0,-1.0,1.0,-0.4614,0.9643,1.0,-1.0,1.0,-1.0,-1.0,0.3896,-1.0,1.0,1.0,-1.0,0.0,0.0,0.0,0.0,0.0,0.0,0.0,0.0,0.0,0.3333,0.0,0.3333,0.0,0
3.32,run,15.84,1.98,7.32,-28.72,13.9,0.0,0.05,0.0,0.604,-6.94,-20.04,117.42,-34.45,-28.39,86.48,0.09,-39.2,90.26,5.8,-19.16,107.58,-33.75,23.64,71.02,0.62,-1.05,68.38,1.0,-20.66,129.75,-35.0,-36.06,102.31,-6.14,-35.91,97.12,-3.09,-8.27,99.4,-35.0,28.5,60.49,11.82,10.26,56.43,1.0,-1.0,1.0,-1.0,-1.0,1.0,0.2128,0.4707,1.0,-1.0,1.0,-1.0,-1.0,1.0,-1.0,1.0,1.0,-1.0,0.026,0.104,0.065,0.0,0.045,0.006,0.026,0.006,0.013,0.019,0.006,0.013,0.033,0.195,0.0,0.091,0.013,0.078,-0.1442,-0.6734,0.6519,-0.6105,-0.7992,0.1519,0.0215,-0.9771,0.2163,0.1227,-0.6274,0.5277,-0.5875,0.1028,-0.112,-0.0077,-0.3405,-0.135,0.1906,0.0226,0.2946,-0.0356,0.2116,-0.1567,-0.2605,-0.1903,-0.235,-0.1054,0.2532,-0.0773,-0.0194,0.2863,-0.2897,0.2674,0.2163,-0.2807,1.3381,-0.0713,0.161,-0.3162,0.2991,1.0,-1.0,1.0,-1.0,-1.0,1.0,0.1186,-0.0781,1.0,-1.0,1.0,-1.0,-1.0,0.2835,-1.0,1.0,1.0,-1.0,0.0,0.0,0.0,0.0,0.0,0.0,0.0,0.0,0.0,0.3333,0.0,0.3333,0.0,0
3.36,run,16.27,1.07,10.52,-19.91,11.05,0.0,0.05,0.0,0.604,-5.8,-19.16,118.83,-34.45,-27.69,86.04,-1.14,-39.46,89.47,4.57,-18.02,106.35,-33.75,24.7,69.7,2.02,-0.26,67.06,2.5,-22.16,131.25,-35.0,-37.56,103.81,-4.64,-34.41,98.62,-4.59,-6.77,97.9,-35.0,30.0,58.99,13.32,11.76,54.93,1.0,-1.0,1.0,-1.0,-1.0,1.0,0.5247,1.0,1.0,-1.0,1.0,-1.0,-1.0,1.0,-1.0,1.0,1.0,-1.0,0.013,0.058,0.058,0.013,0.052,0.013,0.026,0.0,0.006,0.006,0.006,0.019,0.071,0.143,0.0,0.091,0.0,0.065,-0.1243,-0.6565,0.675,-0.6105,-0.7839,0.1427,0.0015,-0.991,0.201,0.1028,-0.609,0.5093,-0.586,0.1227,-0.135,0.0138,-0.3022,-0.158,0.2077,0.0787,0.292,-0.0249,0.2053,-0.144,-0.2567,-0.1847,-0.2217,-0.1481,0.2459,-0.1227,-0.0078,0.2748,-0.2885,0.2673,0.2943,-0.2823,1.3577,-0.164,0.1278,-0.5013,0.2427,1.0,-1.0,1.0,-1.0,-1.0,1.0,0.2128,0.4707,1.0,-1.0,1.0,-1.0,-1.0,1.0,-1.0,1.0,1.0,-1.0,0.0,0.0,0.0,0.0,0.0,0.0,0.0,0.0,0.0,0.3333,0.0,0.3333,0.0,0
3.4,run,16.62,-0.03,6.13,-20.89,12.03,0.0,0.05,0.0,0.604,-4.22,-18.19,120.59,-34.45,-26.89,85.61,-2.9,-39.64,88.77,2.99,-16.44,104.77,-33.93,26.28,67.85,3.69,1.32,65.39,4.0,-23.66,132.75,-35.0,-39.06,105.31,-3.14,-32.91,100.12,-6.09,-5.27,96.4,-35.0,30.0,57.49,14.82,13.26,53.43,1.0,-1.0,1.0,-1.0,-1.0,1.0,0.1248,1.0,1.0,-1.0,1.0,-1.0,-1.0,1.0,-1.0,1.0,1.0,-1.0,0.013,0.058,0.058,0.013,0.052,0.013,0.026,0.0,0.006,0.006,0.006,0.019,0.071,0.143,0.0,0.091,0.0,0.065,-0.1043,-0.6412,0.6995,-0.6105,-0.7716,0.135,-0.0199,-0.9956,0.1871,0.0813,-0.589,0.4878,-0.586,0.1411,-0.158,0.0383,-0.2884,-0.181,0.2202,0.1126,0.2964,-0.0174,0.1897,-0.1296,-0.2602,-0.1465,-0.207,-0.1842,0.2469,-0.1664,-0.0055,0.2614,-0.2883,0.2791,0.2578,-0.2839,1.3953,-0.2437,0.1836,-0.3475,0.1928,1.0,-1.0,1.0,-1.0,-1.0,1.0,0.5247,1.0,1.0,-1.0,1.0,-1.0,-1.0,1.0,-1.0,1.0,1.0,-1.0,0.0,0.0,0.0,0.0,0.0,0.0,0.0,0.0,0.0,0.3333,0.0,0.3333,0.0,0
3.44,run,16.8,-0.83,5.87,-18.92,6.47,0.0,0.05,0.0,0.604,-3.25,-17.4,121.64,-34.45,-26.19,85.34,-3.78,-38.94,87.89,2.2,-15.91,103.89,-34.01,27.07,66.88,4.57,2.37,64.42,5.5,-25.16,134.25,-35.0,-40.56,106.81,-1.64,-31.41,101.62,-7.59,-3.77,94.9,-35.0,30.0,55.99,16.32,14.76,51.93,1.0,-1.0,1.0,-1.0,-1.0,1.0,0.3925,1.0,1.0,-1.0,1.0,-1.0,-1.0,1.0,-1.0,1.0,1.0,-1.0,0.013,0.058,0.058,0.013,0.052,0.013,0.026,0.0,0.006,0.006,0.006,0.019,0.071,0.143,0.0,0.091,0.0,0.065,-0.0767,-0.6243,0.7302,-0.6105,-0.7578,0.1273,-0.0506,-0.9986,0.1749,0.0537,-0.5614,0.4602,-0.589,0.1687,-0.1902,0.0675,-0.2608,-0.2102,0.2331,0.1271,0.2952,-0.0122,0.1723,-0.1126,-0.2699,-0.1113,-0.18,-0.2079,0.2518,-0.1955,-0.0126,0.2619,-0.2939,0.2787,0.2594,-0.2821,1.4253,-0.3397,0.107,-0.3646,0.2099,1.0,-1.0,1.0,-1.0,-1.0,1.0,0.1248,1.0,1.0,-1.0,1.0,-1.0,-1.0,1.0,-1.0,1.0,1.0,-1.0,0.0,0.0,0.0,0.0,0.0,0.0,0.0,0.0,0.0,0.3333,0.0,0.3333,0.0,0
3.48,run,16.9,-1.51,2.77,-15.37,5.23,0.0,0.05,0.0,0.604,-2.2,-16.44,122.7,-34.28,-25.4,84.73,-4.39,-38.14,87.01,1.05,-14.59,102.74,-34.01,27.86,66.01,5.62,3.43,63.46,7.0,-26.66,135.75,-35.0,-42.06,108.31,-3.14,-29.91,103.12,-9.09,-2.27,93.4,-35.0,30.0,54.49,17.82,16.26,50.43,1.0,-1.0,1.0,-1.0,-1.0,1.0,-0.1273,1.0,1.0,-1.0,1.0,-1.0,-1.0,1.0,-1.0,1.0,1.0,-1.0,0.026,0.058,0.045,0.0,0.052,0.006,0.019,0.013,0.006,0.019,0.0,0.0,0.052,0.111,0.0,0.143,0.0,0.084,-0.0598,-0.6105,0.7486,-0.6105,-0.7455,0.1227,-0.066,-0.9863,0.1595,0.0399,-0.5522,0.4449,-0.5906,0.1825,-0.2071,0.0828,-0.2424,-0.227,0.2307,0.1442,0.2804,-0.0085,0.1697,-0.0973,-0.2503,-0.0288,-0.1874,-0.2008,0.2131,-0.1982,-0.015,0.2386,-0.2733,0.2565,0.2553,-0.265,1.4413,-0.4096,0.1025,-0.3302,0.1129,1.0,-1.0,1.0,-1.0,-1.0,1.0,0.3925,1.0,1.0,-1.0,1.0,-1.0,-1.0,1.0,-1.0,1.0,1.0,-1.0,0.0,0.0,0.0,0.0,0.0,0.0,0.0,0.0,0.0,0.3333,0.0,0.3333,0.0,0
3.52,run,16.99,-1.82,2.76,-6.45,5.21,0.0,0.05,0.0,0.604,-0.88,-15.64,123.75,-33.84,-24.7,84.29,-4.75,-37.18,86.31,-0.18,-13.36,101.6,-34.01,28.48,64.95,6.68,4.66,62.4,8.5,-28.16,137.25,-35.0,-43.56,109.81,-1.64,-28.41,104.62,-10.59,-0.77,91.9,-35.0,30.0,52.99,19.32,17.76,48.93,1.0,-1.0,1.0,-1.0,-1.0,1.0,-0.0277,1.0,1.0,-1.0,1.0,-1.0,-1.0,1.0,-1.0,1.0,1.0,-1.0,0.026,0.058,0.045,0.0,0.052,0.006,0.019,0.013,0.006,0.019,0.0,0.0,0.052,0.111,0.0,0.143,0.0,0.084,-0.0414,-0.5937,0.767,-0.6075,-0.7317,0.112,-0.0767,-0.9725,0.1442,0.0199,-0.5292,0.4249,-0.5906,0.1963,-0.2224,0.1012,-0.224,-0.2439,0.2325,0.1661,0.2673,0.0059,0.1721,-0.1095,-0.2167,0.0331,-0.1904,-0.2175,0.2379,-0.2157,-0.0105,0.2203,-0.2505,0.2506,0.2497,-0.2506,1.4505,-0.469,0.0484,-0.2683,0.0913,1.0,-1.0,1.0,-1.0,-1.0,1.0,-0.1273,1.0,1.0,-1.0,1.0,-1.0,-1.0,1.0,-1.0,1.0,1.0,-1.0,0.0,0.0,0.0,0.0,0.0,0.0,0.0,0.0,0.0,0.3333,0.0,0.3333,0.0,0
3.56,run,17.1,-2.21,1.6,-9.06,11.25,0.0,0.05,0.0,0.604,0.18,-14.77,124.72,-33.31,-23.82,83.67,-4.83,-36.21,84.99,-1.23,-12.22,100.46,-34.01,28.74,63.98,7.56,5.71,61.44,10.0,-29.66,138.75,-33.5,-45.06,111.31,-3.12,-26.91,106.12,-12.09,0.73,90.4,-35.0,30.0,51.49,20.82,19.26,47.43,1.0,-1.0,1.0,-0.7404,-1.0,1.0,-0.0892,0.2399,1.0,-1.0,1.0,-1.0,-1.0,1.0,-1.0,1.0,1.0,-1.0,0.026,0.058,0.045,0.0,0.052,0.006,0.019,0.013,0.006,0.019,0.0,0.0,0.052,0.111,0.0,0.143,0.0,0.084,-0.0184,-0.5798,0.7854,-0.5998,-0.7194,0.1043,-0.0828,-0.9557,0.1319,-0.0015,-0.5077,0.405,-0.5906,0.2071,-0.2408,0.1197,-0.2025,-0.2623,0.2492,0.1681,0.2562,0.0329,0.1665,-0.1055,-0.1747,0.0865,-0.1793,-0.2329,0.2472,-0.2259,-0.0073,0.1945,-0.2445,0.2446,0.2555,-0.2446,1.4578,-0.496,0.0481,-0.1126,0.0909,1.0,-1.0,1.0,-1.0,-1.0,1.0,-0.0277,1.0,1.0,-1.0,1.0,-1.0,-1.0,1.0,-1.0,1.0,1.0,-1.0,0.0,0.0,0.0,0.0,0.0,0.0,0.0,0.0,0.0,0.3333,0.0,0.3333,0.0,0
3.6,run,16.84,-2.48,-8.11,-6.0,10.62,0.0,0.05,0.0,0.604,1.49,-14.15,125.77,-33.05,-23.12,83.32,-4.83,-35.16,84.64,-2.46,-11.07,99.05,-34.1,28.74,62.75,8.7,7.12,60.29,11.5,-31.16,137.25,-32.0,-46.56,112.81,-1.62,-25.41,107.62,-13.59,2.23,88.9,-35.0,30.0,49.99,22.32,20.76,45.93,1.0,-1.0,0.5953,-0.1962,-1.0,1.0,0.2969,0.6839,1.0,-1.0,1.0,-1.0,-1.0,1.0,-1.0,0.7957,1.0,-1.0,0.026,0.104,0.078,0.0,0.045,0.013,0.006,0.065,0.0,0.033,0.026,0.006,0.065,0.117,0.0,0.175,0.0,0.084,0.0,-0.5645,0.8023,-0.5906,-0.7041,0.0936,-0.0844,-0.9388,0.1089,-0.0199,-0.4878,0.385,-0.5906,0.2117,-0.2577,0.135,-0.1841,-0.2792,0.2429,0.1748,0.2422,0.0573,0.1737,-0.1138,-0.128,0.1234,-0.2112,-0.2315,0.2473,-0.2323,-0.0051,0.1533,-0.2339,0.2283,0.2473,-0.234,1.4678,-0.5303,0.0279,-0.1582,0.1964,1.0,-1.0,1.0,-0.7404,-1.0,1.0,-0.0892,0.2399,1.0,-1.0,1.0,-1.0,-1.0,1.0,-1.0,1.0,1.0,-1.0,0.0,0.0,0.0,0.0,0.0,0.0,0.0,0.0,0.0,0.3333,0.0,0.3333,0.0,0
3.64,run,16.67,-2.45,-6.22,7.13,11.13,0.0,0.05,0.0,0.604,2.9,-13.71,126.91,-32.87,-22.68,83.32,-4.31,-33.84,84.2,-3.78,-9.76,97.65,-34.28,28.83,61.26,10.11,8.44,58.97,13.0,-32.66,135.75,-30.5,-48.06,114.31,-0.12,-26.91,109.12,-15.09,3.73,87.4,-35.0,30.0,48.49,20.82,22.26,47.43,0.4685,-1.0,-0.1438,1.0,-1.0,1.0,0.8322,-0.1334,1.0,-1.0,1.0,-1.0,-1.0,1.0,-1.0,-0.3326,1.0,0.5591,0.026,0.104,0.078,0.0,0.045,0.013,0.006,0.065,0.0,0.033,0.026,0.006,0.065,0.117,0.0,0.175,0.0,0.084,0.023,-0.5538,0.8207,-0.586,-0.6918,0.0874,-0.0844,-0.9204,0.1028,-0.0414,-0.4679,0.3605,-0.5921,0.2117,-0.2792,0.1549,-0.1595,-0.2991,0.2565,0.1627,0.2387,0.0574,0.1677,-0.1027,-0.0896,0.1555,-0.1709,-0.2428,0.248,-0.2549,-0.0094,0.1073,-0.2445,0.2347,0.2654,-0.2387,1.4446,-0.5539,-0.1416,-0.1048,0.1854,1.0,-1.0,0.5953,-0.1962,-1.0,1.0,0.2969,0.6839,1.0,-1.0,1.0,-1.0,-1.0,1.0,-1.0,0.7957,1.0,-1.0,0.0,0.0,0.0,0.0,0.0,0.0,0.0,0.0,0.0,0.3333,0.0,0.3333,0.0,0
3.68,run,16.27,-2.2,-10.63,5.42,16.78,0.0,0.05,0.0,0.604,4.22,-13.62,127.97,-32.43,-22.68,83.58,-3.34,-32.52,84.11,-4.92,-8.61,96.06,-34.28,29.0,59.85,11.51,9.84,57.57,11.5,-34.16,134.25,-29.0,-49.56,115.81,1.38,-28.41,110.62,-16.59,5.23,85.9,-35.0,28.5,46.99,19.32,23.76,48.93,-1.0,-1.0,-0.9025,1.0,-1.0,1.0,1.0,-1.0,1.0,-1.0,1.0,-1.0,-1.0,-0.7361,-1.0,-1.0,1.0,1.0,0.026,0.104,0.078,0.0,0.045,0.013,0.006,0.065,0.0,0.033,0.026,0.006,0.065,0.117,0.0,0.175,0.0,0.084,0.0476,-0.5461,0.8406,-0.5829,-0.6842,0.0874,-0.0752,-0.8974,0.0951,-0.0644,-0.4449,0.3359,-0.5952,0.2132,-0.3053,0.1795,-0.1365,-0.3221,0.2716,0.1426,0.2419,0.0517,0.1461,-0.0719,-0.0282,0.1952,-0.1484,-0.2562,0.2599,-0.2705,-0.0181,0.0809,-0.2689,0.2564,0.272,-0.2534,1.43,-0.5506,-0.1086,0.1245,0.1943,0.4685,-1.0,-0.1438,1.0,-1.0,1.0,0.8322,-0.1334,1.0,-1.0,1.0,-1.0,-1.0,1.0,-1.0,-0.3326,1.0,0.5591,0.0,0.0,0.0,0.0,0.0,0.0,0.0,0.0,0.0,0.3333,0.0,0.3333,0.0,0
3.72,run,16.31,-2.6,2.08,-8.08,13.58,0.0,0.05,0.0,0.604,5.62,-13.71,128.94,-31.73,-22.68,84.38,-2.11,-31.2,84.11,-6.24,-7.38,94.66,-34.28,29.09,58.45,13.01,11.43,56.16,10.0,-35.66,132.75,-27.5,-51.06,117.31,2.88,-29.91,112.12,-18.09,6.73,84.4,-35.0,27.0,48.49,17.82,25.26,50.43,-1.0,-1.0,-1.0,1.0,-1.0,0.6257,1.0,-1.0,1.0,-1.0,1.0,-1.0,-1.0,-1.0,0.7386,-1.0,1.0,1.0,0.033,0.013,0.227,0.019,0.0,0.091,0.013,0.065,0.033,0.13,0.078,0.006,0.033,0.0,0.0,0.175,0.0,0.078,0.0706,-0.5446,0.859,-0.5752,-0.6842,0.092,-0.0583,-0.8744,0.0936,-0.0844,-0.4249,0.3083,-0.5952,0.2163,-0.3298,0.204,-0.112,-0.3467,0.2764,0.1056,0.2383,0.0649,0.1023,-0.0331,0.0435,0.2229,-0.1096,-0.2541,0.2567,-0.2928,-0.0126,0.0681,-0.2803,0.2715,0.2824,-0.2694,1.3951,-0.529,-0.1854,0.0945,0.2929,-1.0,-1.0,-0.9025,1.0,-1.0,1.0,1.0,-1.0,1.0,-1.0,1.0,-1.0,-1.0,-0.7361,-1.0,-1.0,1.0,1.0,0.0,0.0,0.0,0.0,0.0,0.0,0.0,0.0,0.0,0.3333,0.0,0.3333,0.0,0
3.76,run,16.13,-2.38,-3.42,4.24,18.1,0.0,0.05,0.0,0.604,7.12,-13.8,129.99,-30.59,-23.12,85.61,-0.62,-30.15,84.73,-7.47,-6.06,92.99,-34.28,28.74,56.95,14.5,13.01,54.67,8.5,-37.16,131.25,-26.0,-52.56,115.81,4.38,-31.41,113.62,-19.59,8.23,82.9,-35.0,25.5,49.99,16.32,26.76,51.93,-1.0,-1.0,-0.897,1.0,-1.0,-0.3282,1.0,-1.0,1.0,-1.0,1.0,-1.0,-1.0,-1.0,0.9768,-1.0,1.0,1.0,0.033,0.013,0.227,0.019,0.0,0.091,0.013,0.065,0.033,0.13,0.078,0.006,0.033,0.0,0.0,0.175,0.0,0.078,0.0951,-0.5461,0.8759,-0.563,-0.6842,0.1058,-0.0368,-0.8514,0.0936,-0.1074,-0.4034,0.2838,-0.5952,0.2178,-0.3543,0.2301,-0.0844,-0.3712,0.2856,0.0682,0.2301,0.0915,0.0716,0.0286,0.111,0.2424,-0.0767,-0.2642,0.2603,-0.2971,-0.0088,0.0534,-0.2883,0.2879,0.3013,-0.2807,1.3988,-0.5636,0.0362,-0.141,0.2369,-1.0,-1.0,-1.0,1.0,-1.0,0.6257,1.0,-1.0,1.0,-1.0,1.0,-1.0,-1.0,-1.0,0.7386,-1.0,1.0,1.0,0.0,0.0,0.0,0.0,0.0,0.0,0.0,0.0,0.0,0.3333,0.0,0.3333,0.0,0
3.8,run,15.89,-1.87,-9.53,14.92,17.03,0.0,0.05,0.0,0.604,8.09,-14.68,130.52,-29.71,-23.99,86.84,0.44,-29.62,85.43,-8.44,-5.1,91.76,-34.45,28.04,55.72,15.47,14.15,53.7,7.0,-38.66,129.75,-24.5,-54.06,114.31,5.88,-32.91,115.12,-21.09,9.73,81.4,-35.0,24.0,51.49,14.82,28.26,53.43,-1.0,-1.0,-0.9475,1.0,-1.0,0.2192,1.0,-1.0,1.0,-1.0,1.0,-1.0,-1.0,-1.0,1.0,-1.0,1.0,1.0,0.033,0.013,0.227,0.019,0.0,0.091,0.013,0.065,0.033,0.13,0.078,0.006,0.033,0.0,0.0,0.175,0.0,0.078,0.1212,-0.5476,0.8943,-0.543,-0.6918,0.1273,-0.0107,-0.833,0.1043,-0.1289,-0.3804,0.2546,-0.5952,0.2117,-0.3804,0.2562,-0.0568,-0.3973,0.2849,0.0427,0.2211,0.1291,0.0251,0.0901,0.1627,0.2297,-0.0187,-0.255,0.2572,-0.303,-0.0062,0.0174,-0.2868,0.2865,0.3009,-0.2815,1.3828,-0.5451,-0.0597,0.074,0.3159,-1.0,-1.0,-0.897,1.0,-1.0,-0.3282,1.0,-1.0,1.0,-1.0,1.0,-1.0,-1.0,-1.0,0.9768,-1.0,1.0,1.0,0.0,0.0,0.0,0.0,0.0,0.0,0.0,0.0,0.0,0.3333,0.0,0.3333,0.0,0
3.84,run,15.82,-1.95,-3.06,-0.68,8.29,0.0,0.05,0.0,0.604,8.79,-15.91,130.78,-28.92,-25.22,88.24,1.32,-29.27,86.48,-9.4,-3.87,90.18,-34.72,27.16,54.32,16.26,15.47,52.73,5.5,-40.16,128.25,-23.0,-55.56,112.81,7.38,-34.41,116.62,-22.59,11.23,79.9,-35.0,22.5,52.99,13.32,29.76,54.93,-1.0,-1.0,-1.0,1.0,-1.0,0.0971,1.0,-1.0,1.0,-1.0,1.0,-1.0,-1.0,-1.0,1.0,-1.0,1.0,1.0,0.019,0.0,0.26,0.033,0.0,0.091,0.019,0.039,0.084,0.364,0.143,0.0,0.006,0.019,0.006,0.084,0.006,0.065,0.1381,-0.563,0.9035,-0.5277,-0.7072,0.1488,0.0077,-0.8237,0.1166,-0.1457,-0.3636,0.2332,-0.5983,0.1994,-0.4019,0.273,-0.0368,-0.4142,0.2726,-0.0366,0.1947,0.1568,-0.0489,0.1561,0.1937,0.2006,0.0401,-0.2516,0.2532,-0.3051,-0.0176,-0.041,-0.2938,0.2737,0.2971,-0.2702,1.3616,-0.5005,-0.1663,0.2604,0.2972,-1.0,-1.0,-0.9475,1.0,-1.0,0.2192,1.0,-1.0,1.0,-1.0,1.0,-1.0,-1.0,-1.0,1.0,-1.0,1.0,1.0,0.0,0.0,0.0,0.0,0.0,0.0,0.0,0.0,0.0,0.3333,0.0,0.3333,0.0,0
3.88,run,16.28,-1.41,14.31,15.7,17.07,0.0,0.05,0.0,0.604,9.4,-17.23,130.96,-27.25,-26.46,89.74,2.99,-29.18,87.71,-10.81,-2.72,88.77,-34.72,25.75,53.35,16.7,16.44,52.12,4.0,-41.66,126.75,-21.5,-57.06,111.31,8.88,-35.91,118.12,-24.09,12.73,78.4,-35.0,21.0,54.49,11.82,28.26,56.43,-1.0,-1.0,-1.0,1.0,-1.0,-0.6353,1.0,-1.0,1.0,-1.0,1.0,-1.0,-1.0,-1.0,1.0,-1.0,0.7763,1.0,0.019,0.0,0.26,0.033,0.0,0.091,0.019,0.039,0.084,0.364,0.143,0.0,0.006,0.019,0.006,0.084,0.006,0.065,0.1503,-0.5844,0.9081,-0.5139,-0.7286,0.1733,0.023,-0.8176,0.135,-0.1626,-0.3421,0.2056,-0.6029,0.1841,-0.4264,0.2869,-0.0138,-0.431,0.2374,-0.1072,0.1537,0.1622,-0.1158,0.2025,0.1939,0.1638,0.098,-0.2402,0.2588,-0.3185,-0.0298,-0.087,-0.2989,0.244,0.2954,-0.2532,1.3562,-0.5073,-0.0534,-0.0118,0.1447,-1.0,-1.0,-1.0,1.0,-1.0,0.0971,1.0,-1.0,1.0,-1.0,1.0,-1.0,-1.0,-1.0,1.0,-1.0,1.0,1.0,0.0,0.0,0.0,0.0,0.0,0.0,0.0,0.0,0.0,0.3333,0.0,0.3333,0.0,0
3.92,run,16.81,-1.4,15.77,1.38,5.5,0.0,0.05,0.0,0.604,9.58,-18.63,130.96,-25.93,-27.95,91.14,4.31,-29.18,89.03,-12.04,-1.49,87.45,-34.8,24.52,52.29,16.96,17.49,51.68,2.5,-43.16,125.25,-20.0,-58.56,109.81,10.38,-37.41,119.62,-25.59,14.23,76.9,-35.0,22.5,55.99,10.32,29.76,57.93,-1.0,-1.0,-0.7852,1.0,-1.0,-0.7354,1.0,-1.0,1.0,-1.0,1.0,-1.0,-1.0,0.9911,1.0,-1.0,1.0,1.0,0.019,0.0,0.26,0.033,0.0,0.091,0.019,0.039,0.084,0.364,0.143,0.0,0.006,0.019,0.006,0.084,0.006,0.065,0.1611,-0.6075,0.9112,-0.4847,-0.7501,0.1994,0.0522,-0.8161,0.1565,-0.1871,-0.3221,0.181,-0.6029,0.1595,-0.4433,0.2945,0.0031,-0.4418,0.2066,-0.1615,0.1192,0.2231,-0.1618,0.2398,0.2453,0.1204,0.1493,-0.2604,0.2561,-0.3152,-0.0209,-0.1531,-0.2727,0.1997,0.2702,-0.2176,1.3963,-0.46,0.2498,0.274,0.2979,-1.0,-1.0,-1.0,1.0,-1.0,-0.6353,1.0,-1.0,1.0,-1.0,1.0,-1.0,-1.0,-1.0,1.0,-1.0,0.7763,1.0,0.0,0.0,0.0,0.0,0.0,0.0,0.0,0.0,0.0,0.3333,0.0,0.3333,0.0,0
3.96,run,17.54,-1.58,21.15,-0.91,-17.15,0.0,0.05,0.0,0.604,9.14,-20.04,130.96,-24.61,-29.36,92.55,5.62,-30.15,90.35,-13.45,0.0,86.13,-34.8,23.2,51.77,16.88,19.25,51.59,1.0,-44.66,123.75,-18.5,-60.06,108.31,11.88,-38.91,121.12,-27.09,15.73,75.4,-33.5,24.0,57.49,8.82,28.26,59.43,-1.0,-1.0,-1.0,1.0,-1.0,-0.6914,1.0,-1.0,1.0,-1.0,1.0,-1.0,-0.931,1.0,1.0,-1.0,0.7138,1.0,0.0,0.0,0.033,0.033,0.0,0.13,0.039,0.0,0.117,0.338,0.156,0.0,0.0,0.013,0.006,0.0,0.026,0.0,0.1641,-0.632,0.9112,-0.4617,-0.7762,0.224,0.0752,-0.8161,0.1795,-0.2086,-0.3007,0.158,-0.6044,0.1381,-0.4617,0.2991,0.0215,-0.4495,0.1562,-0.2058,0.0834,0.2431,-0.2118,0.2606,0.2586,0.0843,0.1914,-0.2634,0.2604,-0.3076,-0.0204,-0.1883,-0.2604,0.1571,0.2587,-0.1813,1.4423,-0.4595,0.2753,0.0241,0.096,-1.0,-1.0,-0.7852,1.0,-1.0,-0.7354,1.0,-1.0,1.0,-1.0,1.0,-1.0,-1.0,0.9911,1.0,-1.0,1.0,1.0,0.0,0.0,0.0,0.0,0.0,0.0,0.0,0.0,0.0,0.3333,0.0,0.3333,0.0,0
4.0,run,18.03,-1.81,13.13,-3.51,-12.41,0.0,0.05,0.0,0.604,8.61,-21.36,130.96,-23.38,-30.76,93.96,6.94,-31.03,91.76,-14.85,1.49,84.64,-34.8,22.32,51.59,16.08,20.57,51.68,-0.5,-46.16,122.25,-17.0,-61.56,106.81,13.38,-40.41,122.62,-28.59,17.23,73.9,-32.0,25.5,58.99,7.32,26.76,60.93,-1.0,-1.0,-0.8994,1.0,-1.0,-0.8993,1.0,-1.0,1.0,-1.0,1.0,-1.0,-0.2919,1.0,1.0,-1.0,0.877,1.0,0.0,0.0,0.033,0.033,0.0,0.13,0.039,0.0,0.117,0.338,0.156,0.0,0.0,0.013,0.006,0.0,0.026,0.0,0.1565,-0.6565,0.9112,-0.4387,-0.8007,0.2485,0.0982,-0.833,0.2025,-0.2332,-0.2746,0.135,-0.6044,0.115,-0.4709,0.2976,0.0522,-0.451,0.0806,-0.2359,0.0584,0.2563,-0.2401,0.2743,0.2671,-0.0042,0.2201,-0.2762,0.2799,-0.3014,-0.0143,-0.2179,-0.2167,0.1043,0.2959,-0.1327,1.5061,-0.4745,0.3692,-0.0159,-0.2993,-1.0,-1.0,-1.0,1.0,-1.0,-0.6914,1.0,-1.0,1.0,-1.0,1.0,-1.0,-0.931,1.0,1.0,-1.0,0.7138,1.0,0.0,0.0,0.0,0.0,0.0,0.0,0.0,0.0,0.0,0.3333,0.0,0.3333,0.0,0
4.04,run,18.36,-1.86,6.6,-1.14,-1.59,0.0,0.05,0.0,0.604,7.65,-22.5,130.43,-22.24,-32.17,95.54,8.35,-32.43,93.16,-16.0,2.99,83.06,-34.28,21.71,51.68,15.12,21.88,52.29,-2.0,-47.66,120.75,-15.5,-63.06,105.31,14.88,-41.91,124.12,-30.09,18.73,72.4,-30.5,27.0,60.49,5.82,25.26,62.43,-1.0,-1.0,-1.0,1.0,-1.0,-0.3243,1.0,-1.0,1.0,-1.0,1.0,-1.0,0.325,1.0,1.0,-1.0,0.4991,1.0,0.0,0.0,0.033,0.033,0.0,0.13,0.039,0.0,0.117,0.338,0.156,0.0,0.0,0.013,0.006,0.0,0.026,0.0,0.1473,-0.6796,0.9112,-0.4172,-0.8253,0.273,0.1212,-0.8483,0.227,-0.2577,-0.2485,0.1089,-0.6044,0.0997,-0.474,0.2838,0.0752,-0.4495,0.0217,-0.252,0.0409,0.2605,-0.2608,0.2847,0.2739,-0.0609,0.2468,-0.2861,0.2944,-0.3095,-0.01,-0.2105,-0.1633,0.0208,0.294,-0.0871,1.5487,-0.4953,0.2292,-0.0612,-0.2166,-1.0,-1.0,-0.8994,1.0,-1.0,-0.8993,1.0,-1.0,1.0,-1.0,1.0,-1.0,-0.2919,1.0,1.0,-1.0,0.877,1.0,0.0,0.0,0.0,0.0,0.0,0.0,0.0,0.0,0.0,0.3333,0.0,0.3333,0.0,0
4.08,run,18.73,-1.86,7.13,0.32,-9.23,0.0,0.05,0.0,0.604,6.42,-23.91,129.55,-21.01,-33.66,96.94,9.76,-33.84,94.66,-17.31,4.31,81.65,-33.31,21.36,52.29,13.8,23.12,53.35,-3.5,-49.16,119.25,-14.0,-64.56,103.81,16.38,-43.41,125.62,-31.59,20.23,70.9,-29.0,28.5,61.99,4.32,23.76,63.93,-1.0,-1.0,-1.0,1.0,-1.0,-0.4308,1.0,-1.0,1.0,-1.0,1.0,-1.0,1.0,1.0,1.0,-1.0,0.3408,1.0,0.006,0.0,0.006,0.078,0.0,0.084,0.039,0.0,0.078,0.526,0.175,0.0,0.013,0.006,0.006,0.0,0.039,0.006,0.1304,-0.6995,0.902,-0.3973,-0.8498,0.3007,0.1457,-0.8728,0.2516,-0.2777,-0.2224,0.0813,-0.5952,0.089,-0.4725,0.2669,0.0982,-0.4387,-0.0475,-0.2505,-0.0056,0.2565,-0.2738,0.3019,0.283,-0.1338,0.264,-0.2744,0.303,-0.3193,0.0272,-0.1873,-0.1086,-0.0481,0.2913,-0.021,1.5774,-0.4997,0.1153,-0.0199,-0.0278,-1.0,-1.0,-1.0,1.0,-1.0,-0.3243,1.0,-1.0,1.0,-1.0,1.0,-1.0,0.325,1.0,1.0,-1.0,0.4991,1.0,0.0,0.0,0.0,0.0,0.0,0.0,0.0,0.0,0.0,0.3333,0.0,0.3333,0.0,0
4.12,run,19.07,-1.72,8.76,2.7,-25.45,0.0,0.05,0.0,0.604,5.01,-25.4,128.32,-19.69,-34.98,98.26,11.16,-35.07,96.24,-18.81,5.62,80.07,-32.26,21.36,53.53,12.3,24.08,54.67,-5.0,-50.66,117.75,-12.5,-66.06,102.31,17.88,-44.91,127.12,-33.09,21.73,69.4,-27.5,30.0,63.49,2.82,22.26,65.43,-1.0,-1.0,-1.0,1.0,-1.0,0.0874,1.0,-0.7878,0.9525,-1.0,1.0,-1.0,1.0,1.0,1.0,-1.0,0.5304,1.0,0.006,0.0,0.006,0.078,0.0,0.084,0.039,0.0,0.078,0.526,0.175,0.0,0.013,0.006,0.006,0.0,0.039,0.006,0.1089,-0.724,0.8866,-0.3758,-0.8759,0.3252,0.1703,-0.8974,0.2777,-0.3007,-0.1994,0.0568,-0.5783,0.0828,-0.4617,0.2439,0.1197,-0.4203,-0.114,-0.2676,-0.0616,0.2603,-0.2896,0.3036,0.2903,-0.1859,0.2828,-0.2785,0.2986,-0.3157,0.0825,-0.1541,-0.0357,-0.1202,0.2847,0.0545,1.6102,-0.4991,0.1244,0.0057,-0.1612,-1.0,-1.0,-1.0,1.0,-1.0,-0.4308,1.0,-1.0,1.0,-1.0,1.0,-1.0,1.0,1.0,1.0,-1.0,0.3408,1.0,0.0,0.0,0.0,0.0,0.0,0.0,0.0,0.0,0.0,0.3333,0.0,0.3333,0.0,0
4.16,run,19.41,-1.67,9.12,1.26,-31.3,0.0,0.05,0.0,0.604,3.69,-26.72,127.09,-18.37,-36.47,99.58,12.66,-36.47,97.82,-20.39,7.03,78.75,-30.94,21.88,54.58,10.9,24.79,55.9,-6.5,-52.16,116.25,-11.0,-67.56,100.81,19.38,-46.41,128.62,-34.59,23.23,67.9,-26.0,30.0,64.99,1.32,21.04,66.93,-0.8953,-1.0,-1.0,1.0,-1.0,0.2887,1.0,-0.6862,1.0,-1.0,1.0,-1.0,1.0,1.0,1.0,-1.0,0.8371,1.0,0.006,0.0,0.006,0.078,0.0,0.084,0.039,0.0,0.078,0.526,0.175,0.0,0.013,0.006,0.006,0.0,0.039,0.006,0.0844,-0.7501,0.8652,-0.3528,-0.8989,0.3482,0.1948,-0.9189,0.3053,-0.3267,-0.1764,0.0291,-0.5599,0.0828,-0.4403,0.2178,0.1365,-0.3973,-0.1713,-0.2846,-0.1232,0.268,-0.2885,0.2983,0.2947,-0.2102,0.3009,-0.2922,0.2948,-0.3239,0.1263,-0.1079,0.0551,-0.1813,0.2622,0.1239,1.6394,-0.487,0.1528,0.0471,-0.4441,-1.0,-1.0,-1.0,1.0,-1.0,0.0874,1.0,-0.7878,0.9525,-1.0,1.0,-1.0,1.0,1.0,1.0,-1.0,0.5304,1.0,0.0,0.0,0.0,0.0,0.0,0.0,0.0,0.0,0.0,0.3333,0.0,0.3333,0.0,0
4.2,run,19.79,-1.62,10.49,1.92,-27.49,0.0,0.05,0.0,0.604,2.37,-28.04,125.77,-16.96,-37.88,100.72,14.15,-37.79,99.32,-21.97,8.44,77.34,-29.44,22.68,55.99,9.49,25.14,56.95,-8.0,-53.66,114.75,-9.5,-69.06,102.31,20.88,-44.91,130.12,-35.0,24.73,66.4,-24.5,30.0,66.49,-0.18,22.54,68.43,-0.5739,-1.0,-1.0,1.0,-1.0,0.7719,1.0,-0.2771,1.0,-1.0,1.0,-1.0,1.0,1.0,1.0,-1.0,0.9136,1.0,0.006,0.0,0.013,0.111,0.0,0.058,0.026,0.006,0.052,0.254,0.182,0.0,0.013,0.013,0.006,0.0,0.033,0.033,0.0614,-0.7731,0.8437,-0.3298,-0.925,0.3712,0.2209,-0.9434,0.3329,-0.3543,-0.1519,0.0061,-0.5369,0.092,-0.4218,0.1933,0.1488,-0.3758,-0.2061,-0.2854,-0.1667,0.2738,-0.2997,0.295,0.304,-0.2391,0.3141,-0.308,0.2983,-0.313,0.1747,-0.041,0.1076,-0.2189,0.2295,0.1672,1.6688,-0.4826,0.1591,0.0221,-0.5462,-0.8953,-1.0,-1.0,1.0,-1.0,0.2887,1.0,-0.6862,1.0,-1.0,1.0,-1.0,1.0,1.0,1.0,-1.0,0.8371,1.0,0.0,0.0,0.0,0.0,0.0,0.0,0.0,0.0,0.0,0.3333,0.0,0.3333,0.0,0
4.24,run,20.08,-1.27,7.08,7.79,-19.36,0.0,0.05,0.0,0.604,0.7,-29.36,124.45,-15.56,-39.38,101.51,15.64,-39.11,100.81,-23.47,9.93,75.85,-28.04,23.82,57.48,8.0,25.31,58.62,-9.5,-55.16,113.25,-8.0,-70.56,103.81,22.38,-43.41,131.62,-35.0,26.23,64.9,-23.0,30.0,67.99,-1.68,24.04,69.93,-0.3674,-1.0,-1.0,1.0,-1.0,1.0,1.0,-0.2012,1.0,-1.0,1.0,-1.0,1.0,1.0,0.8874,-1.0,1.0,1.0,0.006,0.0,0.013,0.111,0.0,0.058,0.026,0.006,0.052,0.254,0.182,0.0,0.013,0.013,0.006,0.0,0.033,0.033,0.0383,-0.7961,0.8207,-0.3053,-0.9495,0.3912,0.247,-0.9664,0.359,-0.382,-0.1273,-0.0184,-0.5108,0.1058,-0.3973,0.1687,0.1549,-0.3574,-0.2311,-0.2866,-0.2035,0.2843,-0.3024,0.2818,0.3112,-0.2542,0.3183,-0.3198,0.3015,-0.3117,0.2207,0.0234,0.1679,-0.2459,0.1838,0.1865,1.7023,-0.4781,0.1831,0.0335,-0.4799,-0.5739,-1.0,-1.0,1.0,-1.0,0.7719,1.0,-0.2771,1.0,-1.0,1.0,-1.0,1.0,1.0,1.0,-1.0,0.9136,1.0,0.0,0.0,0.0,0.0,0.0,0.0,0.0,0.0,0.0,0.3333,0.0,0.3333,0.0,0
4.28,run,20.43,-1.03,8.16,5.69,-15.36,0.0,0.05,0.0,0.604,-0.7,-30.76,123.22,-14.06,-40.78,102.13,16.96,-40.61,102.3,-24.79,11.34,74.44,-26.72,25.14,58.97,6.68,25.31,60.12,-11.0,-56.66,111.75,-6.5,-72.06,105.31,23.88,-41.91,133.12,-35.0,24.73,63.4,-21.5,30.0,69.49,-3.18,25.54,71.43,-0.373,-1.0,-1.0,1.0,-1.0,1.0,1.0,-0.1075,1.0,-1.0,0.4399,-1.0,1.0,1.0,0.4358,-1.0,1.0,1.0,0.006,0.0,0.013,0.111,0.0,0.058,0.026,0.006,0.052,0.254,0.182,0.0,0.013,0.013,0.006,0.0,0.033,0.033,0.0092,-0.8191,0.7977,-0.2807,-0.9756,0.405,0.273,-0.9894,0.385,-0.408,-0.1012,-0.0445,-0.4863,0.1258,-0.3712,0.1427,0.158,-0.3283,-0.2711,-0.2869,-0.2288,0.291,-0.3095,0.249,0.3157,-0.2642,0.3206,-0.3217,0.3088,-0.316,0.2465,0.0911,0.2153,-0.2699,0.1402,0.2399,1.7276,-0.4481,0.1235,0.136,-0.338,-0.3674,-1.0,-1.0,1.0,-1.0,1.0,1.0,-0.2012,1.0,-1.0,1.0,-1.0,1.0,1.0,0.8874,-1.0,1.0,1.0,0.0,0.0,0.0,0.0,0.0,0.0,0.0,0.0,0.0,0.3333,0.0,0.3333,0.0,0
4.32,run,20.86,-0.43,12.56,15.23,-15.46,0.0,0.05,0.0,0.604,-2.2,-32.08,121.64,-12.57,-42.19,102.92,18.46,-41.75,103.8,-26.19,12.74,73.04,-25.22,26.63,60.29,5.27,25.05,61.52,-12.5,-58.16,110.25,-5.0,-73.56,106.81,25.38,-40.41,134.62,-35.0,23.23,61.9,-20.0,30.0,67.99,-4.68,27.04,72.93,-0.9523,-0.6579,-1.0,1.0,-1.0,1.0,1.0,0.1464,0.9062,-1.0,-0.2478,-1.0,1.0,1.0,-0.2385,-1.0,1.0,1.0,0.006,0.006,0.019,0.071,0.0,0.091,0.026,0.0,0.033,0.344,0.169,0.0,0.013,0.006,0.006,0.0,0.006,0.019,-0.0153,-0.8437,0.7762,-0.2546,-1.0002,0.4157,0.2961,-1.0155,0.4111,-0.431,-0.0767,-0.069,-0.4633,0.1488,-0.3451,0.1197,0.158,-0.3022,-0.282,-0.2931,-0.2408,0.3017,-0.3089,0.2147,0.3074,-0.283,0.3224,-0.3116,0.3084,-0.3134,0.259,0.1503,0.2487,-0.2754,0.0981,0.2659,1.7586,-0.4269,0.1424,0.0993,-0.268,-0.373,-1.0,-1.0,1.0,-1.0,1.0,1.0,-0.1075,1.0,-1.0,0.4399,-1.0,1.0,1.0,0.4358,-1.0,1.0,1.0,0.0,0.0,0.0,0.0,0.0,0.0,0.0,0.0,0.0,0.3333,0.0,0.3333,0.0,0
4.36,run,21.27,-0.22,9.83,5.23,-13.9,0.0,0.05,0.0,0.604,-3.43,-33.49,120.41,-11.16,-43.68,103.89,19.86,-42.63,105.29,-27.6,14.24,71.63,-23.82,27.86,61.79,3.78,24.87,62.93,-14.0,-56.66,108.75,-3.5,-75.06,108.31,26.88,-38.91,133.12,-35.0,21.73,60.4,-18.5,30.0,66.49,-6.18,28.54,74.43,-1.0,0.6194,-1.0,1.0,-1.0,1.0,1.0,0.0946,0.5652,-1.0,-1.0,-0.8958,1.0,1.0,-0.3589,-1.0,1.0,1.0,0.006,0.006,0.019,0.071,0.0,0.091,0.026,0.0,0.033,0.344,0.169,0.0,0.013,0.006,0.006,0.0,0.006,0.019,-0.0414,-0.8667,0.7486,-0.2286,-1.0247,0.4295,0.3221,-1.0354,0.4372,-0.4556,-0.0522,-0.0936,-0.4372,0.1749,-0.3221,0.0951,0.1534,-0.2777,-0.2946,-0.2909,-0.2715,0.3084,-0.3077,0.2017,0.3124,-0.2724,0.3228,-0.3096,0.3073,-0.3108,0.2785,0.2023,0.2598,-0.2842,0.0515,0.2776,1.7956,-0.3741,0.2192,0.2657,-0.2699,-0.9523,-0.6579,-1.0,1.0,-1.0,1.0,1.0,0.1464,0.9062,-1.0,-0.2478,-1.0,1.0,1.0,-0.2385,-1.0,1.0,1.0,0.0,0.0,0.0,0.0,0.0,0.0,0.0,0.0,0.0,0.3333,0.0,0.3333,0.0,0
4.4,run,21.68,0.09,10.74,8.25,-18.36,0.0,0.05,0.0,0.604,-4.83,-34.89,119.0,-9.67,-45.0,104.94,21.27,-43.15,106.79,-29.09,15.56,70.22,-22.41,28.83,63.19,2.46,24.87,64.34,-15.5,-55.16,107.25,-2.0,-76.56,109.81,28.38,-37.41,131.62,-35.0,20.23,58.9,-17.0,30.0,64.99,-7.68,30.0,75.93,-0.6573,1.0,-1.0,1.0,-1.0,1.0,1.0,1.0,-0.498,-1.0,-1.0,-0.4232,1.0,1.0,-0.7217,-1.0,1.0,1.0,0.006,0.006,0.019,0.071,0.0,0.091,0.026,0.0,0.033,0.344,0.169,0.0,0.013,0.006,0.006,0.0,0.006,0.019,-0.0629,-0.8912,0.7271,-0.204,-1.0508,0.4464,0.3467,-1.0508,0.4633,-0.4801,-0.0261,-0.1181,-0.4126,0.1963,-0.2961,0.069,0.1503,-0.2531,-0.2875,-0.2966,-0.2713,0.3088,-0.3141,0.2051,0.3116,-0.2487,0.3247,-0.3096,0.3139,-0.3105,0.2879,0.223,0.2806,-0.2977,0.0245,0.2872,1.8317,-0.3562,0.1715,0.0912,-0.2426,-1.0,0.6194,-1.0,1.0,-1.0,1.0,1.0,0.0946,0.5652,-1.0,-1.0,-0.8958,1.0,1.0,-0.3589,-1.0,1.0,1.0,0.0,0.0,0.0,0.0,0.0,0.0,0.0,0.0,0.0,0.3333,0.0,0.3333,0.0,0
4.44,run,22.14,0.53,11.25,10.31,-21.94,0.0,0.05,0.0,0.604,-6.33,-36.3,117.6,-8.26,-46.41,106.17,22.68,-43.33,108.19,-30.32,16.96,68.82,-21.09,29.53,64.42,0.97,24.96,65.74,-14.0,-53.66,105.75,-0.5,-78.06,111.31,29.88,-35.91,130.12,-35.0,18.73,60.4,-15.5,30.0,63.49,-9.18,30.0,77.43,-0.2232,1.0,-1.0,1.0,-1.0,1.0,1.0,1.0,-0.9078,-1.0,-1.0,0.1529,1.0,1.0,-0.5806,-1.0,1.0,1.0,0.0,0.013,0.019,0.084,0.0,0.13,0.026,0.006,0.033,0.292,0.123,0.0,0.013,0.006,0.006,0.006,0.071,0.019,-0.0874,-0.9158,0.7026,-0.1779,-1.0738,0.4648,0.3712,-1.06,0.4893,-0.5062,-0.0031,-0.1427,-0.3881,0.2132,-0.2715,0.046,0.1503,-0.2286,-0.2928,-0.2991,-0.2815,0.3134,-0.3057,0.2122,0.3097,-0.2085,0.3246,-0.314,0.3055,-0.3089,0.2931,0.219,0.288,-0.2942,0.0171,0.2926,1.8672,-0.3293,0.1875,0.144,-0.3204,-0.6573,1.0,-1.0,1.0,-1.0,1.0,1.0,1.0,-0.498,-1.0,-1.0,-0.4232,1.0,1.0,-0.7217,-1.0,1.0,1.0,0.0,0.0,0.0,0.0,0.0,0.0,0.0,0.0,0.0,0.3333,0.0,0.3333,0.0,0
4.48,run,22.95,1.41,21.7,23.43,-19.7,0.0,0.05,0.0,0.604,-7.73,-37.62,116.02,-6.77,-47.99,107.49,24.17,-43.07,109.69,-31.64,18.28,67.5,-19.6,29.79,65.48,-0.53,25.66,67.15,-12.5,-52.16,104.25,1.0,-79.56,112.81,31.38,-34.41,128.62,-35.0,17.23,61.9,-14.0,30.0,61.99,-10.68,30.0,78.93,0.7471,1.0,-1.0,1.0,-1.0,1.0,1.0,1.0,-1.0,-1.0,-1.0,0.4817,1.0,1.0,-0.4194,-1.0,1.0,1.0,0.0,0.013,0.019,0.084,0.0,0.13,0.026,0.006,0.033,0.292,0.123,0.0,0.013,0.006,0.006,0.006,0.071,0.019,-0.1135,-0.9403,0.678,-0.1534,-1.0983,0.4863,0.3958,-1.063,0.5139,-0.5277,0.0215,-0.1672,-0.3651,0.2255,-0.25,0.0199,0.1519,-0.204,-0.3022,-0.3009,-0.2886,0.3109,-0.3055,0.2287,0.3083,-0.1574,0.3188,-0.2999,0.3054,-0.3078,0.291,0.1991,0.2817,-0.3032,0.0177,0.2964,1.9074,-0.2907,0.1964,0.1799,-0.383,-0.2232,1.0,-1.0,1.0,-1.0,1.0,1.0,1.0,-0.9078,-1.0,-1.0,0.1529,1.0,1.0,-0.5806,-1.0,1.0,1.0,0.0,0.0,0.0,0.0,0.0,0.0,0.0,0.0,0.0,0.3333,0.0,0.3333,0.0,0
4.52,run,23.47,1.86,11.46,9.28,-16.32,0.0,0.05,0.0,0.604,-9.23,-38.58,114.61,-5.27,-49.48,108.63,25.58,-42.45,111.09,-32.43,19.34,66.09,-18.11,29.97,66.01,-1.85,26.46,68.47,-11.0,-50.66,102.75,2.5,-80.0,114.31,32.88,-35.91,127.12,-35.0,15.73,63.4,-12.5,30.0,60.49,-12.18,30.0,80.43,1.0,1.0,-1.0,1.0,-1.0,1.0,1.0,-0.8044,-1.0,-1.0,-1.0,1.0,1.0,1.0,-0.718,-1.0,1.0,1.0,0.0,0.013,0.019,0.084,0.0,0.13,0.026,0.006,0.033,0.292,0.123,0.0,0.013,0.006,0.006,0.006,0.071,0.019,-0.1381,-0.9633,0.6504,-0.1273,-1.1259,0.5093,0.4218,-1.0584,0.54,-0.5507,0.0445,-0.1902,-0.339,0.2301,-0.2316,-0.0061,0.1641,-0.1795,-0.3035,-0.2969,-0.3055,0.3154,-0.3173,0.2463,0.3135,-0.0929,0.3208,-0.2962,0.3,-0.3017,0.3014,0.1566,0.2662,-0.31,0.0584,0.2994,1.9783,-0.2138,0.3787,0.409,-0.3438,0.7471,1.0,-1.0,1.0,-1.0,1.0,1.0,1.0,-1.0,-1.0,-1.0,0.4817,1.0,1.0,-0.4194,-1.0,1.0,1.0,0.0,0.0,0.0,0.0,0.0,0.0,0.0,0.0,0.0,0.3333,0.0,0.3333,0.0,0
4.56,run,23.62,2.29,3.18,8.32,-19.21,0.0,0.05,0.0,0.604,-10.55,-40.17,113.12,-3.87,-50.89,110.04,26.89,-41.48,112.59,-33.31,20.04,64.86,-16.7,29.97,66.27,-3.25,27.07,69.87,-9.5,-49.16,101.25,4.0,-80.0,115.81,31.38,-34.41,125.62,-35.0,14.23,64.9,-11.0,30.0,61.99,-13.68,30.0,81.93,1.0,1.0,-0.9204,1.0,-1.0,1.0,-0.121,0.4231,-1.0,-1.0,-1.0,0.6288,1.0,1.0,-0.0247,-1.0,1.0,1.0,0.0,0.013,0.019,0.058,0.0,0.175,0.026,0.013,0.026,0.111,0.039,0.0,0.013,0.0,0.0,0.006,0.143,0.033,-0.1641,-0.9802,0.6259,-0.1012,-1.152,0.5292,0.4464,-1.0477,0.5645,-0.5645,0.0629,-0.2148,-0.3129,0.2332,-0.2224,-0.0291,0.1779,-0.1565,-0.3102,-0.271,-0.3058,0.3185,-0.3198,0.2471,0.3114,-0.0248,0.3165,-0.259,0.279,-0.3031,0.3087,0.1211,0.2208,-0.3032,0.0926,0.2958,2.0237,-0.175,0.2,0.1619,-0.2848,1.0,1.0,-1.0,1.0,-1.0,1.0,1.0,-0.8044,-1.0,-1.0,-1.0,1.0,1.0,1.0,-0.718,-1.0,1.0,1.0,0.0,0.0,0.0,0.0,0.0,0.0,0.0,0.0,0.0,0.3333,0.0,0.3333,0.0,0
4.6,run,24.16,3.09,13.05,18.49,-14.75,0.0,0.05,0.0,0.604,-11.16,-41.57,111.18,-2.46,-52.38,111.45,28.21,-40.34,113.99,-33.75,20.21,63.98,-15.29,29.97,66.18,-4.75,27.42,71.1,-8.0,-47.66,99.75,5.5,-80.0,117.31,29.88,-35.4,124.12,-35.0,12.73,66.4,-9.5,30.0,60.49,-15.18,28.5,83.43,1.0,1.0,-1.0,1.0,-1.0,1.0,0.1871,-0.189,-1.0,-1.0,-1.0,0.5609,1.0,1.0,-0.9471,-1.0,0.7715,1.0,0.0,0.013,0.019,0.058,0.0,0.175,0.026,0.013,0.026,0.111,0.039,0.0,0.013,0.0,0.0,0.006,0.143,0.033,-0.1871,-1.0078,0.5998,-0.0767,-1.1766,0.5538,0.4694,-1.0308,0.5906,-0.5798,0.0752,-0.2362,-0.2884,0.2332,-0.2178,-0.0537,0.1887,-0.1319,-0.3034,-0.2932,-0.3118,0.3149,-0.3159,0.265,0.3043,0.0459,0.3193,-0.2388,0.2413,-0.2927,0.3081,0.0848,0.1718,-0.3042,0.1051,0.2991,2.0364,-0.1376,0.0554,0.1452,-0.3353,1.0,1.0,-0.9204,1.0,-1.0,1.0,-0.121,0.4231,-1.0,-1.0,-1.0,0.6288,1.0,1.0,-0.0247,-1.0,1.0,1.0,0.0,0.0,0.0,0.0,0.0,0.0,0.0,0.0,0.0,0.3333,0.0,0.3333,0.0,0
4.64,run,24.44,3.44,5.58,7.31,-9.53,0.0,0.05,0.0,0.604,-12.04,-42.89,110.13,-0.88,-53.7,112.68,29.36,-38.85,115.49,-33.93,20.3,63.28,-13.89,29.97,65.65,-6.15,27.6,72.42,-6.5,-46.16,98.25,7.0,-80.0,118.81,28.38,-36.9,122.62,-35.0,11.23,67.9,-8.0,30.0,58.99,-16.68,30.0,84.93,1.0,1.0,-1.0,1.0,-1.0,1.0,-0.6546,-1.0,-1.0,-1.0,-1.0,1.0,1.0,1.0,-0.5127,-1.0,1.0,1.0,0.0,0.013,0.019,0.058,0.0,0.175,0.026,0.013,0.026,0.111,0.039,0.0,0.013,0.0,0.0,0.006,0.143,0.033,-0.1979,-1.0324,0.566,-0.0522,-1.2026,0.5783,0.4924,-1.0109,0.6151,-0.5875,0.0782,-0.2516,-0.2638,0.2332,-0.2194,-0.0798,0.1948,-0.1104,-0.2526,-0.2973,-0.3448,0.3125,-0.3189,0.2775,0.2993,0.1069,0.3156,-0.1959,0.1804,-0.2624,0.3077,0.0593,0.1145,-0.3108,0.0966,0.2899,2.084,-0.0676,0.2278,0.3226,-0.2574,1.0,1.0,-1.0,1.0,-1.0,1.0,0.1871,-0.189,-1.0,-1.0,-1.0,0.5609,1.0,1.0,-0.9471,-1.0,0.7715,1.0,0.0,0.0,0.0,0.0,0.0,0.0,0.0,0.0,0.0,0.3333,0.0,0.3333,0.0,0
4.68,run,24.37,3.55,-2.04,1.4,-12.07,0.0,0.05,0.0,0.604,-12.39,-44.38,108.72,0.7,-55.2,114.35,30.23,-37.44,116.89,-34.19,19.95,63.11,-12.39,29.97,64.6,-7.65,27.6,73.92,-5.0,-44.66,96.75,5.5,-80.0,120.31,26.88,-38.4,121.12,-35.0,9.73,69.4,-6.5,30.0,57.49,-18.18,28.5,86.43,1.0,1.0,-1.0,-0.0843,-1.0,1.0,-1.0,-1.0,-1.0,-1.0,-1.0,1.0,1.0,1.0,-0.3401,-1.0,-0.1739,1.0,0.006,0.019,0.026,0.033,0.0,0.175,0.013,0.006,0.026,0.045,0.006,0.0,0.006,0.0,0.013,0.006,0.123,0.058,-0.2132,-1.0554,0.5476,-0.0245,-1.2257,0.5998,0.5123,-0.9848,0.6412,-0.5906,0.0798,-0.2638,-0.2393,0.2332,-0.2286,-0.1043,0.1979,-0.0874,-0.2345,-0.2946,-0.3105,0.3225,-0.3097,0.275,0.2844,0.1728,0.3189,-0.1487,0.132,-0.2298,0.3076,0.0415,0.0456,-0.3098,0.0791,0.2894,2.1084,-0.0366,0.0974,0.1276,-0.1664,1.0,1.0,-1.0,1.0,-1.0,1.0,-0.6546,-1.0,-1.0,-1.0,-1.0,1.0,1.0,1.0,-0.5127,-1.0,1.0,1.0,0.0,0.0,0.0,0.0,0.0,0.0,0.0,0.0,0.0,0.3333,0.0,0.3333,0.0,0
4.72,run,24.12,3.47,-7.18,-3.9,-13.41,0.0,0.05,0.0,0.604,-12.39,-45.35,107.58,2.11,-56.51,115.75,30.76,-36.47,118.12,-34.28,19.25,63.02,-10.99,29.97,63.46,-9.05,27.6,75.06,-3.5,-43.16,95.25,4.0,-80.0,121.81,25.38,-39.9,119.62,-35.0,8.23,70.9,-5.0,30.0,58.99,-19.68,27.0,87.93,1.0,1.0,-1.0,-1.0,-1.0,1.0,-1.0,-1.0,-1.0,-1.0,-1.0,1.0,1.0,1.0,0.1117,-1.0,-0.8007,1.0,0.006,0.019,0.026,0.033,0.0,0.175,0.013,0.006,0.026,0.045,0.006,0.0,0.006,0.0,0.013,0.006,0.123,0.058,-0.2194,-1.0815,0.5231,0.0031,-1.2517,0.6289,0.5277,-0.9603,0.6657,-0.5952,0.0736,-0.2669,-0.2132,0.2332,-0.247,-0.1304,0.1979,-0.0614,-0.1853,-0.296,-0.3019,0.3208,-0.3066,0.2928,0.2519,0.2055,0.3077,-0.1199,0.0713,-0.1714,0.3051,0.0291,-0.0315,-0.3066,0.0554,0.2923,2.1022,-0.0269,-0.0356,0.0245,-0.2106,1.0,1.0,-1.0,-0.0843,-1.0,1.0,-1.0,-1.0,-1.0,-1.0,-1.0,1.0,1.0,1.0,-0.3401,-1.0,-0.1739,1.0,0.0,0.0,0.0,0.0,0.0,0.0,0.0,0.0,0.0,0.3333,0.0,0.3333,0.0,0
4.76,run,23.79,3.31,-8.31,-5.51,-12.37,0.0,0.05,0.0,0.604,-11.78,-46.23,105.91,3.25,-57.83,117.16,30.94,-35.86,119.18,-34.28,18.02,63.46,-9.58,29.97,62.14,-10.46,27.6,76.38,-2.0,-41.66,93.75,2.5,-80.0,123.31,23.88,-41.4,118.12,-35.0,6.73,72.4,-3.5,30.0,60.49,-21.18,25.5,89.43,1.0,1.0,-0.5447,-1.0,-1.0,1.0,-1.0,-1.0,-1.0,-1.0,-1.0,1.0,1.0,1.0,0.5145,-1.0,-1.0,1.0,0.006,0.019,0.026,0.033,0.0,0.175,0.013,0.006,0.026,0.045,0.006,0.0,0.006,0.0,0.013,0.006,0.123,0.058,-0.2194,-1.0983,0.5031,0.0276,-1.2747,0.6535,0.5369,-0.9434,0.6872,-0.5967,0.0614,-0.2684,-0.1887,0.2332,-0.2669,-0.1549,0.1979,-0.0414,-0.1297,-0.2734,-0.2895,0.3208,-0.3049,0.3013,0.2124,0.21,0.2997,-0.09,0.0018,-0.126,0.3099,0.0204,-0.1003,-0.3109,0.0388,0.2829,2.0799,-0.0346,-0.1254,-0.068,-0.234,1.0,1.0,-1.0,-1.0,-1.0,1.0,-1.0,-1.0,-1.0,-1.0,-1.0,1.0,1.0,1.0,0.1117,-1.0,-0.8007,1.0,0.0,0.0,0.0,0.0,0.0,0.0,0.0,0.0,0.0,0.3333,0.0,0.3333,0.0,0
4.8,run,23.46,3.1,-7.76,-7.19,-11.42,0.0,0.05,0.0,0.604,-10.81,-46.76,104.41,4.13,-59.15,118.74,30.85,-35.6,119.97,-34.28,16.7,64.16,-8.17,29.97,60.82,-11.87,27.25,77.61,-0.5,-40.16,92.25,1.0,-80.0,124.81,22.38,-42.9,116.62,-35.0,5.23,73.9,-2.0,30.0,61.99,-22.68,24.0,90.93,1.0,1.0,-0.2994,-1.0,-1.0,1.0,-1.0,-1.0,-1.0,-1.0,-1.0,1.0,1.0,1.0,0.4889,-1.0,-1.0,1.0,0.006,0.006,0.013,0.019,0.0,0.052,0.013,0.0,0.019,0.033,0.006,0.026,0.013,0.0,0.006,0.006,0.0,0.117,-0.2086,-1.1137,0.474,0.0476,-1.2977,0.678,0.54,-0.9327,0.7056,-0.5967,0.0399,-0.2608,-0.1641,0.2332,-0.2899,-0.1795,0.1979,-0.0184,-0.0509,-0.2483,-0.3108,0.2986,-0.2988,0.3019,0.1601,0.1869,0.2781,-0.063,-0.0784,-0.0598,0.308,0.0142,-0.1556,-0.3087,0.0271,0.2834,2.051,-0.0486,-0.1451,-0.0963,-0.2159,1.0,1.0,-0.5447,-1.0,-1.0,1.0,-1.0,-1.0,-1.0,-1.0,-1.0,1.0,1.0,1.0,0.5145,-1.0,-1.0,1.0,0.0,0.0,0.0,0.0,0.0,0.0,0.0,0.0,0.0,0.3333,0.0,0.3333,0.0,0
4.84,run,23.24,3.08,-5.18,-2.03,-8.71,0.0,0.05,0.0,0.604,-9.84,-46.93,103.01,4.75,-60.47,120.23,30.67,-35.6,120.41,-34.37,15.38,65.21,-6.77,29.97,59.94,-13.27,26.19,78.93,1.0,-38.66,90.75,-0.5,-80.0,126.31,20.88,-44.4,115.12,-35.0,3.73,75.4,-0.5,30.0,63.49,-24.18,22.5,92.43,1.0,1.0,-0.0194,-1.0,-1.0,1.0,-1.0,-1.0,-1.0,-1.0,-1.0,1.0,1.0,1.0,0.5712,-1.0,-1.0,1.0,0.006,0.006,0.013,0.019,0.0,0.052,0.013,0.0,0.019,0.033,0.006,0.026,0.013,0.0,0.006,0.006,0.0,0.117,-0.1917,-1.1229,0.4479,0.0629,-1.3208,0.7056,0.5384,-0.9281,0.7194,-0.5967,0.0169,-0.2485,-0.1396,0.2332,-0.3129,-0.204,0.1917,0.0031,0.0278,-0.2084,-0.3156,0.2667,-0.2956,0.3152,0.1063,0.1481,0.2465,-0.0441,-0.1414,0.0043,0.3078,0.01,-0.1954,-0.3084,-0.0041,0.2791,2.0222,-0.0667,-0.1355,-0.1254,-0.1993,1.0,1.0,-0.2994,-1.0,-1.0,1.0,-1.0,-1.0,-1.0,-1.0,-1.0,1.0,1.0,1.0,0.4889,-1.0,-1.0,1.0,0.0,0.0,0.0,0.0,0.0,0.0,0.0,0.0,0.0,0.3333,0.0,0.3333,0.0,0
4.88,run,23.08,3.16,-2.65,1.09,-12.02,0.0,0.05,0.0,0.604,-8.17,-46.85,101.25,4.83,-62.14,122.08,29.27,-36.21,120.59,-34.37,13.62,66.97,-5.01,29.97,59.24,-15.03,24.61,80.68,2.5,-37.16,89.25,-2.0,-80.0,127.81,19.38,-45.9,113.62,-35.0,2.23,76.9,1.0,30.0,64.99,-25.68,21.0,93.93,1.0,1.0,0.1995,-1.0,-1.0,1.0,-1.0,-0.9317,-1.0,-1.0,-1.0,1.0,1.0,1.0,0.5429,-1.0,-1.0,0.8302,0.006,0.006,0.013,0.019,0.0,0.052,0.013,0.0,0.019,0.033,0.006,0.026,0.013,0.0,0.006,0.006,0.0,0.117,-0.1749,-1.1259,0.4234,0.0736,-1.3438,0.7317,0.5354,-0.9281,0.7271,-0.5983,-0.0061,-0.2301,-0.115,0.2332,-0.3283,-0.2286,0.1733,0.0261,0.0831,-0.1574,-0.3135,0.2272,-0.2937,0.3189,0.0628,0.1037,0.2015,-0.0366,-0.1857,0.0724,0.308,0.007,-0.1946,-0.3084,-0.0723,0.2821,2.0032,-0.0684,-0.0905,-0.0355,-0.152,1.0,1.0,-0.0194,-1.0,-1.0,1.0,-1.0,-1.0,-1.0,-1.0,-1.0,1.0,1.0,1.0,0.5712,-1.0,-1.0,1.0,0.0,0.0,0.0,0.0,0.0,0.0,0.0,0.0,0.0,0.3333,0.0,0.3333,0.0,0
4.92,run,23.01,3.2,-2.22,-0.71,-13.56,0.0,0.05,0.0,0.604,-7.03,-46.49,100.2,4.83,-63.19,123.22,28.3,-37.09,120.59,-34.45,12.57,68.12,-4.04,29.97,58.97,-16.08,23.82,81.83,4.0,-35.66,90.75,-3.5,-80.0,129.31,17.88,-47.4,112.12,-35.0,0.73,78.4,2.5,30.0,66.49,-27.18,19.5,92.43,1.0,1.0,0.6529,-1.0,-1.0,0.9517,-1.0,-0.5925,-1.0,-1.0,-1.0,1.0,1.0,1.0,0.4429,-1.0,-1.0,-0.1225,0.006,0.013,0.013,0.013,0.0,0.058,0.026,0.006,0.006,0.013,0.013,0.019,0.013,0.0,0.006,0.013,0.0,0.084,-0.1457,-1.1244,0.3927,0.0752,-1.3729,0.7639,0.5108,-0.9388,0.7302,-0.5983,-0.0368,-0.1994,-0.0844,0.2332,-0.3405,-0.2592,0.1457,0.0568,0.147,-0.1055,-0.3129,0.1637,-0.2944,0.3215,-0.0308,0.0398,0.1504,-0.0256,-0.2235,0.1442,0.3091,0.0049,-0.1736,-0.3094,-0.1347,0.291,1.9893,-0.0608,-0.0462,0.019,-0.2098,1.0,1.0,0.1995,-1.0,-1.0,1.0,-1.0,-0.9317,-1.0,-1.0,-1.0,1.0,1.0,1.0,0.5429,-1.0,-1.0,0.8302,0.0,0.0,0.0,0.0,0.0,0.0,0.0,0.0,0.0,0.3333,0.0,0.3333,0.0,0
4.96,run,23.02,3.38,0.6,2.75,-16.33,0.0,0.05,0.0,0.604,-5.62,-45.44,98.79,4.31,-64.6,124.72,26.89,-38.14,120.15,-34.72,11.6,69.61,-2.55,29.97,59.06,-17.58,22.41,83.32,5.5,-34.16,92.25,-5.0,-80.0,130.81,16.38,-45.9,110.62,-33.5,-0.77,79.9,4.0,30.0,67.99,-28.68,18.0,90.93,1.0,1.0,1.0,-1.0,-1.0,0.8234,-1.0,0.2372,-1.0,0.0122,-1.0,1.0,1.0,1.0,0.2881,-1.0,-1.0,-1.0,0.006,0.013,0.013,0.013,0.0,0.058,0.026,0.006,0.006,0.013,0.013,0.019,0.013,0.0,0.006,0.013,0.0,0.084,-0.1258,-1.1183,0.3743,0.0752,-1.3913,0.7839,0.4939,-0.9541,0.7302,-0.5998,-0.0552,-0.1795,-0.0675,0.2332,-0.3451,-0.2777,0.1319,0.0767,0.1994,-0.0442,-0.3081,0.1146,-0.2952,0.3215,-0.1032,-0.0463,0.1053,-0.0254,-0.2456,0.1975,0.2981,0.0034,-0.1438,-0.3057,-0.1611,0.3002,1.9833,-0.058,-0.0388,-0.0125,-0.2367,1.0,1.0,0.6529,-1.0,-1.0,0.9517,-1.0,-0.5925,-1.0,-1.0,-1.0,1.0,1.0,1.0,0.4429,-1.0,-1.0,-0.1225,0.0,0.0,0.0,0.0,0.0,0.0,0.0,0.0,0.0,0.3333,0.0,0.3333,0.0,0
5.0,run,22.98,3.66,-1.16,5.73,-16.01,0.0,0.05,0.0,0.604,-4.48,-44.38,97.29,3.43,-65.92,126.12,25.49,-39.46,119.36,-34.8,9.93,71.02,-1.14,29.97,59.68,-18.98,21.01,84.73,7.0,-32.66,93.75,-6.5,-80.0,129.31,14.88,-44.4,109.12,-32.0,-2.27,81.4,5.5,30.0,69.49,-30.18,16.5,89.43,1.0,1.0,1.0,-1.0,-1.0,0.4713,-1.0,-0.1168,-1.0,1.0,-1.0,1.0,0.966,1.0,0.4739,-1.0,-1.0,-1.0,0.006,0.013,0.013,0.013,0.0,0.058,0.026,0.006,0.006,0.013,0.013,0.019,0.013,0.0,0.006,0.013,0.0,0.084,-0.1012,-1.0999,0.3497,0.066,-1.4159,0.8099,0.4694,-0.9725,0.7225,-0.6044,-0.0721,-0.1534,-0.0414,0.2332,-0.3436,-0.3037,0.1074,0.1028,0.2327,0.0389,-0.3089,0.0453,-0.2998,0.3241,-0.1654,-0.1023,0.0446,-0.0352,-0.2359,0.2372,0.3076,0.0024,-0.0948,-0.3129,-0.206,0.3091,1.9844,-0.0421,0.0105,0.048,-0.2849,1.0,1.0,1.0,-1.0,-1.0,0.8234,-1.0,0.2372,-1.0,0.0122,-1.0,1.0,1.0,1.0,0.2881,-1.0,-1.0,-1.0,0.0,0.0,0.0,0.0,0.0,0.0,0.0,0.0,0.0,0.3333,0.0,0.3333,0.0,0
5.04,run,23.03,3.97,0.23,5.07,-13.3,0.0,0.048,0.0,0.604,-2.81,-43.24,95.54,2.72,-67.32,127.53,24.08,-40.78,118.56,-34.72,8.35,72.42,0.26,29.97,60.73,-20.39,19.69,86.13,8.5,-31.16,95.25,-8.0,-80.0,127.81,13.38,-42.9,107.62,-30.5,-3.77,82.9,7.0,30.0,70.99,-31.68,15.0,87.93,1.0,1.0,1.0,-1.0,-1.0,0.4152,-1.0,-0.0696,-1.0,1.0,-1.0,1.0,0.734,1.0,0.5617,-1.0,-1.0,-1.0,0.013,0.019,0.0,0.019,0.0,0.033,0.019,0.019,0.019,0.019,0.013,0.019,0.013,0.0,0.019,0.006,0.0,0.058,-0.0813,-1.0815,0.3237,0.0506,-1.4389,0.8345,0.4449,-0.9956,0.7087,-0.6059,-0.1012,-0.1289,-0.0169,0.2332,-0.3329,-0.3283,0.0828,0.1273,0.2369,0.0956,-0.313,-0.0252,-0.2953,0.3179,-0.2069,-0.157,-0.02,-0.0304,-0.2733,0.2571,0.3064,0.0017,-0.0265,-0.3102,-0.2353,0.3075,1.9811,-0.0172,-0.0202,0.1,-0.2793,1.0,1.0,1.0,-1.0,-1.0,0.4713,-1.0,-0.1168,-1.0,1.0,-1.0,1.0,0.966,1.0,0.4739,-1.0,-1.0,-1.0,0.0,0.0,0.0,0.0,0.0,0.0,0.0,0.0,0.0,0.32,0.0,0.32,0.0,0
5.08,run,23.0,4.21,-0.53,3.9,-5.91,0.0,0.046,0.0,0.604,-1.49,-41.66,94.83,1.14,-68.73,128.5,22.5,-42.01,116.98,-33.49,6.94,73.83,1.58,29.79,61.7,-21.88,18.28,87.1,10.0,-29.66,96.75,-9.5,-80.0,126.31,11.88,-41.4,106.12,-29.0,-5.27,84.4,8.5,30.0,72.49,-33.18,13.5,86.43,1.0,1.0,1.0,-1.0,-1.0,0.3935,-1.0,0.1541,-1.0,1.0,-1.0,1.0,0.5511,1.0,0.2963,-1.0,-1.0,-1.0,0.013,0.019,0.0,0.019,0.0,0.033,0.019,0.019,0.019,0.019,0.013,0.019,0.013,0.0,0.019,0.006,0.0,0.058,-0.0522,-1.0615,0.293,0.0383,-1.4634,0.859,0.4203,-1.0186,0.6949,-0.6044,-0.1289,-0.1043,0.0077,0.2332,-0.3145,-0.3528,0.0598,0.1519,0.2748,0.1415,-0.3338,-0.0636,-0.2985,0.3143,-0.2366,-0.196,-0.0656,-0.0155,-0.2946,0.2718,0.3063,0.0012,0.0503,-0.3089,-0.2507,0.307,1.985,0.009,0.004,0.0885,-0.2322,1.0,1.0,1.0,-1.0,-1.0,0.4152,-1.0,-0.0696,-1.0,1.0,-1.0,1.0,0.734,1.0,0.5617,-1.0,-1.0,-1.0,0.0,0.0,0.0,0.0,0.0,0.0,0.0,0.0,0.0,0.3067,0.0,0.3067,0.0,0
