t_s,phase,roll_deg,pitch_deg,gyro_x_dps,gyro_y_dps,gyro_z_dps,height_ref_mm,vx_ref_mps,vy_ref_mps,max_cur_a,q0_deg,q1_deg,q2_deg,q3_deg,q4_deg,q5_deg,q6_deg,q7_deg,q8_deg,q9_deg,q10_deg,q11_deg,q12_deg,q13_deg,q14_deg,q15_deg,q16_deg,q17_deg,cmd0_deg,cmd1_deg,cmd2_deg,cmd3_deg,cmd4_deg,cmd5_deg,cmd6_deg,cmd7_deg,cmd8_deg,cmd9_deg,cmd10_deg,cmd11_deg,cmd12_deg,cmd13_deg,cmd14_deg,cmd15_deg,cmd16_deg,cmd17_deg,act0,act1,act2,act3,act4,act5,act6,act7,act8,act9,act10,act11,act12,act13,act14,act15,act16,act17,cur0_a,cur1_a,cur2_a,cur3_a,cur4_a,cur5_a,cur6_a,cur7_a,cur8_a,cur9_a,cur10_a,cur11_a,cur12_a,cur13_a,cur14_a,cur15_a,cur16_a,cur17_a,obs0,obs1,obs2,obs3,obs4,obs5,obs6,obs7,obs8,obs9,obs10,obs11,obs12,obs13,obs14,obs15,obs16,obs17,obs18,obs19,obs20,obs21,obs22,obs23,obs24,obs25,obs26,obs27,obs28,obs29,obs30,obs31,obs32,obs33,obs34,obs35,obs36,obs37,obs38,obs39,obs40,obs41,obs42,obs43,obs44,obs45,obs46,obs47,obs48,obs49,obs50,obs51,obs52,obs53,obs54,obs55,obs56,obs57,obs58,obs59,obs60,obs61,obs62,obs63,obs64,obs65,obs66,obs67,obs68,obs69,obs70,obs71,rot60_k
0.0,run,4.99,4.24,0.57,-0.13,-0.94,0.0,0.0,0.0,0.058,0.09,16.88,79.01,0.62,14.06,77.7,0.18,16.26,77.7,0.53,16.26,78.93,0.0,18.19,79.45,-1.14,17.4,77.61,-1.41,15.81,77.78,-0.88,13.09,79.72,1.68,15.46,79.55,1.85,15.02,80.43,1.5,17.04,77.95,-2.29,16.17,79.11,-1.0,-1.0,-0.3111,-1.0,-1.0,1.0,1.0,-1.0,1.0,1.0,-1.0,1.0,0.2326,-1.0,-0.4339,-1.0,-1.0,1.0,0.019,0.006,0.0,0.013,0.006,0.058,0.006,0.006,0.013,0.006,0.0,0.013,0.006,0.0,0.019,0.006,0.0,0.006,0.0,0.0,-0.0046,0.0,0.0,-0.0092,0.0,0.0,-0.0061,0.0031,-0.0046,0.0,0.0,-0.0061,0.0,-0.0061,-0.0046,0.0,0.0,0.0,-0.0091,0.0,0.0,-0.0179,0.0,0.0,-0.0112,0.0056,-0.0084,0.0,0.0,-0.0119,0.0,-0.0112,-0.0084,0.0,0.0,0.0,-0.0098,-0.0266,0.0038,0.0,0.0,0.0,0.0,0.0,0.0,0.0,0.0,0.0,0.0,0.0,0.0,0.0,0.0,0.0,0.0,0.0,0.0,0.0,0.0,0.0,0.0,0.0,0.0,0.0,0.0,0.0,0.0,0.0,0.0,0.0,0
0.04,run,4.86,4.35,-1.34,1.28,4.28,0.0,0.0,0.0,0.058,-0.44,16.17,78.49,0.44,13.45,77.87,0.18,15.64,77.78,1.05,15.82,79.19,0.79,17.67,78.93,-1.85,16.88,77.7,-2.91,17.31,79.28,-2.38,11.59,81.22,0.18,13.96,78.05,3.35,13.52,81.93,0.0,15.54,79.45,-3.79,14.67,80.61,-1.0,1.0,1.0,-1.0,-1.0,1.0,-1.0,-1.0,-1.0,1.0,-1.0,1.0,-1.0,0.4797,1.0,-1.0,-1.0,1.0,0.019,0.006,0.0,0.013,0.006,0.058,0.006,0.006,0.013,0.006,0.0,0.013,0.006,0.0,0.019,0.006,0.0,0.006,0.0,-0.0077,-0.0046,0.0,-0.0092,-0.0092,0.0,-0.0123,-0.0061,0.0031,-0.0046,0.0,0.0,-0.0061,0.0,-0.0061,-0.0046,0.0,0.0,-0.0118,-0.0064,0.0,-0.0142,-0.0125,0.0,-0.019,-0.0078,0.0039,-0.0059,0.0,0.0,-0.0084,0.0,-0.0078,-0.0059,0.0,0.0059,0.0015,0.0099,-0.0022,-0.0165,-1.0,-1.0,-0.3111,-1.0,-1.0,1.0,1.0,-1.0,1.0,1.0,-1.0,1.0,0.2326,-1.0,-0.4339,-1.0,-1.0,1.0,0.0,0.0,0.0,0.0,0.0,0.0,0.0,0.0,0.0,0.0,0.0,0.0,0.0,0
0.08,run,4.64,4.35,-5.01,-0.93,4.19,0.0,0.0,0.0,0.058,-1.05,15.73,78.05,0.0,12.83,78.57,0.53,14.94,78.05,1.76,15.21,79.8,1.23,16.96,78.49,-2.37,16.35,78.13,-4.41,18.81,80.78,-3.88,10.09,82.72,-1.32,15.46,79.55,4.85,12.02,83.43,-1.5,17.04,80.95,-5.29,13.17,82.11,-0.598,1.0,0.316,-1.0,-1.0,1.0,-1.0,1.0,1.0,1.0,-1.0,1.0,-0.5664,1.0,1.0,-1.0,-1.0,1.0,0.019,0.006,0.0,0.013,0.006,0.058,0.006,0.006,0.013,0.006,0.0,0.013,0.006,0.0,0.019,0.006,0.0,0.006,-0.0092,-0.0199,-0.0138,-0.0031,-0.0199,-0.0061,0.0,-0.023,-0.0046,0.0123,-0.0123,0.0046,0.0138,-0.0153,-0.0092,-0.0184,-0.0138,0.0015,-0.0223,-0.038,-0.0268,-0.0074,-0.036,-0.0013,0.0,-0.0393,-0.0017,0.025,-0.0227,0.0112,0.0335,-0.0282,-0.0223,-0.0352,-0.0264,0.0037,-0.0061,0.0107,-0.0233,0.0223,0.0747,-1.0,1.0,1.0,-1.0,-1.0,1.0,-1.0,-1.0,-1.0,1.0,-1.0,1.0,-1.0,0.4797,1.0,-1.0,-1.0,1.0,0.0,0.0,0.0,0.0,0.0,0.0,0.0,0.0,0.0,0.0,0.0,0.0,0.0,0
0.12,run,4.46,4.46,-2.87,2.21,-3.67,0.0,0.0,0.0,0.091,-1.85,15.56,77.87,-0.7,12.13,79.37,1.05,14.59,78.4,2.55,14.5,80.6,1.32,16.52,78.4,-3.25,15.64,78.84,-5.91,20.31,79.28,-5.38,8.59,84.22,-2.82,16.96,81.05,6.35,10.52,84.93,0.0,15.54,79.45,-6.79,11.67,83.61,-1.0,1.0,0.0516,-1.0,-1.0,1.0,-1.0,1.0,1.0,1.0,-1.0,1.0,1.0,0.0014,-1.0,-1.0,-1.0,1.0,0.026,0.013,0.0,0.033,0.0,0.091,0.006,0.006,0.033,0.013,0.0,0.045,0.006,0.0,0.0,0.0,0.0,0.026,-0.0199,-0.0276,-0.0215,-0.0107,-0.0307,0.0061,0.0061,-0.0353,0.0,0.0245,-0.023,0.0153,0.0215,-0.0276,-0.0169,-0.0276,-0.023,0.0092,-0.0615,-0.0594,-0.0515,-0.038,-0.071,0.0515,0.0262,-0.0799,0.0184,0.0699,-0.0617,0.0537,0.0562,-0.0721,-0.0484,-0.0639,-0.0578,0.0353,-0.025,0.0108,-0.0875,-0.0163,0.0732,-0.598,1.0,0.316,-1.0,-1.0,1.0,-1.0,1.0,1.0,1.0,-1.0,1.0,-0.5664,1.0,1.0,-1.0,-1.0,1.0,0.0,0.0,0.0,0.0,0.0,0.0,0.0,0.0,0.0,0.0,0.0,0.0,0.0,0
0.16,run,3.97,4.56,-10.85,3.02,-6.26,0.0,0.0,0.0,0.091,-2.99,15.56,77.87,-1.76,11.07,80.6,1.05,14.24,78.93,3.6,13.45,81.65,1.23,15.73,78.57,-4.48,14.5,79.89,-7.41,21.81,77.78,-6.88,7.09,85.72,-4.32,15.46,79.55,7.85,9.02,86.43,1.5,17.04,80.95,-8.29,10.17,85.11,-1.0,1.0,-0.0312,-1.0,-0.2819,1.0,-0.2369,-0.0288,-0.4746,1.0,-1.0,1.0,1.0,0.8299,1.0,-1.0,-1.0,1.0,0.026,0.013,0.0,0.033,0.0,0.091,0.006,0.006,0.033,0.013,0.0,0.045,0.006,0.0,0.0,0.0,0.0,0.026,-0.0337,-0.0307,-0.0245,-0.023,-0.043,0.0199,0.0153,-0.0414,0.0061,0.0383,-0.0353,0.0291,0.023,-0.0353,-0.0184,-0.043,-0.0353,0.0215,-0.0945,-0.053,-0.0475,-0.0723,-0.0955,0.0875,0.0527,-0.0788,0.0358,0.1004,-0.089,0.089,0.045,-0.0791,-0.0396,-0.102,-0.0862,0.0705,-0.041,0.0202,-0.0501,0.0386,-0.064,-1.0,1.0,0.0516,-1.0,-1.0,1.0,-1.0,1.0,1.0,1.0,-1.0,1.0,1.0,0.0014,-1.0,-1.0,-1.0,1.0,0.0,0.0,0.0,0.0,0.0,0.0,0.0,0.0,0.0,0.0,0.0,0.0,0.0,0
0.2,run,3.82,4.7,-4.49,4.45,-7.79,0.0,0.0,0.0,0.091,-4.31,15.56,77.96,-2.9,9.84,82.0,0.97,14.24,79.54,4.66,12.22,83.06,0.62,15.29,79.1,-5.71,13.36,81.04,-8.91,23.31,79.28,-8.38,5.59,87.22,-5.82,16.96,81.05,9.35,7.52,87.93,3.0,15.54,82.45,-9.79,8.67,86.61,-1.0,1.0,0.7088,-1.0,-0.9102,1.0,-1.0,1.0,0.8374,1.0,-1.0,1.0,1.0,-1.0,1.0,-1.0,-1.0,1.0,0.026,0.013,0.0,0.033,0.0,0.091,0.006,0.006,0.033,0.013,0.0,0.045,0.006,0.0,0.0,0.0,0.0,0.026,-0.0537,-0.0307,-0.0245,-0.0414,-0.0614,0.0414,0.0153,-0.0476,0.0153,0.0568,-0.0537,0.0476,0.0215,-0.0491,-0.0153,-0.0644,-0.0552,0.0399,-0.1352,-0.0371,-0.0332,-0.1143,-0.1305,0.1356,0.0369,-0.0764,0.0569,0.134,-0.126,0.126,0.0262,-0.1031,-0.0171,-0.1457,-0.1293,0.113,-0.0838,0.029,-0.1894,0.0527,-0.1093,-1.0,1.0,-0.0312,-1.0,-0.2819,1.0,-0.2369,-0.0288,-0.4746,1.0,-1.0,1.0,1.0,0.8299,1.0,-1.0,-1.0,1.0,0.0,0.0,0.0,0.0,0.0,0.0,0.0,0.0,0.0,0.0,0.0,0.0,0.0,0
0.24,run,3.62,4.6,-6.4,-1.64,-10.65,0.0,0.0,0.0,0.195,-5.62,16.0,78.05,-4.31,8.61,83.41,0.62,14.24,79.98,6.24,10.99,84.38,0.53,15.12,79.8,-7.12,12.04,82.35,-7.41,24.81,80.78,-9.88,7.09,88.72,-4.32,15.46,79.55,10.85,6.02,89.43,1.5,14.04,83.95,-11.29,7.17,88.11,0.3063,1.0,0.7049,-1.0,0.847,1.0,-0.0179,-1.0,-0.6787,1.0,-1.0,1.0,-0.1137,-0.1893,1.0,-1.0,-1.0,1.0,0.013,0.143,0.033,0.039,0.0,0.052,0.019,0.195,0.013,0.013,0.006,0.019,0.006,0.0,0.019,0.0,0.0,0.039,-0.0767,-0.0307,-0.023,-0.0614,-0.0828,0.066,0.0138,-0.0476,0.0261,0.0752,-0.0752,0.0721,0.0107,-0.0568,-0.0061,-0.0859,-0.0752,0.0598,-0.1887,-0.026,-0.017,-0.1615,-0.1792,0.1952,0.0195,-0.0535,0.0837,0.169,-0.176,0.1885,-0.0255,-0.1035,0.0257,-0.1898,-0.1721,0.1606,-0.0966,0.0413,-0.0783,0.0776,-0.136,-1.0,1.0,0.7088,-1.0,-0.9102,1.0,-1.0,1.0,0.8374,1.0,-1.0,1.0,1.0,-1.0,1.0,-1.0,-1.0,1.0,0.0,0.0,0.0,0.0,0.0,0.0,0.0,0.0,0.0,0.0,0.0,0.0,0.0,0
0.28,run,3.0,4.52,-14.31,-1.5,-11.43,0.0,0.0,0.0,0.195,-7.03,17.14,78.57,-6.15,7.21,85.34,-1.05,14.77,80.33,7.82,9.23,86.31,0.79,14.59,81.47,-8.96,10.28,84.11,-5.91,26.31,79.28,-11.38,5.59,87.22,-5.82,16.96,81.05,12.35,4.52,90.93,3.0,12.54,85.45,-12.79,5.67,89.61,0.1211,1.0,-0.2253,-1.0,-1.0,-1.0,-1.0,1.0,0.7154,1.0,-1.0,1.0,0.9615,0.5252,1.0,-1.0,-1.0,1.0,0.013,0.143,0.033,0.039,0.0,0.052,0.019,0.195,0.013,0.013,0.006,0.019,0.006,0.0,0.019,0.0,0.0,0.039,-0.0997,-0.023,-0.0215,-0.0859,-0.1043,0.0905,0.0077,-0.0476,0.0337,0.1028,-0.0966,0.0951,0.0092,-0.0598,0.0061,-0.1104,-0.0982,0.0828,-0.2126,0.0087,-0.0065,-0.199,-0.2006,0.2225,-0.0078,-0.0374,0.0854,0.215,-0.1983,0.2125,-0.0232,-0.0832,0.0609,-0.2187,-0.201,0.193,-0.1143,0.0324,-0.1116,-0.0287,-0.1858,0.3063,1.0,0.7049,-1.0,0.847,1.0,-0.0179,-1.0,-0.6787,1.0,-1.0,1.0,-0.1137,-0.1893,1.0,-1.0,-1.0,1.0,0.0,0.0,0.0,0.0,0.0,0.0,0.0,0.0,0.0,0.0,0.0,0.0,0.0,0
0.32,run,2.84,4.45,-4.55,-2.56,-5.69,0.0,0.0,0.0,0.195,-7.73,18.19,79.1,-7.47,6.42,86.57,-1.93,14.94,80.33,9.05,8.0,87.54,1.32,13.89,82.53,-10.11,8.96,85.34,-7.41,27.81,80.78,-12.88,7.09,88.72,-7.32,18.46,82.55,13.85,3.02,92.43,4.5,11.04,83.95,-14.29,4.17,91.11,-1.0,1.0,0.4267,-1.0,0.7038,1.0,-1.0,1.0,1.0,1.0,-1.0,1.0,0.2031,-1.0,-1.0,-1.0,-1.0,1.0,0.013,0.143,0.033,0.039,0.0,0.052,0.019,0.195,0.013,0.013,0.006,0.019,0.006,0.0,0.019,0.0,0.0,0.039,-0.1243,-0.0031,-0.0123,-0.1181,-0.1289,0.1243,-0.0215,-0.0383,0.0399,0.1304,-0.1273,0.1289,0.0138,-0.069,0.0353,-0.1427,-0.1289,0.1135,-0.2229,0.0663,0.0232,-0.2366,-0.2145,0.2577,-0.0935,0.0016,0.0783,0.2339,-0.2315,0.2507,-0.0024,-0.086,0.1307,-0.2504,-0.2333,0.2277,-0.1682,0.026,-0.2498,-0.0262,-0.1995,0.1211,1.0,-0.2253,-1.0,-1.0,-1.0,-1.0,1.0,0.7154,1.0,-1.0,1.0,0.9615,0.5252,1.0,-1.0,-1.0,1.0,0.0,0.0,0.0,0.0,0.0,0.0,0.0,0.0,0.0,0.0,0.0,0.0,0.0,0
0.36,run,2.51,4.3,-9.08,-4.71,-5.92,0.0,0.0,0.0,0.331,-8.26,19.34,79.37,-8.79,5.89,87.45,-3.08,15.03,80.33,10.37,6.77,88.95,1.93,12.92,83.58,-11.43,7.73,86.75,-8.91,26.31,79.28,-14.38,8.59,87.22,-8.82,16.96,81.05,15.35,1.52,93.93,3.0,9.54,85.45,-15.79,2.67,92.61,-1.0,-0.2894,-0.5702,-1.0,1.0,-0.8921,-1.0,-1.0,-1.0,1.0,-1.0,1.0,-1.0,0.2234,1.0,-1.0,-1.0,0.8713,0.019,0.279,0.033,0.026,0.0,0.019,0.052,0.331,0.013,0.026,0.006,0.019,0.013,0.0,0.006,0.006,0.006,0.033,-0.1365,0.0153,-0.0031,-0.1411,-0.1427,0.1457,-0.0368,-0.0353,0.0399,0.1519,-0.1488,0.1503,0.023,-0.0813,0.0537,-0.1626,-0.1519,0.135,-0.2013,0.1143,0.0502,-0.2505,-0.2011,0.2596,-0.122,0.0124,0.0548,0.2429,-0.2413,0.2547,0.0323,-0.1055,0.1594,-0.2488,-0.2482,0.2386,-0.1818,0.0191,-0.0794,-0.0447,-0.0993,-1.0,1.0,0.4267,-1.0,0.7038,1.0,-1.0,1.0,1.0,1.0,-1.0,1.0,0.2031,-1.0,-1.0,-1.0,-1.0,1.0,0.0,0.0,0.0,0.0,0.0,0.0,0.0,0.0,0.0,0.0,0.0,0.0,0.0,0
0.4,run,2.64,4.25,0.12,-0.03,-0.17,0.0,0.0,0.0,0.357,-10.2,23.2,79.28,-15.56,6.59,85.61,-9.14,15.91,81.74,16.7,0.18,95.27,1.49,7.82,87.19,-17.31,1.23,93.6,-10.41,24.81,80.78,-15.88,7.09,85.72,-10.32,18.46,82.55,16.85,0.02,95.43,1.5,8.04,86.95,-17.29,1.17,94.11,-1.0,-1.0,0.288,-1.0,0.1985,-1.0,-1.0,1.0,1.0,1.0,-1.0,1.0,-1.0,-0.7855,1.0,-1.0,-1.0,1.0,0.006,0.058,0.065,0.006,0.006,0.0,0.033,0.357,0.019,0.006,0.0,0.0,0.0,0.006,0.013,0.0,0.0,0.013,-0.1457,0.0353,0.0015,-0.1641,-0.1519,0.1611,-0.0568,-0.0337,0.0399,0.1749,-0.1703,0.1749,0.0337,-0.0982,0.0721,-0.1856,-0.1733,0.1595,-0.1756,0.1552,0.0525,-0.2621,-0.1755,0.2396,-0.1606,0.0145,0.0384,0.2568,-0.2499,0.2708,0.0631,-0.1375,0.181,-0.261,-0.2547,0.2596,-0.2108,0.0062,-0.1585,-0.0823,-0.1033,-1.0,-0.2894,-0.5702,-1.0,1.0,-0.8921,-1.0,-1.0,-1.0,1.0,-1.0,1.0,-1.0,0.2234,1.0,-1.0,-1.0,0.8713,0.0,0.0,0.0,0.0,0.0,0.0,0.0,0.0,0.0,0.0,0.0,0.0,0.0,0
0.44,run,2.61,4.27,0.1,0.19,-0.09,0.0,0.0,0.0,0.357,-10.2,23.2,79.28,-15.56,6.59,85.61,-9.14,15.91,81.74,16.7,0.18,95.27,1.49,7.82,87.19,-17.31,1.23,93.6,-11.91,23.31,79.28,-17.38,8.59,87.22,-11.82,16.96,84.05,18.35,-1.48,96.93,-0.0,6.54,88.45,-18.79,-0.33,92.61,-1.0,-1.0,-0.0395,-1.0,0.6579,1.0,-1.0,-1.0,1.0,1.0,-1.0,1.0,-1.0,0.5529,1.0,-1.0,-1.0,-0.2663,0.006,0.058,0.065,0.006,0.006,0.0,0.033,0.357,0.019,0.006,0.0,0.0,0.0,0.006,0.013,0.0,0.0,0.013,-0.1795,0.1028,0.0,-0.2823,-0.1396,0.1289,-0.1626,-0.0184,0.0644,0.2853,-0.2853,0.2853,0.0261,-0.1871,0.135,-0.2884,-0.2869,0.2792,-0.1756,0.1552,0.0525,-0.2621,-0.1755,0.2396,-0.1606,0.0145,0.0384,0.2568,-0.2499,0.2708,0.0631,-0.1375,0.181,-0.261,-0.2547,0.2596,-0.1993,0.0025,0.002,-0.0005,-0.003,-1.0,-1.0,0.288,-1.0,0.1985,-1.0,-1.0,1.0,1.0,1.0,-1.0,1.0,-1.0,-0.7855,1.0,-1.0,-1.0,1.0,0.0,0.0,0.0,0.0,0.0,0.0,0.0,0.0,0.0,0.0,0.0,0.0,0.0,0
0.48,run,2.54,4.25,-0.53,-0.21,0.13,0.0,0.0,0.0,0.357,-10.2,23.2,79.28,-15.56,6.59,85.52,-9.14,15.91,81.74,16.61,0.18,95.1,1.41,7.82,87.01,-17.31,1.23,93.6,-13.41,21.81,77.78,-18.88,7.09,85.72,-13.32,15.46,85.55,19.85,-2.98,98.43,-1.5,5.04,89.95,-20.29,-1.83,91.11,-1.0,-1.0,-0.5539,-1.0,-0.2995,-0.575,-1.0,-0.8151,1.0,1.0,-1.0,1.0,-1.0,-1.0,1.0,-1.0,-1.0,-1.0,0.0,0.019,0.006,0.006,0.019,0.006,0.045,0.325,0.026,0.006,0.0,0.013,0.013,0.006,0.006,0.006,0.0,0.0,-0.1795,0.1028,0.0,-0.2823,-0.1396,0.1289,-0.1626,-0.0184,0.0644,0.2853,-0.2853,0.2853,0.0261,-0.1871,0.135,-0.2884,-0.2869,0.2792,-0.1229,0.1086,0.0367,-0.1835,-0.1228,0.1677,-0.1124,0.0101,0.0269,0.1798,-0.1749,0.1896,0.0442,-0.0962,0.1267,-0.1827,-0.1783,0.1817,-0.2024,0.0035,0.0017,0.0033,-0.0016,-1.0,-1.0,-0.0395,-1.0,0.6579,1.0,-1.0,-1.0,1.0,1.0,-1.0,1.0,-1.0,0.5529,1.0,-1.0,-1.0,-0.2663,0.0,0.0,0.0,0.0,0.0,0.0,0.0,0.0,0.0,0.0,0.0,0.0,0.0,0
0.52,run,2.47,4.19,-0.88,-1.46,-3.17,0.0,0.0,0.0,0.357,-10.2,23.12,79.28,-15.56,6.94,85.52,-9.14,15.91,81.74,16.61,0.09,95.36,0.53,7.73,87.19,-17.49,1.14,93.34,-14.91,20.31,79.28,-20.38,5.59,87.22,-14.82,13.96,87.05,21.35,-4.48,99.93,-3.0,3.54,91.45,-18.79,-3.33,89.61,-1.0,-1.0,0.4627,-1.0,-1.0,0.281,-1.0,-1.0,1.0,1.0,-0.8227,1.0,-1.0,-0.5874,1.0,1.0,-1.0,-1.0,0.0,0.019,0.006,0.006,0.019,0.006,0.045,0.325,0.026,0.006,0.0,0.013,0.013,0.006,0.006,0.006,0.0,0.0,-0.1795,0.1028,0.0,-0.2823,-0.1396,0.1273,-0.1626,-0.0184,0.0644,0.2838,-0.2853,0.2823,0.0245,-0.1871,0.1319,-0.2884,-0.2869,0.2792,-0.0861,0.0761,0.0257,-0.1284,-0.086,0.1117,-0.0787,0.0071,0.0188,0.1202,-0.1224,0.1214,0.0252,-0.0674,0.0773,-0.1279,-0.1248,0.1272,-0.2085,0.0024,-0.0093,-0.0037,0.0023,-1.0,-1.0,-0.5539,-1.0,-0.2995,-0.575,-1.0,-0.8151,1.0,1.0,-1.0,1.0,-1.0,-1.0,1.0,-1.0,-1.0,-1.0,0.0,0.0,0.0,0.0,0.0,0.0,0.0,0.0,0.0,0.0,0.0,0.0,0.0,0
0.56,run,2.33,4.37,-1.91,2.65,-6.66,0.0,0.0,0.0,0.357,-10.99,22.15,78.84,-16.0,7.03,85.78,-9.58,15.91,82.0,17.23,-0.35,95.89,-0.26,6.94,87.63,-18.19,0.62,92.64,-16.41,18.81,80.78,-21.88,4.09,88.72,-16.32,12.46,88.55,22.85,-5.98,98.43,-4.5,2.04,92.95,-17.29,-4.83,88.11,-1.0,-1.0,0.5362,-1.0,-0.9811,0.5366,-1.0,-0.6002,1.0,1.0,-1.0,0.1259,-1.0,-0.4733,1.0,1.0,-1.0,-1.0,0.0,0.019,0.006,0.006,0.019,0.006,0.045,0.325,0.026,0.006,0.0,0.013,0.013,0.006,0.006,0.006,0.0,0.0,-0.1795,0.1012,0.0,-0.2823,-0.1335,0.1273,-0.1626,-0.0184,0.0644,0.2838,-0.2869,0.2869,0.0092,-0.1887,0.135,-0.2915,-0.2884,0.2746,-0.0602,0.0475,0.018,-0.0899,-0.0371,0.0782,-0.0551,0.005,0.0132,0.0841,-0.0915,0.1023,-0.0401,-0.0529,0.0657,-0.1011,-0.0932,0.0717,-0.2143,-0.0029,-0.0154,-0.0255,-0.0554,-1.0,-1.0,0.4627,-1.0,-1.0,0.281,-1.0,-1.0,1.0,1.0,-0.8227,1.0,-1.0,-0.5874,1.0,1.0,-1.0,-1.0,0.0,0.0,0.0,0.0,0.0,0.0,0.0,0.0,0.0,0.0,0.0,0.0,0.0,0
0.6,run,2.23,4.52,-1.29,1.74,-15.62,0.0,0.0,0.0,0.357,-11.78,21.36,78.4,-16.88,6.86,86.22,-10.37,15.82,82.71,18.11,-1.14,96.86,-1.41,6.24,88.51,-18.63,-0.09,91.93,-17.91,17.31,82.28,-23.38,2.59,90.22,-17.82,10.96,90.05,24.35,-7.48,99.93,-6.0,0.54,94.45,-15.79,-6.33,86.61,-1.0,-0.3243,0.8998,-1.0,-1.0,1.0,-1.0,-1.0,1.0,1.0,-1.0,0.5181,-1.0,-1.0,1.0,1.0,-1.0,-1.0,0.013,0.0,0.0,0.013,0.006,0.019,0.078,0.013,0.058,0.033,0.013,0.013,0.026,0.0,0.006,0.006,0.019,0.013,-0.1933,0.0844,-0.0077,-0.2899,-0.1319,0.1319,-0.1703,-0.0184,0.069,0.2945,-0.2945,0.2961,-0.0046,-0.2025,0.1427,-0.3037,-0.2976,0.2623,-0.0936,-0.0297,-0.016,-0.0915,-0.0202,0.0719,-0.0672,0.0035,0.0264,0.0989,-0.0926,0.1059,-0.0796,-0.0885,0.0746,-0.1165,-0.0995,0.0044,-0.2264,0.0125,-0.0333,0.0463,-0.1163,-1.0,-1.0,0.5362,-1.0,-0.9811,0.5366,-1.0,-0.6002,1.0,1.0,-1.0,0.1259,-1.0,-0.4733,1.0,1.0,-1.0,-1.0,0.0,0.0,0.0,0.0,0.0,0.0,0.0,0.0,0.0,0.0,0.0,0.0,0.0,0
0.64,run,2.1,4.62,-1.29,3.02,-12.81,0.0,0.0,0.0,0.357,-13.01,20.04,78.22,-18.02,6.24,87.01,-11.6,14.77,83.76,19.25,-2.2,97.91,-2.72,4.83,89.65,-18.9,-1.14,90.35,-16.41,15.81,83.78,-24.88,1.09,88.72,-19.32,9.46,91.55,25.85,-8.98,98.43,-7.5,-0.96,95.95,-14.29,-7.83,85.11,-0.3796,0.3901,1.0,-1.0,-0.5483,0.1733,-1.0,-1.0,1.0,1.0,-1.0,0.0619,-1.0,-0.8529,1.0,1.0,-1.0,-1.0,0.013,0.0,0.0,0.013,0.006,0.019,0.078,0.013,0.058,0.033,0.013,0.013,0.026,0.0,0.006,0.006,0.019,0.013,-0.2071,0.0706,-0.0153,-0.3053,-0.135,0.1396,-0.1841,-0.0199,0.0813,0.3099,-0.3083,0.3129,-0.0245,-0.2148,0.158,-0.3114,-0.3099,0.25,-0.1173,-0.0726,-0.04,-0.1216,-0.0257,0.0791,-0.0988,-0.0033,0.0645,0.1268,-0.1166,0.1374,-0.1305,-0.108,0.1098,-0.1103,-0.1157,-0.0429,-0.2353,0.0253,-0.0225,0.0303,-0.2725,-1.0,-0.3243,0.8998,-1.0,-1.0,1.0,-1.0,-1.0,1.0,1.0,-1.0,0.5181,-1.0,-1.0,1.0,1.0,-1.0,-1.0,0.0,0.0,0.0,0.0,0.0,0.0,0.0,0.0,0.0,0.0,0.0,0.0,0.0,0
0.68,run,1.98,4.91,-2.55,6.27,-10.24,0.0,0.0,0.0,0.357,-14.33,18.63,78.22,-19.34,5.19,87.98,-12.83,13.45,85.17,20.65,-3.6,98.88,-3.96,3.34,90.97,-18.63,-2.37,89.03,-17.91,14.31,85.28,-26.38,-0.41,87.22,-20.82,7.96,93.05,27.35,-10.48,96.93,-9.0,-2.46,97.45,-12.79,-9.33,83.61,-0.5261,-0.2189,1.0,-1.0,-0.564,-1.0,-1.0,-1.0,1.0,1.0,-1.0,-0.3242,-1.0,-0.741,1.0,1.0,-1.0,-1.0,0.013,0.0,0.0,0.013,0.006,0.019,0.078,0.013,0.058,0.033,0.013,0.013,0.026,0.0,0.006,0.006,0.019,0.013,-0.2286,0.0476,-0.0184,-0.3252,-0.1457,0.1534,-0.2056,-0.0383,0.0997,0.3298,-0.3267,0.3313,-0.0476,-0.2393,0.1779,-0.316,-0.3283,0.2224,-0.1631,-0.1375,-0.0395,-0.1603,-0.0584,0.1074,-0.1501,-0.0717,0.1145,0.1639,-0.151,0.1656,-0.1781,-0.1681,0.152,-0.0946,-0.1504,-0.1341,-0.2464,0.0345,-0.0225,0.0527,-0.2237,-0.3796,0.3901,1.0,-1.0,-0.5483,0.1733,-1.0,-1.0,1.0,1.0,-1.0,0.0619,-1.0,-0.8529,1.0,1.0,-1.0,-1.0,0.0,0.0,0.0,0.0,0.0,0.0,0.0,0.0,0.0,0.0,0.0,0.0,0.0,0
0.72,run,2.04,5.03,0.95,3.59,-16.68,0.0,0.0,0.0,0.357,-15.47,17.31,78.4,-20.83,3.87,88.68,-14.33,12.04,86.57,22.06,-4.92,99.49,-5.27,2.02,92.46,-18.11,-3.6,87.71,-19.41,12.81,86.78,-27.88,-1.91,85.72,-22.32,6.46,94.55,28.85,-11.98,98.43,-10.5,-3.96,98.95,-11.29,-10.83,82.11,-1.0,0.2102,1.0,-1.0,-0.1309,-0.4947,-0.7069,-0.7301,1.0,1.0,-0.514,0.5524,-1.0,-1.0,1.0,1.0,-1.0,-1.0,0.013,0.0,0.104,0.013,0.0,0.0,0.052,0.019,0.039,0.033,0.019,0.0,0.026,0.0,0.019,0.045,0.033,0.019,-0.2516,0.023,-0.0184,-0.3482,-0.1641,0.1703,-0.227,-0.0614,0.1243,0.3543,-0.3513,0.3482,-0.069,-0.2654,0.201,-0.3114,-0.3497,0.1994,-0.2,-0.1878,-0.0277,-0.198,-0.1096,0.1381,-0.1852,-0.136,0.1717,0.2063,-0.1972,0.1788,-0.2047,-0.2149,0.1922,-0.049,-0.1853,-0.1797,-0.2573,0.0596,-0.0445,0.1095,-0.1788,-0.5261,-0.2189,1.0,-1.0,-0.564,-1.0,-1.0,-1.0,1.0,1.0,-1.0,-0.3242,-1.0,-0.741,1.0,1.0,-1.0,-1.0,0.0,0.0,0.0,0.0,0.0,0.0,0.0,0.0,0.0,0.0,0.0,0.0,0.0,0
0.76,run,2.27,5.15,4.95,5.29,-21.46,0.0,0.0,0.0,0.357,-16.7,15.91,79.19,-22.41,2.46,89.12,-15.82,10.55,88.07,23.47,-6.15,99.67,-6.68,0.53,93.96,-17.14,-4.83,86.22,-20.91,14.31,88.28,-29.38,-3.41,84.22,-23.82,4.96,96.05,30.35,-10.8,99.93,-12.0,-5.46,100.45,-9.79,-12.33,80.61,-1.0,1.0,1.0,-1.0,0.178,-1.0,-1.0,-1.0,1.0,1.0,0.2582,0.8289,-1.0,-0.6675,1.0,1.0,-1.0,-1.0,0.013,0.0,0.104,0.013,0.0,0.0,0.052,0.019,0.039,0.033,0.019,0.0,0.026,0.0,0.019,0.045,0.033,0.019,-0.2715,0.0,-0.0153,-0.3743,-0.1871,0.1825,-0.2531,-0.0859,0.1488,0.3789,-0.3743,0.359,-0.092,-0.2884,0.227,-0.3022,-0.3712,0.1764,-0.2148,-0.2178,-0.0079,-0.2365,-0.1631,0.1427,-0.2275,-0.1873,0.2123,0.2365,-0.2244,0.1655,-0.2297,-0.2368,0.2324,0.0002,-0.2103,-0.2121,-0.2519,0.0701,0.0167,0.0627,-0.2911,-1.0,0.2102,1.0,-1.0,-0.1309,-0.4947,-0.7069,-0.7301,1.0,1.0,-0.514,0.5524,-1.0,-1.0,1.0,1.0,-1.0,-1.0,0.0,0.0,0.0,0.0,0.0,0.0,0.0,0.0,0.0,0.0,0.0,0.0,0.0,0
0.8,run,2.36,4.9,2.44,-3.98,-19.51,0.0,0.0,0.0,0.357,-18.02,14.5,80.51,-23.73,0.97,88.95,-17.4,9.05,89.56,25.05,-7.65,99.58,-8.0,-1.05,95.71,-15.82,-6.5,84.9,-22.41,15.81,89.78,-30.88,-3.41,82.72,-25.32,3.46,97.55,31.85,-9.3,98.43,-13.5,-6.96,101.95,-8.29,-13.83,79.11,-1.0,1.0,1.0,-1.0,0.3925,-1.0,-1.0,-0.3935,1.0,1.0,1.0,-0.6201,-1.0,0.0829,1.0,1.0,-1.0,-1.0,0.013,0.0,0.104,0.013,0.0,0.0,0.052,0.019,0.039,0.033,0.019,0.0,0.026,0.0,0.019,0.045,0.033,0.019,-0.293,-0.0245,-0.0015,-0.4019,-0.2117,0.1902,-0.2792,-0.112,0.1749,0.4034,-0.3958,0.362,-0.1166,-0.3145,0.2531,-0.2853,-0.3927,0.1503,-0.2293,-0.2426,0.0452,-0.267,-0.2043,0.1281,-0.255,-0.2269,0.2444,0.2557,-0.236,0.1271,-0.2509,-0.2615,0.2585,0.0621,-0.2261,-0.2443,-0.2321,0.0804,0.0865,0.0924,-0.3746,-1.0,1.0,1.0,-1.0,0.178,-1.0,-1.0,-1.0,1.0,1.0,0.2582,0.8289,-1.0,-0.6675,1.0,1.0,-1.0,-1.0,0.0,0.0,0.0,0.0,0.0,0.0,0.0,0.0,0.0,0.0,0.0,0.0,0.0,0
0.84,run,2.58,4.75,7.58,-4.9,-15.55,0.0,0.0,0.0,0.357,-19.07,13.54,81.74,-24.87,-0.35,88.68,-18.63,7.65,90.79,26.37,-8.79,99.49,-9.32,-2.29,97.03,-14.59,-7.73,83.58,-23.91,14.31,91.28,-32.38,-1.91,81.22,-23.82,4.96,99.05,33.35,-7.8,96.93,-15.0,-8.46,103.45,-6.79,-12.33,77.61,-0.856,-0.971,1.0,-1.0,0.6344,-1.0,1.0,1.0,1.0,1.0,1.0,-1.0,-1.0,-0.9468,1.0,1.0,0.7316,-1.0,0.045,0.0,0.078,0.013,0.006,0.019,0.058,0.019,0.084,0.013,0.006,0.013,0.071,0.0,0.0,0.078,0.033,0.033,-0.316,-0.0491,0.0215,-0.4249,-0.2378,0.1871,-0.3068,-0.1381,0.201,0.431,-0.4218,0.3605,-0.1396,-0.3421,0.2838,-0.2623,-0.4218,0.1273,-0.2408,-0.2555,0.112,-0.2672,-0.234,0.079,-0.2749,-0.2499,0.2621,0.2754,-0.2562,0.0836,-0.256,-0.2795,0.288,0.1238,-0.26,-0.2513,-0.2239,0.0586,0.0425,-0.0695,-0.3405,-1.0,1.0,1.0,-1.0,0.3925,-1.0,-1.0,-0.3935,1.0,1.0,1.0,-0.6201,-1.0,0.0829,1.0,1.0,-1.0,-1.0,0.0,0.0,0.0,0.0,0.0,0.0,0.0,0.0,0.0,0.0,0.0,0.0,0.0,0
0.88,run,2.81,4.47,6.87,-8.1,-9.81,0.0,0.0,0.0,0.357,-20.39,12.92,83.06,-26.37,-1.41,87.71,-19.95,6.24,92.02,27.86,-9.76,99.32,-10.63,-3.78,98.53,-13.45,-8.96,82.44,-25.41,12.81,92.78,-33.88,-3.41,79.72,-22.32,3.46,100.55,34.85,-6.3,98.43,-16.5,-9.96,104.95,-5.29,-10.83,76.11,-1.0,-0.833,1.0,-1.0,-0.0588,-1.0,1.0,-1.0,1.0,1.0,1.0,1.0,-1.0,0.0499,0.5257,1.0,1.0,-0.8315,0.045,0.0,0.078,0.013,0.006,0.019,0.058,0.019,0.084,0.013,0.006,0.013,0.071,0.0,0.0,0.078,0.033,0.033,-0.3344,-0.066,0.043,-0.4449,-0.2608,0.1825,-0.3283,-0.1626,0.2224,0.4541,-0.4418,0.359,-0.1626,-0.3636,0.3068,-0.2408,-0.4433,0.1043,-0.2424,-0.2465,0.1645,-0.267,-0.2561,0.0368,-0.2785,-0.2733,0.2696,0.285,-0.2593,0.0524,-0.2714,-0.2817,0.2939,0.1728,-0.2681,-0.2682,-0.2051,0.0457,0.1323,-0.0855,-0.2715,-0.856,-0.971,1.0,-1.0,0.6344,-1.0,1.0,1.0,1.0,1.0,1.0,-1.0,-1.0,-0.9468,1.0,1.0,0.7316,-1.0,0.0,0.0,0.0,0.0,0.0,0.0,0.0,0.0,0.0,0.0,0.0,0.0,0.0,0
0.92,run,2.83,4.39,2.03,-3.91,-2.49,0.0,0.0,0.0,0.357,-21.62,12.39,84.46,-27.69,-2.29,86.48,-21.01,5.19,93.25,29.27,-10.46,98.35,-11.95,-5.1,99.93,-12.13,-10.02,81.21,-26.91,11.31,94.28,-35.0,-1.91,78.22,-20.82,4.96,102.05,35.0,-4.8,99.93,-18.0,-11.46,103.45,-3.79,-9.33,74.61,-1.0,-1.0,1.0,-1.0,1.0,-1.0,1.0,1.0,1.0,1.0,1.0,1.0,-1.0,0.18,-0.6655,1.0,1.0,-1.0,0.045,0.0,0.078,0.013,0.006,0.019,0.058,0.019,0.084,0.013,0.006,0.013,0.071,0.0,0.0,0.078,0.033,0.033,-0.3574,-0.0767,0.066,-0.4709,-0.2792,0.1657,-0.3513,-0.1871,0.2439,0.4801,-0.4587,0.3559,-0.1856,-0.3896,0.3329,-0.2209,-0.4648,0.0844,-0.2558,-0.2128,0.2013,-0.2845,-0.2482,-0.0374,-0.2811,-0.2832,0.2691,0.2972,-0.2447,0.0252,-0.2762,-0.2949,0.3034,0.1956,-0.2681,-0.2624,-0.185,0.0214,0.1199,-0.1414,-0.1712,-1.0,-0.833,1.0,-1.0,-0.0588,-1.0,1.0,-1.0,1.0,1.0,1.0,1.0,-1.0,0.0499,0.5257,1.0,1.0,-0.8315,0.0,0.0,0.0,0.0,0.0,0.0,0.0,0.0,0.0,0.0,0.0,0.0,0.0,0
0.96,run,2.8,4.3,2.03,-2.19,-1.65,0.0,0.0,0.0,0.357,-22.85,11.95,85.69,-29.09,-2.81,85.17,-21.8,3.87,94.57,30.59,-10.9,98.17,-13.18,-6.59,101.16,-10.81,-10.63,80.07,-28.41,9.81,95.78,-35.0,-0.41,76.72,-19.32,3.46,103.55,35.0,-3.3,101.43,-19.5,-12.96,101.95,-2.29,-7.83,73.11,-1.0,-1.0,1.0,-1.0,1.0,-1.0,1.0,-0.3333,1.0,1.0,1.0,1.0,-1.0,0.0591,-1.0,1.0,1.0,-1.0,0.091,0.006,0.163,0.019,0.0,0.006,0.039,0.039,0.084,0.026,0.0,0.006,0.071,0.0,0.0,0.136,0.045,0.078,-0.3789,-0.0859,0.0905,-0.4939,-0.2945,0.1442,-0.3697,-0.2056,0.2654,0.5047,-0.4709,0.339,-0.2086,-0.4126,0.3574,-0.1979,-0.4832,0.0629,-0.2598,-0.1835,0.2332,-0.2857,-0.2314,-0.107,-0.266,-0.2675,0.2692,0.3003,-0.2174,-0.0458,-0.2798,-0.2929,0.3047,0.2235,-0.2569,-0.2644,-0.1834,0.0143,0.0355,-0.0683,-0.0435,-1.0,-1.0,1.0,-1.0,1.0,-1.0,1.0,1.0,1.0,1.0,1.0,1.0,-1.0,0.18,-0.6655,1.0,1.0,-1.0,0.0,0.0,0.0,0.0,0.0,0.0,0.0,0.0,0.0,0.0,0.0,0.0,0.0,0
1.0,run,2.32,4.34,-11.8,0.72,-5.41,0.0,0.0,0.0,0.357,-24.17,11.25,87.01,-30.59,-3.08,83.76,-22.32,3.16,95.89,31.99,-11.34,98.17,-14.59,-8.0,101.95,-9.4,-11.25,78.75,-29.91,8.31,97.28,-35.0,1.09,75.22,-17.82,1.96,105.05,35.0,-1.8,99.93,-21.0,-11.46,100.45,-0.79,-6.33,71.61,-1.0,-1.0,1.0,-1.0,1.0,-1.0,1.0,0.0887,1.0,1.0,1.0,0.3309,-1.0,0.4498,-0.3306,1.0,1.0,-1.0,0.091,0.006,0.163,0.019,0.0,0.006,0.039,0.039,0.084,0.026,0.0,0.006,0.071,0.0,0.0,0.136,0.045,0.078,-0.4004,-0.0936,0.112,-0.5185,-0.3037,0.1212,-0.3835,-0.2286,0.2884,0.5277,-0.4786,0.3359,-0.2301,-0.4387,0.3789,-0.1749,-0.4939,0.043,-0.2623,-0.1572,0.2437,-0.2919,-0.1965,-0.1611,-0.2379,-0.2734,0.2746,0.2964,-0.1809,-0.0436,-0.2763,-0.3028,0.2937,0.2426,-0.2201,-0.2598,-0.1857,0.0062,0.0355,-0.0382,-0.0289,-1.0,-1.0,1.0,-1.0,1.0,-1.0,1.0,-0.3333,1.0,1.0,1.0,1.0,-1.0,0.0591,-1.0,1.0,1.0,-1.0,0.0,0.0,0.0,0.0,0.0,0.0,0.0,0.0,0.0,0.0,0.0,0.0,0.0,0
1.04,run,2.19,4.92,-0.71,14.16,1.91,0.0,0.002,0.0,0.357,-25.4,10.2,88.33,-31.9,-3.08,82.35,-22.59,2.55,97.21,33.13,-10.81,98.61,-16.17,-9.23,102.57,-8.09,-11.34,77.43,-31.41,6.81,98.78,-35.0,2.59,73.72,-16.32,2.4,106.55,35.0,-0.3,98.43,-22.5,-12.96,98.95,0.71,-4.83,70.11,-1.0,-1.0,1.0,-1.0,1.0,-0.3777,1.0,0.4982,1.0,1.0,1.0,-0.5842,-1.0,-1.0,-0.8321,1.0,1.0,-0.7909,0.091,0.006,0.163,0.019,0.0,0.006,0.039,0.039,0.084,0.026,0.0,0.006,0.071,0.0,0.0,0.136,0.045,0.078,-0.4234,-0.1058,0.135,-0.5446,-0.3083,0.0966,-0.3927,-0.2408,0.3114,0.5522,-0.4863,0.3359,-0.2546,-0.4633,0.3927,-0.1503,-0.5047,0.0199,-0.2704,-0.1564,0.2574,-0.3027,-0.1549,-0.2053,-0.2013,-0.2377,0.279,0.3001,-0.1556,-0.0305,-0.286,-0.3045,0.2577,0.2624,-0.1946,-0.2687,-0.2275,0.0098,-0.206,0.0126,-0.0944,-1.0,-1.0,1.0,-1.0,1.0,-1.0,1.0,0.0887,1.0,1.0,1.0,0.3309,-1.0,0.4498,-0.3306,1.0,1.0,-1.0,0.0,0.0,0.0,0.0,0.0,0.0,0.0,0.0,0.0,0.0133,0.0,0.0133,0.0,0
1.08,run,2.3,5.01,4.99,1.62,13.84,0.0,0.004,0.0,0.357,-26.54,8.96,89.74,-32.96,-2.81,80.86,-22.59,1.85,98.53,34.01,-10.28,99.14,-17.67,-10.55,103.1,-6.59,-11.43,76.11,-32.91,5.31,100.28,-35.0,4.09,75.22,-14.82,0.9,108.05,33.5,1.2,96.93,-24.0,-14.46,100.45,2.21,-3.33,71.61,-1.0,-1.0,1.0,-1.0,1.0,1.0,1.0,-1.0,1.0,0.9153,1.0,-0.0367,-1.0,-0.381,1.0,1.0,1.0,0.1195,0.149,0.0,0.123,0.013,0.013,0.0,0.006,0.033,0.136,0.006,0.065,0.0,0.052,0.0,0.006,0.169,0.0,0.091,-0.4449,-0.1243,0.158,-0.5676,-0.3083,0.0721,-0.3973,-0.2516,0.3344,0.5722,-0.4771,0.3436,-0.2823,-0.4847,0.4034,-0.1273,-0.5062,-0.0031,-0.2698,-0.1785,0.2664,-0.2982,-0.1084,-0.2358,-0.1581,-0.2066,0.2816,0.2848,-0.0744,0.0074,-0.3037,-0.2937,0.2206,0.27,-0.1419,-0.2743,-0.2385,0.0602,-0.0124,0.2471,0.0334,-1.0,-1.0,1.0,-1.0,1.0,-0.3777,1.0,0.4982,1.0,1.0,1.0,-0.5842,-1.0,-1.0,-0.8321,1.0,1.0,-0.7909,0.0,0.0,0.0,0.0,0.0,0.0,0.0,0.0,0.0,0.0267,0.0,0.0267,0.0,0
1.12,run,2.06,5.15,-3.97,3.13,15.38,0.0,0.006,0.0,0.357,-28.04,7.73,91.14,-33.84,-2.02,79.37,-22.5,1.32,99.93,34.63,-9.49,99.23,-19.25,-11.78,103.1,-5.19,-11.07,74.88,-31.41,3.81,101.78,-35.0,5.59,76.72,-13.32,-0.6,109.55,32.0,2.7,95.43,-25.5,-15.96,101.95,3.71,-1.83,73.11,1.0,-1.0,1.0,-1.0,1.0,1.0,1.0,-1.0,1.0,0.2221,1.0,-1.0,-1.0,-1.0,1.0,1.0,1.0,1.0,0.149,0.0,0.123,0.013,0.013,0.0,0.006,0.033,0.136,0.006,0.065,0.0,0.052,0.0,0.006,0.169,0.0,0.091,-0.4648,-0.1457,0.1825,-0.586,-0.3037,0.046,-0.3973,-0.2638,0.3574,0.5875,-0.4679,0.3528,-0.3083,-0.5077,0.4126,-0.1012,-0.5077,-0.0261,-0.2633,-0.205,0.2781,-0.2774,-0.0587,-0.2623,-0.1107,-0.1904,0.2829,0.2566,-0.0178,0.0395,-0.3099,-0.2914,0.1888,0.2862,-0.1051,-0.2779,-0.2296,0.0686,0.087,0.0283,0.2416,-1.0,-1.0,1.0,-1.0,1.0,1.0,1.0,-1.0,1.0,0.9153,1.0,-0.0367,-1.0,-0.381,1.0,1.0,1.0,0.1195,0.0,0.0,0.0,0.0,0.0,0.0,0.0,0.0,0.0,0.04,0.0,0.04,0.0,0
1.16,run,1.87,5.33,-3.92,4.13,16.64,0.0,0.008,0.0,0.357,-29.53,6.5,92.64,-34.37,-0.97,78.05,-21.97,0.35,101.34,35.24,-8.44,98.96,-20.83,-12.83,102.74,-3.69,-10.37,73.74,-29.91,2.31,103.28,-35.0,7.09,78.22,-11.82,-2.1,111.05,30.5,1.2,93.93,-27.0,-17.46,103.45,2.21,-0.33,74.61,1.0,-1.0,1.0,-1.0,1.0,1.0,1.0,-1.0,1.0,-0.4821,-0.3068,-1.0,-1.0,-1.0,1.0,-0.1611,1.0,1.0,0.149,0.0,0.123,0.013,0.013,0.0,0.006,0.033,0.136,0.006,0.065,0.0,0.052,0.0,0.006,0.169,0.0,0.091,-0.4909,-0.1672,0.2071,-0.6013,-0.2899,0.0199,-0.3958,-0.273,0.382,0.5983,-0.4541,0.3543,-0.3359,-0.5292,0.4126,-0.0767,-0.5016,-0.0476,-0.2821,-0.224,0.2867,-0.2517,0.0107,-0.2814,-0.0717,-0.1678,0.2901,0.2199,0.0393,0.0334,-0.3205,-0.2845,0.1321,0.2924,-0.0505,-0.275,-0.2503,0.0809,-0.0693,0.0546,0.2684,1.0,-1.0,1.0,-1.0,1.0,1.0,1.0,-1.0,1.0,0.2221,1.0,-1.0,-1.0,-1.0,1.0,1.0,1.0,1.0,0.0,0.0,0.0,0.0,0.0,0.0,0.0,0.0,0.0,0.0533,0.0,0.0533,0.0,0
1.2,run,1.65,5.12,-6.11,-4.77,11.35,0.0,0.01,0.0,0.357,-30.67,5.01,94.04,-34.54,0.26,76.9,-21.36,-0.7,102.74,34.72,-7.21,98.09,-22.41,-13.97,102.3,-2.29,-9.67,72.86,-28.41,0.81,104.78,-35.0,8.59,79.72,-10.32,-3.6,112.55,29.0,-0.3,92.43,-28.5,-18.96,104.95,0.71,1.17,76.11,1.0,-1.0,1.0,-1.0,1.0,1.0,1.0,-1.0,1.0,-1.0,-1.0,-1.0,-1.0,-1.0,1.0,-1.0,1.0,1.0,0.045,0.0,0.13,0.013,0.026,0.0,0.019,0.0,0.104,0.019,0.163,0.0,0.026,0.006,0.0,0.091,0.039,0.071,-0.517,-0.1887,0.2332,-0.6105,-0.2715,-0.0031,-0.3866,-0.2899,0.4065,0.609,-0.4357,0.3497,-0.3636,-0.5476,0.4065,-0.0506,-0.4893,-0.0675,-0.2957,-0.2377,0.2989,-0.2109,0.0768,-0.2837,-0.0155,-0.181,0.2955,0.1944,0.0969,0.0061,-0.3283,-0.2685,0.0694,0.3029,0.0108,-0.2676,-0.2669,0.096,-0.0683,0.0722,0.2905,1.0,-1.0,1.0,-1.0,1.0,1.0,1.0,-1.0,1.0,-0.4821,-0.3068,-1.0,-1.0,-1.0,1.0,-0.1611,1.0,1.0,0.0,0.0,0.0,0.0,0.0,0.0,0.0,0.0,0.0,0.0667,0.0,0.0667,0.0,0
1.24,run,1.56,4.75,-2.56,-8.55,14.32,0.0,0.012,0.0,0.357,-31.46,3.69,95.54,-34.54,1.58,76.11,-19.69,-2.11,104.41,34.45,-6.24,97.12,-23.91,-15.47,102.04,-1.05,-8.35,72.33,-26.91,-0.69,106.28,-35.0,10.09,81.22,-8.82,-5.1,114.05,27.5,-1.8,90.93,-30.0,-20.46,106.45,-0.79,2.67,77.61,1.0,-1.0,1.0,-1.0,1.0,1.0,1.0,-1.0,1.0,-1.0,-1.0,-1.0,-1.0,-1.0,1.0,-1.0,1.0,1.0,0.045,0.0,0.13,0.013,0.026,0.0,0.019,0.0,0.104,0.019,0.163,0.0,0.026,0.006,0.0,0.091,0.039,0.071,-0.5369,-0.2148,0.2577,-0.6136,-0.25,-0.023,-0.3758,-0.3083,0.431,0.5998,-0.4142,0.3344,-0.3912,-0.5676,0.3988,-0.0261,-0.4771,-0.0828,-0.2813,-0.2636,0.3007,-0.159,0.1338,-0.2729,0.0291,-0.1953,0.2984,0.1017,0.1479,-0.053,-0.3328,-0.2623,0.02,0.3035,0.0533,-0.2445,-0.2861,0.0777,-0.1067,-0.0833,0.1982,1.0,-1.0,1.0,-1.0,1.0,1.0,1.0,-1.0,1.0,-1.0,-1.0,-1.0,-1.0,-1.0,1.0,-1.0,1.0,1.0,0.0,0.0,0.0,0.0,0.0,0.0,0.0,0.0,0.0,0.08,0.0,0.08,0.0,0
1.28,run,1.28,4.42,-8.3,-3.48,9.68,0.0,0.014,0.0,0.357,-31.99,2.37,97.03,-34.54,2.81,75.67,-18.37,-3.16,105.82,33.57,-5.19,95.8,-25.31,-16.7,102.57,0.09,-6.86,71.98,-25.41,-2.19,104.78,-35.0,11.59,82.72,-7.32,-6.6,115.55,26.0,-3.3,89.43,-31.5,-21.96,107.95,-2.29,4.17,79.11,1.0,-1.0,0.2564,-1.0,1.0,1.0,1.0,-1.0,1.0,-1.0,-0.8156,-1.0,-1.0,-1.0,1.0,-1.0,1.0,1.0,0.045,0.0,0.13,0.013,0.026,0.0,0.019,0.0,0.104,0.019,0.163,0.0,0.026,0.006,0.0,0.091,0.039,0.071,-0.5507,-0.2378,0.2838,-0.6136,-0.227,-0.0368,-0.3467,-0.3329,0.4602,0.5952,-0.3973,0.3175,-0.4172,-0.5937,0.3942,-0.0046,-0.4541,-0.092,-0.2487,-0.2709,0.3084,-0.1113,0.18,-0.2428,0.1298,-0.2289,0.3182,0.0539,0.1668,-0.1004,-0.3308,-0.2815,-0.0033,0.2931,0.1237,-0.2057,-0.294,0.046,-0.0448,-0.1493,0.25,1.0,-1.0,1.0,-1.0,1.0,1.0,1.0,-1.0,1.0,-1.0,-1.0,-1.0,-1.0,-1.0,1.0,-1.0,1.0,1.0,0.0,0.0,0.0,0.0,0.0,0.0,0.0,0.0,0.0,0.0933,0.0,0.0933,0.0,0
1.32,run,1.01,4.22,-4.86,-4.27,13.74,0.0,0.016,0.0,0.357,-32.26,0.97,98.61,-34.54,4.04,75.67,-16.96,-4.57,107.23,32.43,-4.22,94.22,-26.72,-18.28,103.45,0.79,-5.54,71.89,-23.91,-3.69,103.28,-33.5,13.09,84.22,-5.82,-8.1,117.05,24.5,-4.8,87.93,-33.0,-23.46,109.45,-3.79,5.67,80.61,-0.2242,-1.0,-0.5005,1.0,1.0,1.0,1.0,-1.0,1.0,-1.0,-1.0,-1.0,-1.0,-1.0,1.0,-1.0,1.0,1.0,0.006,0.0,0.078,0.0,0.065,0.006,0.026,0.013,0.143,0.123,0.214,0.0,0.019,0.019,0.013,0.058,0.052,0.006,-0.5599,-0.2608,0.3099,-0.6136,-0.2056,-0.0445,-0.3237,-0.3513,0.4847,0.5798,-0.3789,0.2945,-0.4418,-0.6151,0.4034,0.0153,-0.428,-0.0982,-0.2086,-0.276,0.3137,-0.0779,0.2066,-0.1988,0.1772,-0.2293,0.3148,-0.0198,0.1859,-0.1566,-0.3237,-0.2776,0.0322,0.28,0.1844,-0.167,-0.3182,0.0173,-0.1449,-0.0608,0.169,1.0,-1.0,0.2564,-1.0,1.0,1.0,1.0,-1.0,1.0,-1.0,-0.8156,-1.0,-1.0,-1.0,1.0,-1.0,1.0,1.0,0.0,0.0,0.0,0.0,0.0,0.0,0.0,0.0,0.0,0.1067,0.0,0.1067,0.0,0
1.36,run,0.24,4.66,-14.11,10.52,2.57,0.0,0.018,0.0,0.357,-32.17,-0.62,100.28,-34.45,5.45,75.76,-15.38,-6.15,108.9,30.94,-3.6,92.46,-28.48,-19.86,104.68,1.41,-4.04,71.46,-25.41,-5.19,101.78,-32.0,11.59,85.72,-4.32,-9.6,118.55,23.0,-6.3,86.43,-34.5,-24.96,110.95,-5.29,4.17,82.11,-1.0,-1.0,-1.0,1.0,-0.4357,1.0,1.0,-1.0,1.0,-1.0,-1.0,-1.0,-1.0,-1.0,1.0,-1.0,-0.6681,1.0,0.006,0.0,0.078,0.0,0.065,0.006,0.026,0.013,0.143,0.123,0.214,0.0,0.019,0.019,0.013,0.058,0.052,0.006,-0.5645,-0.2853,0.3375,-0.6136,-0.1841,-0.0445,-0.2991,-0.3758,0.5093,0.5599,-0.362,0.2669,-0.4663,-0.6427,0.4188,0.0276,-0.405,-0.0997,-0.1628,-0.2827,0.3203,-0.0546,0.2229,-0.1391,0.2135,-0.25,0.3099,-0.0866,0.1916,-0.2103,-0.3161,-0.295,0.0785,0.2407,0.213,-0.1225,-0.3422,-0.0006,-0.0849,-0.0745,0.2397,-0.2242,-1.0,-0.5005,1.0,1.0,1.0,1.0,-1.0,1.0,-1.0,-1.0,-1.0,-1.0,-1.0,1.0,-1.0,1.0,1.0,0.0,0.0,0.0,0.0,0.0,0.0,0.0,0.0,0.0,0.12,0.0,0.12,0.0,0
1.4,run,-0.15,4.37,-9.29,-5.11,-6.78,0.0,0.02,0.0,0.357,-31.64,-1.93,101.34,-34.37,6.68,76.55,-13.97,-7.21,110.39,29.62,-3.34,91.05,-29.88,-21.27,106.0,1.41,-2.72,72.77,-26.91,-6.69,100.28,-30.5,10.09,87.22,-2.82,-11.1,120.05,21.5,-7.8,84.93,-33.0,-26.46,112.45,-6.79,2.67,83.61,-1.0,-1.0,-1.0,1.0,-0.2275,1.0,1.0,-1.0,1.0,-1.0,-1.0,-1.0,-0.7569,-1.0,1.0,-1.0,-0.9201,1.0,0.006,0.0,0.078,0.0,0.065,0.006,0.026,0.013,0.143,0.123,0.214,0.0,0.019,0.019,0.013,0.058,0.052,0.006,-0.563,-0.3129,0.3666,-0.6121,-0.1595,-0.043,-0.2715,-0.4034,0.5384,0.5338,-0.3513,0.2362,-0.497,-0.6703,0.4403,0.0383,-0.3789,-0.1074,-0.1092,-0.2846,0.3158,-0.0334,0.2332,-0.0926,0.2362,-0.2617,0.3085,-0.1425,0.1679,-0.2436,-0.3176,-0.2933,0.1224,0.2022,0.231,-0.1099,-0.4087,0.0382,-0.2462,0.1835,0.0448,-1.0,-1.0,-1.0,1.0,-0.4357,1.0,1.0,-1.0,1.0,-1.0,-1.0,-1.0,-1.0,-1.0,1.0,-1.0,-0.6681,1.0,0.0,0.0,0.0,0.0,0.0,0.0,0.0,0.0,0.0,0.1333,0.0,0.1333,0.0,0
1.44,run,-0.42,3.85,-4.59,-11.58,7.54,0.0,0.022,0.0,0.357,-30.41,-3.25,102.13,-33.49,7.65,77.52,-12.57,-8.53,111.88,28.3,-3.34,89.65,-31.2,-22.68,107.49,0.88,-1.49,74.09,-28.41,-8.19,98.78,-29.0,8.59,88.72,-1.32,-12.6,121.55,20.0,-9.3,83.43,-31.5,-27.96,113.95,-8.29,1.17,85.11,-1.0,-1.0,-1.0,1.0,-1.0,1.0,1.0,-1.0,1.0,-1.0,-1.0,-0.3891,0.2147,-1.0,1.0,-1.0,-1.0,1.0,0.0,0.0,0.045,0.019,0.136,0.058,0.039,0.0,0.111,0.227,0.123,0.0,0.006,0.019,0.006,0.006,0.071,0.026,-0.5538,-0.3359,0.385,-0.6105,-0.1381,-0.0291,-0.247,-0.4218,0.5645,0.5108,-0.3467,0.2117,-0.5216,-0.6949,0.4633,0.0383,-0.3559,-0.0844,-0.0423,-0.2845,0.2893,-0.0177,0.2428,-0.0136,0.2563,-0.2514,0.3126,-0.1851,0.1346,-0.2615,-0.3133,-0.2963,0.171,0.1416,0.247,0.0084,-0.4431,0.0127,-0.1621,-0.0892,-0.1183,-1.0,-1.0,-1.0,1.0,-0.2275,1.0,1.0,-1.0,1.0,-1.0,-1.0,-1.0,-0.7569,-1.0,1.0,-1.0,-0.9201,1.0,0.0,0.0,0.0,0.0,0.0,0.0,0.0,0.0,0.0,0.1467,0.0,0.1467,0.0,0
1.48,run,-0.84,2.98,-11.92,-21.68,4.04,0.0,0.024,0.0,0.357,-29.36,-4.48,102.74,-32.34,8.35,78.75,-11.07,-10.02,113.29,26.98,-3.34,88.07,-32.17,-24.08,108.9,0.09,-0.53,75.32,-29.91,-9.69,97.28,-27.5,7.09,90.22,0.18,-14.1,123.05,18.5,-10.8,81.93,-30.0,-29.46,115.45,-9.79,-0.33,86.61,-1.0,-1.0,-1.0,1.0,-1.0,1.0,1.0,-1.0,1.0,-1.0,-1.0,-0.1568,1.0,-1.0,1.0,-1.0,-1.0,1.0,0.0,0.0,0.045,0.019,0.136,0.058,0.039,0.0,0.111,0.227,0.123,0.0,0.006,0.019,0.006,0.006,0.071,0.026,-0.5323,-0.359,0.3988,-0.5952,-0.1212,-0.0123,-0.2224,-0.4449,0.5906,0.4878,-0.3467,0.1871,-0.5446,-0.7194,0.4893,0.0291,-0.3344,-0.0614,0.0511,-0.2856,0.2543,0.0452,0.2333,0.0538,0.2716,-0.2624,0.3168,-0.216,0.0942,-0.2752,-0.3057,-0.2996,0.2176,0.0645,0.2536,0.0923,-0.4662,-0.0332,-0.0802,-0.2022,0.1315,-1.0,-1.0,-1.0,1.0,-1.0,1.0,1.0,-1.0,1.0,-1.0,-1.0,-0.3891,0.2147,-1.0,1.0,-1.0,-1.0,1.0,0.0,0.0,0.0,0.0,0.0,0.0,0.0,0.0,0.0,0.16,0.0,0.16,0.0,0
1.52,run,-1.04,2.87,-5.41,-2.79,-5.42,0.0,0.026,0.0,0.357,-28.56,-5.71,102.92,-31.2,8.88,80.16,-9.58,-11.25,114.61,25.66,-3.34,86.75,-32.87,-25.58,110.39,-1.23,0.26,76.64,-31.41,-11.19,95.78,-26.0,5.59,91.72,1.68,-15.6,124.55,17.0,-12.3,80.43,-28.5,-30.96,116.95,-11.29,-1.83,88.11,-1.0,-1.0,-1.0,1.0,-1.0,1.0,1.0,-1.0,1.0,-1.0,-1.0,-0.3489,1.0,-1.0,1.0,-1.0,-1.0,1.0,0.0,0.0,0.045,0.019,0.136,0.058,0.039,0.0,0.111,0.227,0.123,0.0,0.006,0.019,0.006,0.006,0.071,0.026,-0.5139,-0.3804,0.4096,-0.5752,-0.1089,0.0092,-0.1963,-0.4709,0.6151,0.4648,-0.3467,0.1595,-0.5614,-0.744,0.5139,0.0153,-0.3175,-0.0399,0.1048,-0.2804,0.2183,0.1064,0.2094,0.1182,0.2879,-0.2815,0.3138,-0.2375,0.0659,-0.2962,-0.2773,-0.3017,0.2444,-0.0066,0.2408,0.1451,-0.5034,-0.1084,-0.2081,-0.3783,0.0705,-1.0,-1.0,-1.0,1.0,-1.0,1.0,1.0,-1.0,1.0,-1.0,-1.0,-0.1568,1.0,-1.0,1.0,-1.0,-1.0,1.0,0.0,0.0,0.0,0.0,0.0,0.0,0.0,0.0,0.0,0.1733,0.0,0.1733,0.0,0
1.56,run,-1.33,2.27,-6.72,-12.71,-11.9,0.0,0.028,0.0,0.357,-27.95,-6.94,102.92,-30.41,9.14,81.47,-8.26,-12.66,116.1,24.17,-4.04,85.34,-33.22,-26.98,111.8,-2.64,0.7,78.05,-32.91,-12.69,94.28,-24.5,4.09,93.22,3.18,-17.1,126.05,15.5,-13.8,78.93,-27.0,-32.46,118.45,-12.79,-3.33,89.61,-1.0,-1.0,-1.0,1.0,-1.0,1.0,1.0,-1.0,1.0,-1.0,-1.0,-0.5549,1.0,-1.0,1.0,-1.0,-1.0,1.0,0.0,0.0,0.006,0.019,0.104,0.071,0.033,0.0,0.104,0.221,0.0,0.0,0.0,0.013,0.006,0.0,0.078,0.039,-0.5001,-0.4019,0.4126,-0.5553,-0.0997,0.0337,-0.1703,-0.4924,0.6381,0.4418,-0.3467,0.1365,-0.5737,-0.7701,0.54,-0.0077,-0.3037,-0.0169,0.1249,-0.2766,0.1643,0.1491,0.181,0.1745,0.299,-0.2773,0.3057,-0.2522,0.0462,-0.2934,-0.24,-0.3087,0.2686,-0.0906,0.2202,0.1876,-0.5206,-0.1188,-0.0945,-0.0487,-0.0947,-1.0,-1.0,-1.0,1.0,-1.0,1.0,1.0,-1.0,1.0,-1.0,-1.0,-0.3489,1.0,-1.0,1.0,-1.0,-1.0,1.0,0.0,0.0,0.0,0.0,0.0,0.0,0.0,0.0,0.0,0.1867,0.0,0.1867,0.0,0
1.6,run,-1.99,1.53,-16.08,-20.64,-0.53,0.0,0.03,0.0,0.357,-27.77,-8.17,102.66,-28.83,9.14,82.88,-6.77,-14.15,117.42,22.59,-5.27,83.94,-33.22,-28.39,113.2,-4.04,0.88,79.37,-34.41,-14.19,92.78,-23.0,2.59,94.72,4.68,-18.6,127.55,14.0,-15.3,80.43,-25.5,-33.96,119.95,-14.29,-4.83,91.11,-1.0,-1.0,-1.0,1.0,-1.0,1.0,1.0,-1.0,1.0,-1.0,-1.0,0.38,1.0,-1.0,1.0,-1.0,-1.0,1.0,0.0,0.0,0.006,0.019,0.104,0.071,0.033,0.0,0.104,0.221,0.0,0.0,0.0,0.013,0.006,0.0,0.078,0.039,-0.4893,-0.4234,0.4126,-0.5415,-0.0951,0.0568,-0.1473,-0.517,0.6642,0.4157,-0.359,0.112,-0.5798,-0.7946,0.5645,-0.0322,-0.2961,0.0077,0.1277,-0.2741,0.115,0.1561,0.1439,0.2084,0.2956,-0.2861,0.3117,-0.2743,-0.0137,-0.2973,-0.191,-0.3081,0.28,-0.1554,0.1829,0.2233,-0.5456,-0.1707,-0.1172,-0.2219,-0.2077,-1.0,-1.0,-1.0,1.0,-1.0,1.0,1.0,-1.0,1.0,-1.0,-1.0,-0.5549,1.0,-1.0,1.0,-1.0,-1.0,1.0,0.0,0.0,0.0,0.0,0.0,0.0,0.0,0.0,0.0,0.2,0.0,0.2,0.0,0
1.64,run,-2.7,1.41,-18.26,-6.39,0.41,0.0,0.032,0.0,0.357,-27.95,-9.49,101.69,-27.33,9.14,84.38,-5.45,-15.47,118.74,21.09,-6.59,82.53,-32.96,-30.32,114.52,-5.36,0.88,80.68,-35.0,-15.69,91.28,-21.5,1.09,96.22,6.18,-20.1,129.05,12.5,-16.8,81.53,-24.0,-35.46,120.73,-15.79,-6.33,92.61,-1.0,-1.0,-1.0,1.0,-1.0,1.0,1.0,-0.3774,1.0,-0.3904,-0.6187,0.1945,1.0,-1.0,0.6557,-1.0,-1.0,1.0,0.0,0.0,0.006,0.019,0.104,0.071,0.033,0.0,0.104,0.221,0.0,0.0,0.0,0.013,0.006,0.0,0.078,0.039,-0.4863,-0.4449,0.408,-0.5139,-0.0951,0.0813,-0.1212,-0.543,0.6872,0.3881,-0.3804,0.0874,-0.5798,-0.8191,0.589,-0.0568,-0.293,0.0307,0.1009,-0.2725,0.0632,0.2129,0.1007,0.238,0.3048,-0.2982,0.3046,-0.2956,-0.0902,-0.3003,-0.1337,-0.3078,0.2881,-0.2009,0.1395,0.2427,-0.604,-0.2351,-0.2807,-0.3603,-0.0093,-1.0,-1.0,-1.0,1.0,-1.0,1.0,1.0,-1.0,1.0,-1.0,-1.0,0.38,1.0,-1.0,1.0,-1.0,-1.0,1.0,0.0,0.0,0.0,0.0,0.0,0.0,0.0,0.0,0.0,0.2133,0.0,0.2133,0.0,0
1.68,run,-2.83,1.09,-4.27,-9.57,-2.3,0.0,0.034,0.0,0.357,-28.92,-10.37,100.46,-26.02,9.05,85.69,-4.04,-16.96,120.23,19.69,-8.0,81.74,-32.08,-31.55,115.84,-6.68,0.7,82.09,-35.0,-17.19,89.78,-20.0,-0.41,97.72,7.68,-21.6,130.55,11.0,-18.3,80.03,-22.5,-36.96,122.23,-17.29,-7.83,94.11,-1.0,-0.5377,-1.0,1.0,-0.6703,1.0,1.0,-0.9438,1.0,-0.085,-0.9337,-0.5658,1.0,-1.0,1.0,-1.0,-1.0,1.0,0.0,0.019,0.013,0.026,0.0,0.117,0.033,0.0,0.104,0.169,0.0,0.0,0.013,0.006,0.033,0.013,0.0,0.052,-0.4893,-0.4679,0.3912,-0.4878,-0.0951,0.1074,-0.0982,-0.566,0.7102,0.362,-0.4034,0.0629,-0.5752,-0.8529,0.6121,-0.0798,-0.293,0.0537,0.0591,-0.277,-0.019,0.2468,0.0705,0.2644,0.2996,-0.295,0.2995,-0.3048,-0.1494,-0.3022,-0.0763,-0.342,0.288,-0.2269,0.0977,0.2562,-0.6652,-0.2461,-0.3187,-0.1116,0.0072,-1.0,-1.0,-1.0,1.0,-1.0,1.0,1.0,-0.3774,1.0,-0.3904,-0.6187,0.1945,1.0,-1.0,0.6557,-1.0,-1.0,1.0,0.0,0.0,0.0,0.0,0.0,0.0,0.0,0.0,0.0,0.2267,0.0,0.2267,0.0,0
1.72,run,-3.09,0.7,-5.4,-8.97,7.03,0.0,0.036,0.0,0.357,-29.53,-12.04,99.14,-24.7,7.82,87.1,-2.72,-18.37,121.64,18.11,-9.23,80.51,-31.03,-32.96,117.16,-7.82,-0.26,83.41,-35.0,-18.69,88.28,-18.5,-1.91,99.22,9.18,-20.1,132.05,9.5,-19.8,81.53,-21.0,-38.46,123.73,-18.79,-9.33,95.61,-1.0,-0.6989,-1.0,1.0,-1.0,1.0,1.0,0.2676,1.0,-0.157,0.0493,0.5213,1.0,-1.0,0.8383,-1.0,-1.0,1.0,0.0,0.019,0.013,0.026,0.0,0.117,0.033,0.0,0.104,0.169,0.0,0.0,0.013,0.006,0.033,0.013,0.0,0.052,-0.5062,-0.4832,0.3697,-0.4648,-0.0966,0.1304,-0.0736,-0.5921,0.7363,0.3375,-0.428,0.0491,-0.5599,-0.8744,0.6351,-0.1028,-0.2961,0.0782,-0.0219,-0.2514,-0.0938,0.259,0.0436,0.2713,0.3017,-0.3043,0.3074,-0.3053,-0.1966,-0.2633,0.0041,-0.3199,0.2878,-0.2451,0.0569,0.2713,-0.6772,-0.2736,-0.0745,-0.167,-0.0402,-1.0,-0.5377,-1.0,1.0,-0.6703,1.0,1.0,-0.9438,1.0,-0.085,-0.9337,-0.5658,1.0,-1.0,1.0,-1.0,-1.0,1.0,0.0,0.0,0.0,0.0,0.0,0.0,0.0,0.0,0.0,0.24,0.0,0.24,0.0,0
1.76,run,-3.4,0.49,-7.71,-4.84,9.01,0.0,0.038,0.0,0.357,-30.94,-13.54,98.09,-23.47,6.68,88.51,-1.41,-19.95,123.13,16.7,-10.55,80.16,-29.79,-34.54,118.56,-9.4,-1.23,84.64,-35.0,-20.19,86.78,-17.0,-3.41,100.72,10.68,-18.6,133.55,8.86,-21.3,80.03,-19.5,-39.96,122.23,-20.29,-10.83,97.11,-1.0,0.0387,-1.0,1.0,-1.0,1.0,1.0,0.4333,1.0,0.2532,0.0294,-0.6984,1.0,-1.0,0.3627,-1.0,-1.0,1.0,0.0,0.019,0.013,0.026,0.0,0.117,0.033,0.0,0.104,0.169,0.0,0.0,0.013,0.006,0.033,0.013,0.0,0.052,-0.517,-0.5123,0.3467,-0.4418,-0.1181,0.1549,-0.0506,-0.6167,0.7609,0.3099,-0.4495,0.0276,-0.5415,-0.8989,0.6581,-0.1227,-0.3129,0.1012,-0.0556,-0.2854,-0.152,0.2677,-0.0501,0.282,0.2976,-0.3051,0.3073,-0.3173,-0.2182,-0.2649,0.0719,-0.316,0.2878,-0.2464,-0.0235,0.2763,-0.6994,-0.3075,-0.0942,-0.1566,0.1228,-1.0,-0.6989,-1.0,1.0,-1.0,1.0,1.0,0.2676,1.0,-0.157,0.0493,0.5213,1.0,-1.0,0.8383,-1.0,-1.0,1.0,0.0,0.0,0.0,0.0,0.0,0.0,0.0,0.0,0.0,0.2533,0.0,0.2533,0.0,0
1.8,run,-3.58,0.38,-4.45,-1.62,10.57,0.0,0.04,0.0,0.357,-32.43,-15.38,96.5,-22.15,5.27,89.91,0.0,-20.92,124.45,15.29,-11.87,79.72,-28.3,-35.95,119.88,-10.63,-2.72,86.04,-35.0,-18.69,85.28,-15.5,-4.91,102.22,12.18,-17.1,135.05,10.36,-22.8,78.53,-18.0,-41.46,120.73,-21.79,-12.33,98.61,-1.0,0.3874,-1.0,1.0,-1.0,1.0,1.0,1.0,1.0,0.4892,-0.017,-0.7509,1.0,-1.0,0.3385,-1.0,-1.0,1.0,0.0,0.026,0.006,0.065,0.0,0.136,0.039,0.019,0.136,0.084,0.0,0.006,0.019,0.0,0.026,0.045,0.0,0.078,-0.5415,-0.5384,0.3283,-0.4203,-0.1381,0.1795,-0.0276,-0.6443,0.7869,0.2853,-0.4725,0.0215,-0.52,-0.9265,0.6826,-0.1503,-0.3298,0.1227,-0.131,-0.2976,-0.1754,0.2679,-0.1098,0.2895,0.2946,-0.3171,0.3129,-0.3142,-0.239,-0.2084,0.1309,-0.3248,0.2935,-0.276,-0.0797,0.2739,-0.7265,-0.3264,-0.1346,-0.0844,0.1573,-1.0,0.0387,-1.0,1.0,-1.0,1.0,1.0,0.4333,1.0,0.2532,0.0294,-0.6984,1.0,-1.0,0.3627,-1.0,-1.0,1.0,0.0,0.0,0.0,0.0,0.0,0.0,0.0,0.0,0.0,0.2667,0.0,0.2667,0.0,0
1.84,run,-3.79,0.7,-2.51,5.39,13.64,0.0,0.042,0.0,0.357,-33.75,-16.7,94.31,-20.3,3.34,91.85,2.02,-21.88,126.21,13.1,-13.8,79.37,-26.46,-37.88,121.03,-12.22,-4.75,87.98,-35.0,-17.19,83.78,-14.0,-6.41,103.72,13.68,-15.6,136.55,11.86,-24.3,77.03,-16.5,-42.96,119.23,-23.29,-13.83,100.11,-1.0,1.0,-1.0,1.0,-1.0,1.0,1.0,1.0,1.0,0.5497,-0.6214,-0.7217,1.0,-1.0,0.3022,-1.0,-1.0,1.0,0.0,0.026,0.006,0.065,0.0,0.136,0.039,0.019,0.136,0.084,0.0,0.006,0.019,0.0,0.026,0.045,0.0,0.078,-0.5676,-0.5706,0.3007,-0.3973,-0.1626,0.204,-0.0031,-0.6611,0.8099,0.2608,-0.4955,0.0138,-0.4939,-0.9511,0.7056,-0.1718,-0.3559,0.1473,-0.1894,-0.329,-0.2263,0.2738,-0.1689,0.2946,0.2982,-0.2852,0.3053,-0.3119,-0.2536,-0.1747,0.1894,-0.3193,0.2917,-0.2737,-0.1536,0.2837,-0.7427,-0.3354,-0.0777,-0.0283,0.1844,-1.0,0.3874,-1.0,1.0,-1.0,1.0,1.0,1.0,1.0,0.4892,-0.017,-0.7509,1.0,-1.0,0.3385,-1.0,-1.0,1.0,0.0,0.0,0.0,0.0,0.0,0.0,0.0,0.0,0.0,0.28,0.0,0.28,0.0,0
1.88,run,-4.24,0.99,-8.95,6.57,5.98,0.0,0.044,0.0,0.357,-34.54,-17.75,92.9,-18.98,1.93,93.34,3.34,-22.32,127.44,12.04,-15.12,78.66,-25.14,-39.29,121.55,-13.45,-6.33,89.38,-35.0,-15.69,82.28,-12.5,-7.91,105.22,15.18,-14.1,135.05,13.36,-25.8,75.53,-15.0,-44.46,117.73,-24.79,-15.33,101.61,-1.0,1.0,-1.0,1.0,-1.0,1.0,1.0,1.0,0.7469,0.6116,-1.0,-1.0,1.0,-1.0,0.5688,-1.0,-1.0,1.0,0.0,0.026,0.006,0.065,0.0,0.136,0.039,0.019,0.136,0.084,0.0,0.006,0.019,0.0,0.026,0.045,0.0,0.078,-0.5906,-0.5937,0.2623,-0.3651,-0.1963,0.2378,0.0322,-0.678,0.8406,0.2224,-0.5292,0.0077,-0.4617,-0.9848,0.7256,-0.1994,-0.3912,0.181,-0.1947,-0.2925,-0.262,0.2787,-0.2094,0.2974,0.304,-0.2452,0.2966,-0.3219,-0.2687,-0.1388,0.2196,-0.3147,0.2581,-0.2662,-0.2028,0.2898,-0.7603,-0.3073,-0.0438,0.094,0.2381,-1.0,1.0,-1.0,1.0,-1.0,1.0,1.0,1.0,1.0,0.5497,-0.6214,-0.7217,1.0,-1.0,0.3022,-1.0,-1.0,1.0,0.0,0.0,0.0,0.0,0.0,0.0,0.0,0.0,0.0,0.2933,0.0,0.2933,0.0,0
1.92,run,-4.66,1.58,-8.18,14.71,0.12,0.0,0.046,0.0,0.357,-34.8,-18.46,91.49,-17.58,0.53,94.83,4.75,-22.41,128.67,11.25,-16.35,77.7,-23.73,-40.61,121.82,-14.77,-7.82,90.62,-35.0,-14.19,80.78,-11.0,-9.41,106.72,16.68,-12.6,133.55,14.86,-27.3,74.03,-13.5,-45.96,119.23,-26.29,-16.83,103.11,-1.0,1.0,-1.0,1.0,-0.73,1.0,1.0,1.0,0.4181,0.8192,-1.0,-0.8424,1.0,-1.0,0.6874,-1.0,-1.0,1.0,0.006,0.006,0.013,0.065,0.0,0.065,0.045,0.169,0.189,0.019,0.0,0.006,0.033,0.0,0.006,0.163,0.0,0.117,-0.6044,-0.6121,0.2378,-0.3421,-0.2209,0.2638,0.0552,-0.6857,0.8621,0.204,-0.5522,-0.0046,-0.4387,-1.0094,0.7348,-0.2209,-0.4188,0.2056,-0.1874,-0.2729,-0.2743,0.2803,-0.2374,0.3047,0.298,-0.2001,0.2871,-0.2935,-0.2733,-0.1426,0.2389,-0.3112,0.2147,-0.2659,-0.2442,0.2937,-0.8003,-0.2825,-0.1561,0.1147,0.1044,-1.0,1.0,-1.0,1.0,-1.0,1.0,1.0,1.0,0.7469,0.6116,-1.0,-1.0,1.0,-1.0,0.5688,-1.0,-1.0,1.0,0.0,0.0,0.0,0.0,0.0,0.0,0.0,0.0,0.0,0.3067,0.0,0.3067,0.0,0
1.96,run,-5.03,2.33,-8.43,15.55,3.18,0.0,0.048,0.0,0.357,-34.8,-18.98,90.0,-16.08,-0.88,96.24,6.24,-22.41,129.99,10.81,-17.67,76.55,-22.41,-42.01,121.73,-16.08,-9.23,91.85,-35.0,-12.69,79.28,-9.5,-10.91,108.22,18.18,-11.1,132.05,16.36,-28.8,72.53,-12.0,-47.46,120.73,-27.79,-18.33,104.61,-1.0,1.0,-1.0,1.0,-0.2411,1.0,1.0,1.0,0.1088,0.8737,-1.0,-0.9394,1.0,-1.0,1.0,-1.0,-1.0,1.0,0.006,0.006,0.013,0.065,0.0,0.065,0.045,0.169,0.189,0.019,0.0,0.006,0.033,0.0,0.006,0.163,0.0,0.117,-0.609,-0.6243,0.2132,-0.3175,-0.2454,0.2899,0.0798,-0.6872,0.8836,0.1902,-0.5737,-0.0215,-0.4142,-1.0324,0.7394,-0.2439,-0.4449,0.227,-0.1485,-0.2372,-0.2844,0.2886,-0.2586,0.3115,0.301,-0.1458,0.2818,-0.2574,-0.2721,-0.1634,0.2596,-0.3044,0.1676,-0.2727,-0.2691,0.2864,-0.8363,-0.2306,-0.1428,0.2568,0.002,-1.0,1.0,-1.0,1.0,-0.73,1.0,1.0,1.0,0.4181,0.8192,-1.0,-0.8424,1.0,-1.0,0.6874,-1.0,-1.0,1.0,0.0,0.0,0.0,0.0,0.0,0.0,0.0,0.0,0.0,0.32,0.0,0.32,0.0,0
2.0,run,-4.99,3.15,-3.95,20.87,2.76,0.0,0.05,0.0,0.357,-34.8,-18.98,88.59,-14.68,-2.11,97.73,7.73,-22.41,131.04,10.72,-18.81,75.32,-21.09,-43.42,121.03,-17.49,-10.72,93.08,-35.0,-11.19,77.78,-8.0,-12.41,109.72,19.68,-9.6,130.55,17.86,-30.3,71.03,-10.5,-48.96,122.23,-29.29,-19.83,106.11,-1.0,1.0,-1.0,1.0,0.0374,1.0,1.0,1.0,-0.1071,1.0,-1.0,-0.54,1.0,-1.0,1.0,-1.0,-1.0,1.0,0.006,0.006,0.013,0.065,0.0,0.065,0.045,0.169,0.189,0.019,0.0,0.006,0.033,0.0,0.006,0.163,0.0,0.117,-0.609,-0.6335,0.1871,-0.2915,-0.27,0.3145,0.1058,-0.6872,0.9066,0.1825,-0.5967,-0.0414,-0.3912,-1.0569,0.7378,-0.2669,-0.4694,0.2485,-0.104,-0.2006,-0.2969,0.2998,-0.2731,0.3101,0.3085,-0.1021,0.2836,-0.209,-0.2768,-0.1892,0.2681,-0.3052,0.1116,-0.2772,-0.2805,0.2811,-0.8692,-0.1654,-0.1471,0.2713,0.0555,-1.0,1.0,-1.0,1.0,-0.2411,1.0,1.0,1.0,0.1088,0.8737,-1.0,-0.9394,1.0,-1.0,1.0,-1.0,-1.0,1.0,0.0,0.0,0.0,0.0,0.0,0.0,0.0,0.0,0.0,0.3333,0.0,0.3333,0.0,0
2.04,run,-4.82,4.0,0.43,21.21,0.8,0.0,0.05,0.0,0.487,-34.89,-18.81,86.92,-13.18,-3.52,99.14,9.14,-21.71,131.84,10.9,-19.6,74.27,-19.42,-44.65,120.76,-18.9,-12.13,94.31,-35.0,-9.69,76.28,-6.5,-13.91,111.22,21.18,-8.1,129.05,19.36,-31.8,69.53,-9.0,-50.46,123.73,-30.79,-21.33,107.61,-1.0,1.0,-1.0,1.0,0.178,1.0,1.0,0.895,-0.3942,0.9998,-1.0,-0.5298,1.0,-1.0,1.0,-1.0,-1.0,1.0,0.0,0.013,0.026,0.039,0.0,0.111,0.045,0.487,0.163,0.033,0.019,0.013,0.026,0.019,0.0,0.143,0.006,0.169,-0.609,-0.6335,0.1626,-0.2669,-0.2915,0.3405,0.1319,-0.6872,0.925,0.181,-0.6167,-0.0629,-0.3682,-1.0815,0.7256,-0.2915,-0.4955,0.27,-0.0728,-0.1404,-0.2999,0.3019,-0.2717,0.3149,0.3138,-0.0715,0.2675,-0.152,-0.2685,-0.2129,0.2739,-0.3057,0.0321,-0.2861,-0.2941,0.2773,-0.8651,-0.0936,-0.0689,0.3642,0.0481,-1.0,1.0,-1.0,1.0,0.0374,1.0,1.0,1.0,-0.1071,1.0,-1.0,-0.54,1.0,-1.0,1.0,-1.0,-1.0,1.0,0.0,0.0,0.0,0.0,0.0,0.0,0.0,0.0,0.0,0.3333,0.0,0.3333,0.0,0
2.08,run,-4.91,4.73,-1.55,18.44,2.52,0.0,0.05,0.0,0.487,-34.8,-18.54,85.61,-11.78,-5.01,100.55,10.55,-20.21,132.36,11.87,-21.45,72.51,-17.93,-45.97,120.59,-20.39,-13.54,95.62,-35.0,-8.19,74.78,-5.0,-12.41,112.72,22.68,-6.6,127.55,20.86,-33.3,68.03,-7.5,-51.96,125.23,-32.29,-22.83,109.11,-1.0,1.0,-1.0,1.0,0.2607,1.0,1.0,0.4484,-0.8869,0.9864,-1.0,-0.0719,1.0,-1.0,1.0,-1.0,-1.0,1.0,0.0,0.013,0.026,0.039,0.0,0.111,0.045,0.487,0.163,0.033,0.019,0.013,0.026,0.019,0.0,0.143,0.006,0.169,-0.6105,-0.6305,0.1335,-0.2408,-0.316,0.3651,0.1565,-0.675,0.9388,0.1841,-0.6305,-0.0813,-0.339,-1.1029,0.721,-0.316,-0.52,0.2915,-0.0567,-0.0868,-0.3192,0.3091,-0.2822,0.3124,0.3117,-0.004,0.239,-0.0949,-0.2397,-0.2181,0.301,-0.2945,0.0052,-0.2923,-0.2979,0.2746,-0.851,-0.0195,0.0075,0.3702,0.0139,-1.0,1.0,-1.0,1.0,0.178,1.0,1.0,0.895,-0.3942,0.9998,-1.0,-0.5298,1.0,-1.0,1.0,-1.0,-1.0,1.0,0.0,0.0,0.0,0.0,0.0,0.0,0.0,0.0,0.0,0.3333,0.0,0.3333,0.0,0
2.12,run,-5.02,5.08,-3.01,7.84,-5.49,0.0,0.05,0.0,0.487,-34.98,-17.31,84.2,-10.28,-6.33,102.04,11.87,-18.98,132.45,12.92,-22.76,71.37,-16.52,-47.37,121.03,-21.88,-15.03,96.94,-35.0,-6.69,73.28,-3.5,-10.91,114.22,24.18,-8.1,126.05,22.36,-34.8,69.53,-6.0,-53.46,126.73,-33.79,-24.33,110.61,-1.0,1.0,-1.0,1.0,0.48,1.0,1.0,-0.624,-1.0,1.0,-1.0,1.0,1.0,-1.0,1.0,-1.0,-1.0,1.0,0.0,0.013,0.026,0.039,0.0,0.111,0.045,0.487,0.163,0.033,0.019,0.013,0.026,0.019,0.0,0.143,0.006,0.169,-0.609,-0.6259,0.1104,-0.2163,-0.3421,0.3896,0.181,-0.6489,0.948,0.201,-0.6627,-0.112,-0.3129,-1.1259,0.7179,-0.3421,-0.5446,0.3145,-0.0339,-0.0435,-0.3097,0.3084,-0.2953,0.3107,0.3102,0.095,0.2018,-0.0032,-0.2886,-0.2677,0.3085,-0.2924,-0.0079,-0.3024,-0.3006,0.2785,-0.8587,0.0439,-0.027,0.3218,0.044,-1.0,1.0,-1.0,1.0,0.2607,1.0,1.0,0.4484,-0.8869,0.9864,-1.0,-0.0719,1.0,-1.0,1.0,-1.0,-1.0,1.0,0.0,0.0,0.0,0.0,0.0,0.0,0.0,0.0,0.0,0.3333,0.0,0.3333,0.0,0
2.16,run,-5.17,5.63,-3.87,12.73,-6.33,0.0,0.05,0.0,0.507,-34.89,-15.91,82.79,-8.88,-7.65,103.54,13.27,-17.84,132.45,14.33,-24.17,70.14,-15.12,-48.6,121.64,-23.47,-16.44,98.44,-35.0,-5.19,71.78,-5.0,-9.41,115.72,25.68,-9.6,124.55,23.86,-36.3,71.03,-4.5,-54.96,128.23,-35.0,-25.83,112.11,-1.0,1.0,-1.0,-1.0,0.6496,1.0,1.0,-0.6022,-1.0,1.0,-1.0,1.0,1.0,-0.7962,1.0,-1.0,-1.0,1.0,0.0,0.026,0.006,0.033,0.0,0.078,0.045,0.507,0.033,0.013,0.013,0.006,0.026,0.026,0.019,0.123,0.0,0.189,-0.6121,-0.6044,0.0859,-0.1902,-0.3651,0.4157,0.204,-0.6274,0.9495,0.2194,-0.6857,-0.1319,-0.2884,-1.1505,0.7256,-0.3682,-0.5706,0.3375,-0.0352,0.0497,-0.3084,0.3132,-0.2926,0.3148,0.303,0.1466,0.147,0.0665,-0.2879,-0.2618,0.3076,-0.2963,0.0231,-0.309,-0.3077,0.2808,-0.8679,0.0745,-0.0526,0.1368,-0.0957,-1.0,1.0,-1.0,1.0,0.48,1.0,1.0,-0.624,-1.0,1.0,-1.0,1.0,1.0,-1.0,1.0,-1.0,-1.0,1.0,0.0,0.0,0.0,0.0,0.0,0.0,0.0,0.0,0.0,0.3333,0.0,0.3333,0.0,0
2.2,run,-5.19,6.11,0.28,11.91,-8.1,0.0,0.05,0.0,0.507,-34.98,-14.59,81.39,-7.47,-8.88,105.03,14.59,-16.61,132.45,15.73,-25.58,69.17,-13.71,-50.01,122.61,-24.79,-17.75,99.84,-33.5,-3.69,70.28,-6.5,-7.91,117.22,27.18,-11.1,123.05,25.36,-37.8,72.53,-3.0,-53.46,129.73,-35.0,-27.33,113.61,-0.0937,1.0,-0.2182,-1.0,0.8283,1.0,1.0,-1.0,-1.0,1.0,-1.0,1.0,1.0,0.5486,1.0,-1.0,-1.0,1.0,0.0,0.026,0.006,0.033,0.0,0.078,0.045,0.507,0.033,0.013,0.013,0.006,0.026,0.026,0.019,0.123,0.0,0.189,-0.6105,-0.5798,0.0614,-0.1657,-0.3881,0.4418,0.2286,-0.6075,0.9495,0.2439,-0.7102,-0.1534,-0.2638,-1.172,0.7363,-0.3958,-0.5952,0.3636,-0.0189,0.127,-0.3081,0.3115,-0.2913,0.3184,0.3043,0.1776,0.1029,0.1387,-0.2937,-0.264,0.3075,-0.2881,0.0565,-0.32,-0.3076,0.2946,-0.8811,0.1224,-0.0675,0.2222,-0.1105,-1.0,1.0,-1.0,-1.0,0.6496,1.0,1.0,-0.6022,-1.0,1.0,-1.0,1.0,1.0,-0.7962,1.0,-1.0,-1.0,1.0,0.0,0.0,0.0,0.0,0.0,0.0,0.0,0.0,0.0,0.3333,0.0,0.3333,0.0,0
2.24,run,-5.28,6.69,-1.71,15.52,-7.17,0.0,0.05,0.0,0.507,-34.98,-13.36,79.89,-6.33,-9.84,106.44,16.0,-15.29,131.84,17.14,-26.98,68.55,-12.22,-51.33,124.01,-26.28,-19.25,101.25,-32.0,-2.19,71.78,-8.0,-6.41,118.72,28.68,-12.6,121.55,26.86,-39.3,74.03,-1.5,-51.96,131.23,-35.0,-28.83,115.11,1.0,1.0,0.9539,-1.0,0.8106,1.0,1.0,-1.0,-1.0,1.0,-1.0,1.0,1.0,1.0,1.0,-1.0,-1.0,1.0,0.0,0.026,0.006,0.033,0.0,0.078,0.045,0.507,0.033,0.013,0.013,0.006,0.026,0.026,0.019,0.123,0.0,0.189,-0.6121,-0.5568,0.0368,-0.1411,-0.4096,0.4679,0.2516,-0.586,0.9495,0.2684,-0.7348,-0.1703,-0.2393,-1.1965,0.7532,-0.4188,-0.6182,0.3881,-0.019,0.1763,-0.3089,0.3113,-0.2855,0.3219,0.3004,0.2059,0.072,0.1904,-0.2988,-0.2489,0.3085,-0.2949,0.1037,-0.3114,-0.3027,0.2994,-0.8831,0.1643,0.0048,0.2079,-0.1414,-0.0937,1.0,-0.2182,-1.0,0.8283,1.0,1.0,-1.0,-1.0,1.0,-1.0,1.0,1.0,0.5486,1.0,-1.0,-1.0,1.0,0.0,0.0,0.0,0.0,0.0,0.0,0.0,0.0,0.0,0.3333,0.0,0.3333,0.0,0
2.28,run,-5.47,7.2,-4.69,13.86,-6.24,0.0,0.05,0.0,0.617,-34.54,-12.13,78.49,-5.36,-10.55,107.84,17.31,-14.15,130.69,18.54,-28.48,68.12,-10.9,-52.47,125.33,-27.69,-20.65,102.57,-30.5,-0.69,73.28,-9.5,-4.91,120.22,30.18,-14.1,120.05,28.36,-40.8,75.53,0.0,-50.46,129.73,-35.0,-30.33,116.61,1.0,1.0,1.0,-1.0,0.7244,1.0,1.0,-1.0,-1.0,1.0,-1.0,1.0,1.0,1.0,-0.1455,-1.0,-1.0,1.0,0.006,0.052,0.006,0.013,0.0,0.071,0.065,0.617,0.0,0.013,0.019,0.006,0.026,0.013,0.019,0.117,0.0,0.169,-0.6121,-0.5354,0.0107,-0.1212,-0.4264,0.4924,0.2761,-0.563,0.9388,0.293,-0.7593,-0.181,-0.2132,-1.2195,0.7777,-0.4449,-0.6443,0.4126,-0.0133,0.2031,-0.313,0.2918,-0.2624,0.3164,0.3013,0.2295,0.0106,0.2243,-0.3002,-0.214,0.3127,-0.2918,0.1636,-0.3147,-0.3086,0.3006,-0.8907,0.2148,-0.0298,0.2709,-0.1252,1.0,1.0,0.9539,-1.0,0.8106,1.0,1.0,-1.0,-1.0,1.0,-1.0,1.0,1.0,1.0,1.0,-1.0,-1.0,1.0,0.0,0.0,0.0,0.0,0.0,0.0,0.0,0.0,0.0,0.3333,0.0,0.3333,0.0,0
2.32,run,-5.68,7.28,-4.25,2.45,0.83,0.0,0.05,0.0,0.617,-33.4,-10.46,76.73,-4.66,-10.9,109.6,18.98,-13.18,129.2,20.3,-30.23,68.38,-9.05,-53.44,127.09,-29.44,-22.41,104.33,-29.0,0.81,74.78,-11.0,-3.41,121.7,31.68,-15.6,118.55,29.86,-42.3,77.03,1.5,-48.96,128.23,-35.0,-31.83,118.11,1.0,1.0,1.0,-1.0,0.9954,0.667,1.0,-1.0,-1.0,1.0,-1.0,1.0,0.9255,1.0,-0.2809,-1.0,-1.0,1.0,0.006,0.052,0.006,0.013,0.0,0.071,0.065,0.617,0.0,0.013,0.019,0.006,0.026,0.013,0.019,0.117,0.0,0.169,-0.6044,-0.5139,-0.0138,-0.1043,-0.4387,0.517,0.2991,-0.543,0.9189,0.3175,-0.7854,-0.1887,-0.1902,-1.2395,0.8007,-0.4694,-0.6688,0.4357,0.0195,0.2228,-0.3112,0.2676,-0.2298,0.3136,0.2973,0.2355,-0.0674,0.2491,-0.3081,-0.1786,0.3052,-0.2791,0.2009,-0.3125,-0.3082,0.2968,-0.9077,0.2595,-0.0819,0.2419,-0.1089,1.0,1.0,1.0,-1.0,0.7244,1.0,1.0,-1.0,-1.0,1.0,-1.0,1.0,1.0,1.0,-0.1455,-1.0,-1.0,1.0,0.0,0.0,0.0,0.0,0.0,0.0,0.0,0.0,0.0,0.3333,0.0,0.3333,0.0,0
2.36,run,-5.92,7.34,-5.63,2.53,1.34,0.0,0.05,0.0,0.617,-32.26,-9.05,75.32,-4.48,-10.99,111.09,20.39,-12.66,127.97,21.8,-31.82,68.91,-7.56,-54.14,128.23,-30.94,-23.91,105.91,-27.5,2.31,76.28,-12.5,-1.91,120.2,33.18,-17.1,117.05,31.36,-43.8,78.53,0.0,-47.46,126.73,-35.0,-33.33,119.61,1.0,1.0,1.0,-1.0,1.0,-0.2181,1.0,-1.0,-1.0,1.0,-1.0,1.0,-0.045,1.0,-1.0,-1.0,-1.0,1.0,0.006,0.052,0.006,0.013,0.0,0.071,0.065,0.617,0.0,0.013,0.019,0.006,0.026,0.013,0.019,0.117,0.0,0.169,-0.5844,-0.4847,-0.0445,-0.092,-0.4449,0.5476,0.3283,-0.5262,0.8928,0.3482,-0.8161,-0.1841,-0.158,-1.2563,0.8314,-0.5001,-0.6995,0.4663,0.0737,0.2437,-0.3103,0.2243,-0.1793,0.3119,0.2959,0.2157,-0.1258,0.2668,-0.3081,-0.1112,0.3107,-0.2462,0.2331,-0.3111,-0.3082,0.3002,-0.9257,0.2661,-0.0742,0.0428,0.0146,1.0,1.0,1.0,-1.0,0.9954,0.667,1.0,-1.0,-1.0,1.0,-1.0,1.0,0.9255,1.0,-0.2809,-1.0,-1.0,1.0,0.0,0.0,0.0,0.0,0.0,0.0,0.0,0.0,0.0,0.3333,0.0,0.3333,0.0,0
2.4,run,-6.11,7.31,-5.52,-0.19,4.48,0.0,0.05,0.0,0.617,-31.11,-7.91,74.36,-4.22,-10.99,112.32,21.8,-12.39,126.91,23.12,-33.05,69.87,-6.42,-54.32,128.85,-32.17,-25.31,107.23,-26.0,3.81,77.78,-14.0,-0.41,118.7,34.68,-18.6,115.55,32.86,-45.3,80.03,-1.5,-45.96,125.23,-35.0,-34.83,121.11,0.5666,1.0,1.0,-1.0,0.8136,-0.4749,1.0,-1.0,-1.0,1.0,-1.0,1.0,-1.0,1.0,-1.0,-1.0,-1.0,1.0,0.026,0.071,0.0,0.026,0.078,0.078,0.058,0.299,0.0,0.019,0.019,0.013,0.026,0.013,0.013,0.071,0.0,0.143,-0.5645,-0.4602,-0.069,-0.089,-0.4464,0.5737,0.3528,-0.517,0.8713,0.3743,-0.8437,-0.1749,-0.1319,-1.2686,0.8514,-0.5262,-0.7256,0.4939,0.1214,0.2565,-0.3031,0.1678,-0.1309,0.3096,0.293,0.1832,-0.1632,0.278,-0.3123,-0.0456,0.3088,-0.2153,0.2329,-0.3091,-0.307,0.3068,-0.9466,0.272,-0.0982,0.0442,0.0234,1.0,1.0,1.0,-1.0,1.0,-0.2181,1.0,-1.0,-1.0,1.0,-1.0,1.0,-0.045,1.0,-1.0,-1.0,-1.0,1.0,0.0,0.0,0.0,0.0,0.0,0.0,0.0,0.0,0.0,0.3333,0.0,0.3333,0.0,0
2.44,run,-6.32,7.32,-5.7,-0.36,4.04,0.0,0.05,0.0,0.617,-30.06,-6.86,73.65,-4.39,-10.63,113.64,23.12,-12.3,125.77,24.35,-34.45,71.02,-5.36,-53.79,129.2,-33.13,-26.54,108.63,-24.5,5.31,79.28,-15.5,1.09,117.2,35.0,-20.1,114.05,34.36,-46.8,81.53,-3.0,-44.46,123.73,-35.0,-36.33,119.61,-0.0811,1.0,1.0,-1.0,0.4771,-0.8831,1.0,-1.0,-1.0,1.0,-1.0,1.0,-1.0,1.0,-1.0,-1.0,-1.0,0.5427,0.026,0.071,0.0,0.026,0.078,0.078,0.058,0.299,0.0,0.019,0.019,0.013,0.026,0.013,0.013,0.071,0.0,0.143,-0.5446,-0.4403,-0.0859,-0.0844,-0.4464,0.5952,0.3774,-0.5123,0.8529,0.3973,-0.8652,-0.158,-0.112,-1.2717,0.8621,-0.5476,-0.7501,0.517,0.1663,0.2609,-0.2809,0.1362,-0.0916,0.3043,0.3052,0.147,-0.1893,0.2884,-0.3061,0.0369,0.2974,-0.1632,0.2068,-0.3039,-0.3149,0.3085,-0.9632,0.2692,-0.0963,-0.0033,0.0781,0.5666,1.0,1.0,-1.0,0.8136,-0.4749,1.0,-1.0,-1.0,1.0,-1.0,1.0,-1.0,1.0,-1.0,-1.0,-1.0,1.0,0.0,0.0,0.0,0.0,0.0,0.0,0.0,0.0,0.0,0.3333,0.0,0.3333,0.0,0
2.48,run,-6.55,6.95,-5.43,-7.91,6.86,0.0,0.05,0.0,0.617,-28.74,-5.62,73.39,-5.45,-9.76,115.05,24.7,-12.3,124.54,26.02,-35.95,72.33,-4.22,-53.0,129.2,-33.84,-28.04,110.21,-26.0,6.81,80.78,-17.0,-0.41,115.7,35.0,-21.6,112.55,35.0,-48.3,83.03,-4.5,-42.96,122.23,-35.0,-37.83,118.11,-1.0,1.0,1.0,-1.0,0.356,-1.0,1.0,-0.3785,-1.0,1.0,-1.0,1.0,-1.0,1.0,-1.0,-1.0,-1.0,-0.1549,0.026,0.071,0.0,0.026,0.078,0.078,0.058,0.299,0.0,0.019,0.019,0.013,0.026,0.013,0.013,0.071,0.0,0.143,-0.5262,-0.4218,-0.0982,-0.0874,-0.4403,0.6182,0.4004,-0.5108,0.833,0.4188,-0.8897,-0.1381,-0.0936,-1.2625,0.8682,-0.5645,-0.7716,0.5415,0.1854,0.2516,-0.2427,0.0838,-0.0411,0.2992,0.2999,0.1086,-0.2072,0.2824,-0.3063,0.1005,0.2772,-0.0798,0.1678,-0.276,-0.3009,0.308,-0.9817,0.2702,-0.0995,-0.0063,0.0705,-0.0811,1.0,1.0,-1.0,0.4771,-0.8831,1.0,-1.0,-1.0,1.0,-1.0,1.0,-1.0,1.0,-1.0,-1.0,-1.0,0.5427,0.0,0.0,0.0,0.0,0.0,0.0,0.0,0.0,0.0,0.3333,0.0,0.3333,0.0,0
2.52,run,-8.48,5.44,-15.76,-12.56,13.37,0.0,0.05,0.0,0.617,-26.1,-1.85,74.09,-8.35,-6.5,117.25,28.92,-13.62,121.38,30.15,-39.99,76.03,-2.29,-50.1,127.18,-34.37,-31.9,113.99,-27.5,8.31,82.28,-18.5,-1.91,114.2,35.0,-20.1,111.05,35.0,-49.8,84.53,-6.0,-44.46,120.73,-35.0,-39.33,116.61,-1.0,1.0,1.0,-1.0,-0.0694,-1.0,1.0,1.0,-1.0,1.0,-1.0,1.0,-1.0,-0.9008,-1.0,-1.0,-1.0,-1.0,0.006,0.078,0.045,0.045,0.136,0.033,0.052,0.0,0.013,0.019,0.033,0.006,0.006,0.136,0.013,0.026,0.0,0.071,-0.5031,-0.4004,-0.1028,-0.1058,-0.4249,0.6427,0.428,-0.5108,0.8115,0.4479,-0.9158,-0.115,-0.0736,-1.2487,0.8682,-0.5768,-0.7977,0.5691,0.2083,0.2495,-0.1856,-0.0042,0.0236,0.2933,0.3042,0.076,-0.2184,0.2972,-0.3035,0.149,0.2621,-0.0087,0.1174,-0.2351,-0.2997,0.3099,-1.0014,0.2381,-0.0948,-0.1381,0.1197,-1.0,1.0,1.0,-1.0,0.356,-1.0,1.0,-0.3785,-1.0,1.0,-1.0,1.0,-1.0,1.0,-1.0,-1.0,-1.0,-0.1549,0.0,0.0,0.0,0.0,0.0,0.0,0.0,0.0,0.0,0.3333,0.0,0.3333,0.0,0
2.56,run,-9.18,4.6,-17.35,-23.77,9.71,0.0,0.05,0.0,0.617,-25.66,-0.62,74.97,-9.58,-5.54,117.42,30.23,-14.68,120.15,31.38,-41.13,77.34,-2.11,-49.13,126.21,-34.45,-33.05,114.79,-29.0,9.81,83.78,-20.0,-3.41,112.7,35.0,-18.6,109.55,35.0,-51.3,86.03,-7.5,-45.96,119.23,-33.5,-40.83,115.11,-1.0,0.9411,1.0,-1.0,-0.0225,-1.0,1.0,1.0,-1.0,1.0,-1.0,1.0,-1.0,-1.0,-1.0,0.348,-1.0,-1.0,0.006,0.078,0.045,0.045,0.136,0.033,0.052,0.0,0.013,0.019,0.033,0.006,0.006,0.136,0.013,0.026,0.0,0.071,-0.4571,-0.3344,-0.0905,-0.1565,-0.3682,0.6811,0.5016,-0.5338,0.7563,0.52,-0.9863,-0.0506,-0.0399,-1.198,0.833,-0.586,-0.8652,0.6351,0.2038,0.2577,-0.1144,-0.0667,0.088,0.2536,0.3057,0.0242,-0.2225,0.2989,-0.3013,0.1854,0.226,0.0577,0.0378,-0.1762,-0.2948,0.3,-1.1703,0.1059,-0.275,-0.2192,0.2333,-1.0,1.0,1.0,-1.0,-0.0694,-1.0,1.0,1.0,-1.0,1.0,-1.0,1.0,-1.0,-0.9008,-1.0,-1.0,-1.0,-1.0,0.0,0.0,0.0,0.0,0.0,0.0,0.0,0.0,0.0,0.3333,0.0,0.3333,0.0,0
2.6,run,-9.84,4.01,-16.3,-14.77,7.31,0.0,0.05,0.0,0.617,-25.22,0.53,76.03,-10.9,-4.48,117.33,31.73,-15.73,118.92,32.61,-42.36,78.66,-2.11,-48.34,124.8,-34.54,-34.28,115.4,-30.5,8.31,85.28,-21.5,-4.91,111.2,35.0,-17.1,108.05,35.0,-52.8,87.53,-9.0,-47.46,117.73,-32.0,-42.33,113.61,-1.0,-0.5033,1.0,-1.0,-0.0131,-1.0,1.0,1.0,-1.0,1.0,-0.9322,1.0,-1.0,-1.0,-1.0,1.0,-1.0,-1.0,0.006,0.078,0.045,0.045,0.136,0.033,0.052,0.0,0.013,0.019,0.033,0.006,0.006,0.136,0.013,0.026,0.0,0.071,-0.4495,-0.3129,-0.0752,-0.1779,-0.3513,0.6842,0.5246,-0.5522,0.7348,0.5415,-1.0063,-0.0276,-0.0368,-1.1812,0.8161,-0.5875,-0.8851,0.6489,0.1748,0.2704,-0.0158,-0.1367,0.1323,0.1904,0.3104,-0.0602,-0.2457,0.2992,-0.2945,0.2262,0.1711,0.1111,-0.0443,-0.1297,-0.29,0.2679,-1.2309,0.0325,-0.3028,-0.4148,0.1695,-1.0,0.9411,1.0,-1.0,-0.0225,-1.0,1.0,1.0,-1.0,1.0,-1.0,1.0,-1.0,-1.0,-1.0,0.348,-1.0,-1.0,0.0,0.0,0.0,0.0,0.0,0.0,0.0,0.0,0.0,0.3333,0.0,0.3333,0.0,0
2.64,run,-10.15,3.47,-7.52,-12.34,6.64,0.0,0.05,0.0,0.617,-24.87,1.67,77.26,-12.22,-3.34,116.63,32.87,-17.05,117.86,33.66,-43.68,80.16,-2.02,-47.55,123.49,-34.19,-35.6,115.49,-32.0,6.81,86.78,-23.0,-6.41,109.7,35.0,-15.6,106.55,35.0,-54.3,89.03,-10.5,-48.96,116.23,-30.5,-43.83,112.11,-1.0,-0.2146,1.0,-1.0,0.1886,-1.0,1.0,1.0,-1.0,1.0,-1.0,1.0,-1.0,-1.0,-1.0,1.0,-1.0,-1.0,0.013,0.117,0.052,0.045,0.111,0.006,0.019,0.0,0.045,0.006,0.058,0.013,0.006,0.364,0.013,0.006,0.0,0.0,-0.4418,-0.293,-0.0568,-0.201,-0.3329,0.6826,0.5507,-0.5706,0.7133,0.563,-1.0278,-0.0046,-0.0368,-1.1674,0.7915,-0.589,-0.9066,0.6596,0.1509,0.2635,0.0574,-0.1813,0.1611,0.1276,0.3143,-0.1106,-0.2519,0.2894,-0.2861,0.244,0.1197,0.1291,-0.1223,-0.0965,-0.2829,0.2275,-1.2889,-0.0189,-0.2846,-0.2577,0.1275,-1.0,-0.5033,1.0,-1.0,-0.0131,-1.0,1.0,1.0,-1.0,1.0,-0.9322,1.0,-1.0,-1.0,-1.0,1.0,-1.0,-1.0,0.0,0.0,0.0,0.0,0.0,0.0,0.0,0.0,0.0,0.3333,0.0,0.3333,0.0,0
2.68,run,-10.09,2.63,0.4,-11.6,15.38,0.0,0.05,0.0,0.617,-23.99,3.25,78.93,-14.33,-1.58,114.96,34.1,-18.19,116.37,34.63,-45.53,82.09,-1.49,-46.23,121.9,-32.34,-37.35,115.22,-33.5,5.31,88.28,-24.5,-7.91,108.2,35.0,-14.1,105.05,35.0,-55.8,90.53,-12.0,-50.46,114.73,-29.0,-45.33,110.61,-1.0,-0.5331,1.0,-1.0,0.0345,-1.0,1.0,1.0,-1.0,1.0,-1.0,1.0,-1.0,-1.0,-1.0,1.0,-1.0,-1.0,0.013,0.117,0.052,0.045,0.111,0.006,0.019,0.0,0.045,0.006,0.058,0.013,0.006,0.364,0.013,0.006,0.0,0.0,-0.4357,-0.273,-0.0353,-0.224,-0.3129,0.6703,0.5706,-0.5937,0.6949,0.5814,-1.0508,0.0215,-0.0353,-1.1536,0.7685,-0.5829,-0.9296,0.6611,0.1269,0.2535,0.1146,-0.2066,0.1819,0.0468,0.2891,-0.1571,-0.2401,0.2663,-0.2799,0.2611,0.0891,0.1382,-0.1653,-0.0463,-0.2777,0.1645,-1.3159,-0.0663,-0.1312,-0.2154,0.116,-1.0,-0.2146,1.0,-1.0,0.1886,-1.0,1.0,1.0,-1.0,1.0,-1.0,1.0,-1.0,-1.0,-1.0,1.0,-1.0,-1.0,0.0,0.0,0.0,0.0,0.0,0.0,0.0,0.0,0.0,0.3333,0.0,0.3333,0.0,0
2.72,run,-10.15,1.67,-1.85,-22.51,17.15,0.0,0.05,0.0,0.617,-23.12,4.31,79.72,-15.29,-0.53,113.73,34.45,-18.72,115.14,34.8,-46.49,82.97,-0.79,-45.26,120.32,-31.29,-38.23,114.43,-35.0,3.81,89.78,-26.0,-9.41,106.7,35.0,-12.6,103.55,35.0,-57.3,92.03,-13.5,-51.96,113.23,-27.5,-46.83,109.11,-1.0,-1.0,1.0,-1.0,-0.3169,-1.0,1.0,1.0,-1.0,1.0,-0.8986,1.0,-1.0,-1.0,-1.0,1.0,-1.0,-1.0,0.006,0.091,0.065,0.039,0.084,0.006,0.0,0.013,0.045,0.006,0.058,0.013,0.0,0.227,0.006,0.019,0.006,0.013,-0.4203,-0.2454,-0.0061,-0.2608,-0.2823,0.6412,0.5921,-0.6136,0.6688,0.5983,-1.083,0.0552,-0.0261,-1.1305,0.7409,-0.5507,-0.9603,0.6565,0.1233,0.2396,0.1458,-0.2275,0.1964,-0.0328,0.2507,-0.1549,-0.2268,0.2244,-0.2685,0.2587,0.0831,0.1485,-0.1779,0.0401,-0.2635,0.1048,-1.3107,-0.1392,0.0069,-0.2024,0.2685,-1.0,-0.5331,1.0,-1.0,0.0345,-1.0,1.0,1.0,-1.0,1.0,-1.0,1.0,-1.0,-1.0,-1.0,1.0,-1.0,-1.0,0.0,0.0,0.0,0.0,0.0,0.0,0.0,0.0,0.0,0.3333,0.0,0.3333,0.0,0
2.76,run,-10.57,1.28,-9.98,-10.41,19.2,0.0,0.05,0.0,0.617,-22.41,5.1,80.68,-16.35,0.35,112.5,34.63,-18.72,113.82,34.8,-47.37,84.11,-0.44,-44.74,119.62,-30.15,-39.11,113.38,-35.0,2.31,91.28,-27.5,-10.91,105.2,35.0,-11.1,102.05,35.0,-55.8,93.53,-15.0,-53.46,111.73,-26.0,-48.33,107.61,-1.0,-1.0,1.0,-1.0,-0.4769,-1.0,1.0,1.0,-1.0,1.0,-0.1352,1.0,-1.0,-1.0,-1.0,1.0,-1.0,-1.0,0.006,0.091,0.065,0.039,0.084,0.006,0.0,0.013,0.045,0.006,0.058,0.013,0.0,0.227,0.006,0.019,0.006,0.013,-0.405,-0.227,0.0077,-0.2777,-0.2638,0.6197,0.5983,-0.6228,0.6473,0.6013,-1.0999,0.0706,-0.0138,-1.1137,0.7133,-0.5323,-0.9756,0.6427,0.1431,0.2358,0.1531,-0.2216,0.2055,-0.1024,0.1982,-0.1424,-0.2381,0.1684,-0.2503,0.2378,0.1035,0.1664,-0.2266,0.0961,-0.2411,0.0223,-1.3153,-0.2233,-0.0324,-0.3928,0.2993,-1.0,-1.0,1.0,-1.0,-0.3169,-1.0,1.0,1.0,-1.0,1.0,-0.8986,1.0,-1.0,-1.0,-1.0,1.0,-1.0,-1.0,0.0,0.0,0.0,0.0,0.0,0.0,0.0,0.0,0.0,0.3333,0.0,0.3333,0.0,0
2.8,run,-10.88,1.3,-8.55,-1.14,13.6,0.0,0.05,0.0,0.617,-22.32,5.71,81.83,-17.75,1.05,111.01,34.72,-18.63,112.24,34.8,-48.69,85.52,-0.44,-44.03,117.51,-28.92,-39.99,111.97,-35.0,0.81,92.78,-29.0,-12.41,103.7,35.0,-9.6,100.55,35.0,-54.3,95.03,-16.5,-54.96,110.23,-24.5,-49.83,106.11,-1.0,-1.0,1.0,-1.0,-0.0382,-1.0,1.0,1.0,-1.0,1.0,-0.099,1.0,-1.0,-1.0,-1.0,1.0,-1.0,-1.0,0.006,0.091,0.065,0.039,0.084,0.006,0.0,0.013,0.045,0.006,0.058,0.013,0.0,0.227,0.006,0.019,0.006,0.013,-0.3927,-0.2132,0.0245,-0.2961,-0.2485,0.5983,0.6013,-0.6228,0.6243,0.6013,-1.1152,0.0905,-0.0077,-1.1045,0.701,-0.5123,-0.991,0.6243,0.1463,0.2169,0.1706,-0.2243,0.2015,-0.1524,0.1503,-0.0997,-0.2532,0.1179,-0.2329,0.2414,0.0955,0.151,-0.2047,0.1422,-0.2264,-0.0536,-1.3526,-0.2575,-0.1741,-0.1817,0.3351,-1.0,-1.0,1.0,-1.0,-0.4769,-1.0,1.0,1.0,-1.0,1.0,-0.1352,1.0,-1.0,-1.0,-1.0,1.0,-1.0,-1.0,0.0,0.0,0.0,0.0,0.0,0.0,0.0,0.0,0.0,0.3333,0.0,0.3333,0.0,0
2.84,run,-10.61,1.27,8.34,-2.84,2.45,0.0,0.05,0.0,0.617,-22.32,5.89,83.14,-19.25,1.32,109.69,34.72,-17.93,110.83,34.8,-50.01,86.92,-1.23,-43.86,116.63,-27.6,-41.48,110.74,-35.0,-0.69,94.28,-30.5,-13.89,102.2,35.0,-8.1,99.05,35.0,-52.8,96.53,-18.0,-56.46,108.73,-23.0,-51.33,104.61,-1.0,-0.8518,1.0,-1.0,0.2021,-1.0,1.0,1.0,-1.0,1.0,-0.284,1.0,-1.0,-1.0,-1.0,1.0,-1.0,-1.0,0.019,0.045,0.084,0.033,0.033,0.006,0.006,0.13,0.033,0.006,0.065,0.013,0.006,0.175,0.013,0.013,0.026,0.039,-0.3912,-0.2025,0.0445,-0.3206,-0.2362,0.5722,0.6029,-0.6213,0.5967,0.6013,-1.1382,0.115,-0.0077,-1.0922,0.6642,-0.4909,-1.0063,0.5998,0.1081,0.1921,0.1941,-0.249,0.187,-0.2044,0.1109,-0.0641,-0.2806,0.0825,-0.2492,0.2609,0.0669,0.1517,-0.2812,0.18,-0.216,-0.1294,-1.3797,-0.255,-0.1492,-0.0199,0.2373,-1.0,-1.0,1.0,-1.0,-0.0382,-1.0,1.0,1.0,-1.0,1.0,-0.099,1.0,-1.0,-1.0,-1.0,1.0,-1.0,-1.0,0.0,0.0,0.0,0.0,0.0,0.0,0.0,0.0,0.0,0.3333,0.0,0.3333,0.0,0
2.88,run,-11.06,1.34,-9.92,-0.55,-4.39,0.0,0.05,0.0,0.617,-22.94,5.89,84.46,-20.65,1.32,108.28,34.72,-16.96,109.34,34.8,-51.15,88.42,-2.02,-43.77,114.79,-26.1,-42.89,109.42,-35.0,-2.19,95.78,-32.0,-15.39,100.7,35.0,-6.6,97.55,35.0,-51.3,98.03,-19.5,-57.96,107.23,-21.5,-52.83,103.11,-1.0,-1.0,1.0,-1.0,-0.3411,-1.0,1.0,1.0,-1.0,1.0,-0.1514,1.0,-1.0,-1.0,-1.0,1.0,-1.0,-1.0,0.019,0.045,0.084,0.033,0.033,0.006,0.006,0.13,0.033,0.006,0.065,0.013,0.006,0.175,0.013,0.013,0.026,0.039,-0.3912,-0.1994,0.0675,-0.3467,-0.2316,0.5492,0.6029,-0.609,0.5722,0.6013,-1.1612,0.1396,-0.0215,-1.0891,0.6489,-0.4679,-1.0324,0.5783,0.0757,0.146,0.2221,-0.272,0.1482,-0.2293,0.0776,0.0012,-0.2885,0.0578,-0.2607,0.2747,-0.0049,0.1177,-0.2544,0.2123,-0.249,-0.1711,-1.3557,-0.2578,0.1456,-0.0496,0.0427,-1.0,-0.8518,1.0,-1.0,0.2021,-1.0,1.0,1.0,-1.0,1.0,-0.284,1.0,-1.0,-1.0,-1.0,1.0,-1.0,-1.0,0.0,0.0,0.0,0.0,0.0,0.0,0.0,0.0,0.0,0.3333,0.0,0.3333,0.0,0
2.92,run,-11.48,1.77,-8.74,10.79,-6.75,0.0,0.05,0.0,0.617,-23.82,5.8,85.78,-22.06,1.32,106.88,34.72,-15.56,108.02,34.8,-52.03,89.74,-3.08,-43.77,113.55,-24.79,-44.3,107.84,-35.0,-3.69,97.28,-33.5,-13.89,99.2,35.0,-5.1,96.05,35.0,-49.8,99.53,-21.0,-59.46,105.73,-20.0,-54.33,101.61,-1.0,-0.8444,1.0,-1.0,0.5021,-1.0,1.0,1.0,-1.0,1.0,-0.3828,1.0,-1.0,-1.0,-1.0,1.0,-0.7221,-1.0,0.019,0.045,0.084,0.033,0.033,0.006,0.006,0.13,0.033,0.006,0.065,0.013,0.006,0.175,0.013,0.013,0.026,0.039,-0.4019,-0.1994,0.0905,-0.3712,-0.2316,0.5246,0.6029,-0.5921,0.5461,0.6013,-1.1812,0.1657,-0.0353,-1.0876,0.6167,-0.4418,-1.0569,0.5553,0.0127,0.1022,0.2419,-0.2826,0.1037,-0.2527,0.0544,0.0642,-0.2998,0.0404,-0.2573,0.2902,-0.0553,0.0881,-0.299,0.2465,-0.2664,-0.2062,-1.3948,-0.2521,-0.1731,-0.0095,-0.0766,-1.0,-1.0,1.0,-1.0,-0.3411,-1.0,1.0,1.0,-1.0,1.0,-0.1514,1.0,-1.0,-1.0,-1.0,1.0,-1.0,-1.0,0.0,0.0,0.0,0.0,0.0,0.0,0.0,0.0,0.0,0.3333,0.0,0.3333,0.0,0
2.96,run,-11.71,2.36,-5.14,14.82,-5.86,0.0,0.05,0.0,0.617,-24.87,5.01,87.19,-23.55,0.79,105.64,34.72,-14.15,106.7,34.8,-52.65,91.23,-4.39,-44.65,111.97,-23.47,-45.7,106.35,-35.0,-5.19,98.78,-35.0,-12.39,97.7,35.0,-3.6,94.55,35.0,-51.3,101.03,-22.5,-60.96,104.23,-18.5,-52.83,100.11,-1.0,-0.0839,1.0,-1.0,0.9396,-1.0,1.0,1.0,-1.0,1.0,-0.7172,1.0,-1.0,-1.0,-1.0,1.0,-0.2058,-1.0,0.045,0.0,0.13,0.033,0.006,0.0,0.006,0.084,0.045,0.006,0.039,0.006,0.013,0.0,0.0,0.019,0.039,0.013,-0.4172,-0.201,0.1135,-0.3958,-0.2316,0.5001,0.6029,-0.5676,0.5231,0.6013,-1.1965,0.1887,-0.0537,-1.0876,0.5952,-0.4188,-1.0815,0.5277,-0.0482,0.0658,0.255,-0.2891,0.0726,-0.2682,0.038,0.1363,-0.2955,0.0283,-0.2372,0.2888,-0.1072,0.0617,-0.2892,0.2582,-0.2778,-0.2471,-1.4319,-0.2145,-0.1525,0.1883,-0.1177,-1.0,-0.8444,1.0,-1.0,0.5021,-1.0,1.0,1.0,-1.0,1.0,-0.3828,1.0,-1.0,-1.0,-1.0,1.0,-0.7221,-1.0,0.0,0.0,0.0,0.0,0.0,0.0,0.0,0.0,0.0,0.3333,0.0,0.3333,0.0,0
3.0,run,-11.86,3.04,-1.06,16.52,1.96,0.0,0.05,0.0,0.617,-26.1,3.96,88.59,-25.05,-0.18,104.15,34.72,-12.66,105.38,34.8,-53.0,92.55,-5.8,-45.79,110.57,-22.06,-47.02,105.03,-35.0,-3.69,100.28,-35.0,-10.89,96.2,35.0,-2.1,93.05,35.0,-52.8,102.53,-24.0,-62.46,102.73,-17.0,-51.33,98.61,-1.0,0.4178,1.0,-1.0,1.0,-1.0,1.0,1.0,-1.0,1.0,-0.587,1.0,-1.0,-1.0,-1.0,1.0,0.0076,-1.0,0.045,0.0,0.13,0.033,0.006,0.0,0.006,0.084,0.045,0.006,0.039,0.006,0.013,0.0,0.0,0.019,0.039,0.013,-0.4357,-0.2148,0.1381,-0.4218,-0.2408,0.4786,0.6029,-0.543,0.5001,0.6013,-1.2072,0.2148,-0.0767,-1.1029,0.5676,-0.3958,-1.106,0.5016,-0.103,-0.0059,0.2708,-0.3005,0.0162,-0.2685,0.0266,0.1877,-0.2934,0.0198,-0.2064,0.3002,-0.1616,-0.0145,-0.3063,0.2673,-0.2868,-0.271,-1.452,-0.1629,-0.0897,0.2587,-0.1023,-1.0,-0.0839,1.0,-1.0,0.9396,-1.0,1.0,1.0,-1.0,1.0,-0.7172,1.0,-1.0,-1.0,-1.0,1.0,-0.2058,-1.0,0.0,0.0,0.0,0.0,0.0,0.0,0.0,0.0,0.0,0.3333,0.0,0.3333,0.0,0
3.04,run,-11.33,3.33,14.48,4.47,2.54,0.0,0.05,0.0,0.617,-27.51,2.37,90.09,-26.63,-1.41,102.66,34.72,-11.16,103.62,34.8,-53.0,93.96,-7.21,-46.93,109.25,-20.74,-48.25,103.62,-35.0,-2.19,101.78,-35.0,-9.39,94.7,35.0,-0.6,91.55,35.0,-51.3,104.03,-25.5,-63.96,101.23,-15.5,-49.83,97.11,-1.0,0.8015,1.0,-1.0,1.0,-1.0,1.0,1.0,-1.0,1.0,-0.2225,1.0,-1.0,-1.0,-1.0,1.0,0.3389,-1.0,0.045,0.0,0.13,0.033,0.006,0.0,0.006,0.084,0.045,0.006,0.039,0.006,0.013,0.0,0.0,0.019,0.039,0.013,-0.4571,-0.2332,0.1626,-0.4479,-0.2577,0.4525,0.6029,-0.517,0.4771,0.6013,-1.2134,0.2378,-0.1012,-1.1229,0.543,-0.3712,-1.129,0.4786,-0.153,-0.0734,0.282,-0.3086,-0.0522,-0.2862,0.0186,0.2296,-0.2921,0.0139,-0.1676,0.2968,-0.2056,-0.0853,-0.3069,0.2795,-0.2874,-0.2764,-1.465,-0.1033,-0.0185,0.2884,0.0342,-1.0,0.4178,1.0,-1.0,1.0,-1.0,1.0,1.0,-1.0,1.0,-0.587,1.0,-1.0,-1.0,-1.0,1.0,0.0076,-1.0,0.0,0.0,0.0,0.0,0.0,0.0,0.0,0.0,0.0,0.3333,0.0,0.3333,0.0,0
3.08,run,-11.42,3.51,-4.92,6.08,-1.63,0.0,0.05,0.0,0.617,-28.92,0.88,91.49,-28.12,-2.2,101.34,34.72,-9.93,102.3,34.8,-53.0,95.45,-8.7,-48.16,107.93,-19.34,-49.57,102.22,-35.0,-3.69,103.28,-35.0,-7.89,93.2,35.0,0.9,90.05,35.0,-49.8,105.53,-27.0,-65.46,99.73,-14.0,-48.33,95.61,-1.0,0.0994,1.0,-1.0,1.0,-1.0,1.0,1.0,-1.0,1.0,1.0,1.0,-1.0,-1.0,-1.0,1.0,0.4017,-1.0,0.039,0.0,0.084,0.019,0.033,0.013,0.006,0.13,0.019,0.006,0.006,0.006,0.013,0.019,0.0,0.019,0.026,0.019,-0.4817,-0.2608,0.1887,-0.4755,-0.2792,0.4264,0.6029,-0.4909,0.4464,0.6013,-1.2134,0.2623,-0.1258,-1.1428,0.52,-0.3482,-1.1505,0.4541,-0.1989,-0.1547,0.2949,-0.3193,-0.1169,-0.2979,0.0131,0.2583,-0.3192,0.0097,-0.1173,0.2996,-0.2357,-0.1343,-0.3009,0.2817,-0.2815,-0.2853,-1.4186,-0.0785,0.2528,0.078,0.0443,-1.0,0.8015,1.0,-1.0,1.0,-1.0,1.0,1.0,-1.0,1.0,-0.2225,1.0,-1.0,-1.0,-1.0,1.0,0.3389,-1.0,0.0,0.0,0.0,0.0,0.0,0.0,0.0,0.0,0.0,0.3333,0.0,0.3333,0.0,0
3.12,run,-11.51,3.94,-1.01,10.52,5.27,0.0,0.05,0.0,0.617,-30.23,-0.62,92.9,-29.53,-3.78,99.84,34.72,-8.53,100.9,34.8,-52.47,96.86,-10.11,-49.31,106.52,-17.93,-50.36,100.81,-35.0,-5.19,104.78,-35.0,-6.39,91.7,35.0,2.4,88.55,35.0,-48.3,107.03,-28.5,-66.96,98.23,-12.5,-46.83,94.11,-1.0,0.3489,1.0,-1.0,1.0,-1.0,1.0,1.0,-1.0,1.0,1.0,1.0,-1.0,-1.0,-1.0,1.0,1.0,-1.0,0.039,0.0,0.084,0.019,0.033,0.013,0.006,0.13,0.019,0.006,0.006,0.006,0.013,0.019,0.0,0.019,0.026,0.019,-0.5062,-0.2869,0.2132,-0.5016,-0.293,0.4034,0.6029,-0.4694,0.4234,0.6013,-1.2134,0.2884,-0.1519,-1.1643,0.497,-0.3237,-1.1735,0.4295,-0.2315,-0.2063,0.2987,-0.3215,-0.1337,-0.295,0.0091,0.2615,-0.3099,0.0068,-0.0821,0.3077,-0.263,-0.1747,-0.2971,0.2895,-0.2836,-0.292,-1.4264,-0.0627,-0.0858,0.1061,-0.0285,-1.0,0.0994,1.0,-1.0,1.0,-1.0,1.0,1.0,-1.0,1.0,1.0,1.0,-1.0,-1.0,-1.0,1.0,0.4017,-1.0,0.0,0.0,0.0,0.0,0.0,0.0,0.0,0.0,0.0,0.3333,0.0,0.3333,0.0,0
3.16,run,-11.96,4.25,-12.54,6.89,5.37,0.0,0.05,0.0,0.617,-31.46,-1.85,94.31,-31.11,-5.01,98.44,34.72,-7.21,99.4,34.8,-52.12,98.26,-11.6,-50.62,105.03,-16.52,-50.98,99.4,-35.0,-3.69,106.28,-35.0,-4.89,90.2,35.0,0.9,87.05,35.0,-46.8,108.53,-30.0,-68.46,96.73,-11.0,-45.33,92.61,-1.0,0.8893,1.0,-1.0,1.0,-1.0,1.0,-0.8937,-0.6447,1.0,1.0,1.0,-1.0,-1.0,-1.0,1.0,1.0,-1.0,0.039,0.0,0.084,0.019,0.033,0.013,0.006,0.13,0.019,0.006,0.006,0.006,0.013,0.019,0.0,0.019,0.026,0.019,-0.5292,-0.3129,0.2378,-0.5262,-0.3206,0.3774,0.6029,-0.4449,0.3988,0.6013,-1.2042,0.3129,-0.1764,-1.1842,0.4725,-0.2991,-1.1873,0.405,-0.2484,-0.2423,0.3012,-0.3172,-0.1972,-0.3044,0.0064,0.2752,-0.3091,0.0048,-0.023,0.3075,-0.2762,-0.1972,-0.3001,0.2948,-0.2503,-0.2965,-1.4345,-0.0253,-0.0176,0.1835,0.092,-1.0,0.3489,1.0,-1.0,1.0,-1.0,1.0,1.0,-1.0,1.0,1.0,1.0,-1.0,-1.0,-1.0,1.0,1.0,-1.0,0.0,0.0,0.0,0.0,0.0,0.0,0.0,0.0,0.0,0.3333,0.0,0.3333,0.0,0
3.2,run,-12.79,4.72,-20.4,11.6,0.54,0.0,0.05,0.0,0.617,-32.34,-3.16,95.71,-32.34,-6.15,97.03,34.72,-5.71,97.91,34.8,-50.45,99.67,-13.01,-51.94,103.62,-15.12,-51.24,98.09,-35.0,-2.19,107.78,-35.0,-3.39,88.7,35.0,2.4,85.55,35.0,-45.3,110.03,-31.5,-69.96,95.23,-9.5,-43.83,91.11,-1.0,1.0,1.0,-1.0,1.0,-1.0,1.0,0.5493,-0.0394,1.0,1.0,1.0,-1.0,-1.0,-1.0,1.0,1.0,-1.0,0.078,0.0,0.104,0.006,0.013,0.006,0.0,0.071,0.019,0.006,0.013,0.013,0.013,0.033,0.006,0.033,0.0,0.019,-0.5507,-0.3344,0.2623,-0.5538,-0.3421,0.3528,0.6029,-0.4218,0.3728,0.6013,-1.198,0.3375,-0.2025,-1.2072,0.4464,-0.2746,-1.198,0.3804,-0.2544,-0.2501,0.3028,-0.3255,-0.2186,-0.3051,0.0045,0.2789,-0.3141,0.0033,0.0069,0.3073,-0.2911,-0.2243,-0.3078,0.2983,-0.2155,-0.2995,-1.4737,0.0023,-0.2189,0.1202,0.0937,-1.0,0.8893,1.0,-1.0,1.0,-1.0,1.0,-0.8937,-0.6447,1.0,1.0,1.0,-1.0,-1.0,-1.0,1.0,1.0,-1.0,0.0,0.0,0.0,0.0,0.0,0.0,0.0,0.0,0.0,0.3333,0.0,0.3333,0.0,0
3.24,run,-13.99,5.48,-16.19,9.94,5.03,0.0,0.05,0.0,0.617,-33.4,-4.83,98.35,-34.01,-7.29,94.39,34.72,-2.72,95.19,34.8,-48.16,102.3,-15.64,-54.32,100.99,-12.66,-51.06,95.45,-35.0,-0.69,109.28,-35.0,-1.89,87.2,35.0,0.9,87.05,35.0,-43.8,111.53,-33.0,-71.46,93.73,-8.0,-42.33,89.61,-1.0,1.0,1.0,-1.0,1.0,-0.1685,1.0,-1.0,1.0,1.0,0.6664,1.0,-1.0,-1.0,-1.0,1.0,1.0,-1.0,0.078,0.0,0.104,0.006,0.013,0.006,0.0,0.071,0.019,0.006,0.013,0.013,0.013,0.033,0.006,0.033,0.0,0.019,-0.566,-0.3574,0.2869,-0.5752,-0.362,0.3283,0.6029,-0.3958,0.3467,0.6013,-1.1689,0.362,-0.227,-1.2303,0.4218,-0.25,-1.2026,0.3574,-0.2355,-0.2612,0.3038,-0.3082,-0.2276,-0.3054,0.0031,0.2928,-0.3174,0.0023,0.1139,0.3069,-0.2956,-0.2431,-0.3073,0.3006,-0.168,-0.2958,-1.5457,0.0434,-0.3561,0.2025,0.0095,-1.0,1.0,1.0,-1.0,1.0,-1.0,1.0,0.5493,-0.0394,1.0,1.0,1.0,-1.0,-1.0,-1.0,1.0,1.0,-1.0,0.0,0.0,0.0,0.0,0.0,0.0,0.0,0.0,0.0,0.3333,0.0,0.3333,0.0,0
3.28,run,-14.58,5.68,-13.87,4.58,5.82,0.0,0.05,0.0,0.617,-33.57,-5.27,99.67,-34.63,-7.38,92.9,34.72,-1.32,93.78,34.8,-47.11,103.62,-17.14,-55.63,99.58,-11.43,-50.45,93.96,-35.0,0.81,110.78,-35.0,-0.39,88.7,35.0,-0.6,88.55,35.0,-42.3,113.03,-34.5,-72.96,92.23,-6.5,-40.83,88.11,-1.0,1.0,1.0,-1.0,1.0,1.0,1.0,-1.0,1.0,1.0,-0.1608,1.0,-1.0,-1.0,0.1566,1.0,1.0,-1.0,0.117,0.006,0.149,0.0,0.006,0.019,0.006,0.058,0.013,0.006,0.033,0.026,0.013,0.052,0.013,0.026,0.019,0.019,-0.5844,-0.3866,0.3329,-0.6044,-0.382,0.2823,0.6029,-0.3436,0.2991,0.6013,-1.129,0.408,-0.273,-1.2717,0.3758,-0.2071,-1.1996,0.3114,-0.202,-0.2417,0.3057,-0.2747,-0.1996,-0.3068,0.0022,0.3103,-0.3183,0.0016,0.1603,0.3078,-0.2999,-0.2538,-0.3081,0.2973,-0.1114,-0.3,-1.6509,0.1098,-0.2826,0.1734,0.0877,-1.0,1.0,1.0,-1.0,1.0,-0.1685,1.0,-1.0,1.0,1.0,0.6664,1.0,-1.0,-1.0,-1.0,1.0,1.0,-1.0,0.0,0.0,0.0,0.0,0.0,0.0,0.0,0.0,0.0,0.3333,0.0,0.3333,0.0,0
3.32,run,-14.9,5.92,-7.64,5.53,2.06,0.0,0.05,0.0,0.617,-33.57,-5.45,100.99,-35.07,-7.38,91.58,34.72,-0.18,92.37,34.8,-46.14,104.94,-18.46,-57.04,98.17,-10.02,-49.48,92.64,-35.0,2.31,112.28,-35.0,1.11,90.2,35.0,-2.1,90.05,35.0,-43.8,114.53,-35.0,-74.46,90.73,-5.0,-39.33,86.61,-1.0,0.7529,1.0,-1.0,1.0,1.0,1.0,-1.0,1.0,1.0,-0.4221,0.9019,-1.0,-1.0,0.2153,1.0,0.43,-1.0,0.117,0.006,0.149,0.0,0.006,0.019,0.006,0.058,0.013,0.006,0.033,0.026,0.013,0.052,0.013,0.026,0.019,0.019,-0.5875,-0.3942,0.3559,-0.6151,-0.3835,0.2562,0.6029,-0.3191,0.2746,0.6013,-1.1106,0.431,-0.2991,-1.2947,0.3513,-0.1856,-1.1888,0.2853,-0.1527,-0.1975,0.2988,-0.2319,-0.1454,-0.3109,0.0015,0.3078,-0.3133,0.0011,0.1801,0.3004,-0.3061,-0.2626,-0.3062,0.2873,-0.0384,-0.3062,-1.7021,0.1267,-0.2421,0.08,0.1016,-1.0,1.0,1.0,-1.0,1.0,1.0,1.0,-1.0,1.0,1.0,-0.1608,1.0,-1.0,-1.0,0.1566,1.0,1.0,-1.0,0.0,0.0,0.0,0.0,0.0,0.0,0.0,0.0,0.0,0.3333,0.0,0.3333,0.0,0
3.36,run,-15.19,5.99,-6.21,0.29,6.12,0.0,0.05,0.0,0.617,-33.57,-5.45,102.3,-35.16,-6.77,90.35,34.72,0.62,91.05,34.89,-45.18,106.26,-19.86,-58.71,96.77,-8.79,-48.6,91.23,-35.0,2.76,113.78,-35.0,2.61,91.7,35.0,-3.6,91.55,35.0,-45.3,113.03,-35.0,-75.96,92.23,-3.5,-37.83,85.11,-1.0,0.5047,1.0,-1.0,1.0,1.0,1.0,-1.0,1.0,1.0,-0.443,0.5524,-1.0,-1.0,1.0,1.0,0.5248,-1.0,0.117,0.006,0.149,0.0,0.006,0.019,0.006,0.058,0.013,0.006,0.033,0.026,0.013,0.052,0.013,0.026,0.019,0.019,-0.5875,-0.3973,0.3789,-0.6228,-0.3835,0.2332,0.6029,-0.2991,0.25,0.6013,-1.0937,0.4541,-0.3221,-1.3192,0.3267,-0.1611,-1.172,0.2623,-0.1069,-0.1498,0.2962,-0.1913,-0.1018,-0.3047,0.0011,0.2909,-0.3122,0.0008,0.1899,0.2973,-0.3013,-0.2766,-0.3072,0.2939,0.0369,-0.3014,-1.7306,0.148,-0.1334,0.0965,0.0359,-1.0,0.7529,1.0,-1.0,1.0,1.0,1.0,-1.0,1.0,1.0,-0.4221,0.9019,-1.0,-1.0,0.2153,1.0,0.43,-1.0,0.0,0.0,0.0,0.0,0.0,0.0,0.0,0.0,0.0,0.3333,0.0,0.3333,0.0,0
3.4,run,-15.26,6.0,-0.56,-0.23,5.9,0.0,0.05,0.0,0.617,-33.57,-5.54,103.62,-35.16,-5.71,89.47,34.72,1.14,90.09,34.89,-44.56,107.49,-21.27,-60.21,95.27,-7.29,-46.76,89.74,-35.0,1.26,115.28,-35.0,4.11,93.2,35.0,-5.1,93.05,35.0,-43.8,111.53,-35.0,-77.46,93.73,-2.0,-36.33,83.61,-1.0,-0.5275,0.9354,-1.0,1.0,1.0,1.0,-1.0,1.0,1.0,0.2281,-0.1742,-1.0,-1.0,1.0,1.0,0.3402,-0.6535,0.143,0.227,0.136,0.006,0.013,0.0,0.0,0.045,0.013,0.0,0.058,0.045,0.019,0.019,0.006,0.045,0.006,0.013,-0.5875,-0.3973,0.4019,-0.6243,-0.3728,0.2117,0.6029,-0.2853,0.227,0.6029,-1.0769,0.4771,-0.3467,-1.3484,0.3022,-0.1396,-1.1566,0.2378,-0.0748,-0.1049,0.2933,-0.1397,-0.0311,-0.2935,0.0008,0.2552,-0.3045,0.0063,0.196,0.2941,-0.3027,-0.3026,-0.3067,0.286,0.0832,-0.3027,-1.7552,0.1537,-0.1084,0.005,0.1068,-1.0,0.5047,1.0,-1.0,1.0,1.0,1.0,-1.0,1.0,1.0,-0.443,0.5524,-1.0,-1.0,1.0,1.0,0.5248,-1.0,0.0,0.0,0.0,0.0,0.0,0.0,0.0,0.0,0.0,0.3333,0.0,0.3333,0.0,0
3.44,run,-15.02,5.84,6.3,-5.35,5.7,0.0,0.05,0.0,0.617,-33.57,-5.36,105.03,-35.16,-4.39,88.95,34.72,1.41,89.38,34.89,-44.03,108.72,-22.76,-61.88,94.04,-5.89,-45.09,88.33,-35.0,-0.24,113.78,-35.0,5.61,94.7,35.0,-6.6,94.55,35.0,-42.3,110.03,-35.0,-78.96,95.23,-0.5,-34.83,85.11,-1.0,-0.8656,-0.5752,-1.0,1.0,1.0,1.0,-1.0,1.0,1.0,0.5369,-1.0,-1.0,-1.0,1.0,0.9595,0.7911,0.4776,0.143,0.227,0.136,0.006,0.013,0.0,0.0,0.045,0.013,0.0,0.058,0.045,0.019,0.019,0.006,0.045,0.006,0.013,-0.5875,-0.3988,0.4249,-0.6243,-0.3543,0.1963,0.6029,-0.2761,0.2102,0.6029,-1.0661,0.4985,-0.3712,-1.3744,0.2761,-0.1135,-1.1244,0.2117,-0.0524,-0.0792,0.2916,-0.0978,0.0472,-0.263,0.0005,0.2131,-0.2764,0.0044,0.1774,0.2864,-0.3038,-0.3095,-0.3125,0.298,0.179,-0.3096,-1.7616,0.1544,-0.0097,-0.0041,0.1029,-1.0,-0.5275,0.9354,-1.0,1.0,1.0,1.0,-1.0,1.0,1.0,0.2281,-0.1742,-1.0,-1.0,1.0,1.0,0.3402,-0.6535,0.0,0.0,0.0,0.0,0.0,0.0,0.0,0.0,0.0,0.3333,0.0,0.3333,0.0,0
3.48,run,-14.79,5.42,6.76,-12.77,6.52,0.0,0.05,0.0,0.617,-33.57,-4.66,106.44,-35.16,-2.99,88.77,34.72,1.41,88.95,34.89,-43.86,109.78,-24.26,-63.28,93.08,-4.57,-43.86,86.84,-35.0,-1.74,112.28,-35.0,7.11,96.2,35.0,-8.1,96.05,35.0,-40.8,108.53,-35.0,-80.0,96.73,-2.0,-33.33,86.61,-1.0,-1.0,-1.0,-1.0,1.0,1.0,1.0,-1.0,1.0,1.0,0.1578,-1.0,-1.0,-1.0,1.0,-1.0,0.7641,1.0,0.143,0.227,0.136,0.006,0.013,0.0,0.0,0.045,0.013,0.0,0.058,0.045,0.019,0.019,0.006,0.045,0.006,0.013,-0.5875,-0.3958,0.4495,-0.6243,-0.3313,0.1871,0.6029,-0.2715,0.1979,0.6029,-1.0569,0.52,-0.3973,-1.4036,0.2546,-0.089,-1.0953,0.1871,-0.0367,-0.0445,0.2915,-0.0684,0.115,-0.2169,0.0004,0.1656,-0.2372,0.0031,0.157,0.2769,-0.3056,-0.3205,-0.2952,0.296,0.2291,-0.3041,-1.7405,0.1406,0.1099,-0.0933,0.0996,-1.0,-0.8656,-0.5752,-1.0,1.0,1.0,1.0,-1.0,1.0,1.0,0.5369,-1.0,-1.0,-1.0,1.0,0.9595,0.7911,0.4776,0.0,0.0,0.0,0.0,0.0,0.0,0.0,0.0,0.0,0.3333,0.0,0.3333,0.0,0
3.52,run,-14.51,4.97,5.75,-10.99,11.63,0.0,0.05,0.0,0.617,-33.57,-3.78,107.67,-34.98,-1.58,89.12,34.72,0.7,88.95,34.89,-43.68,110.3,-25.58,-64.78,92.55,-3.34,-42.36,85.69,-35.0,-3.24,110.78,-33.5,8.61,97.7,35.0,-9.6,97.55,35.0,-39.3,107.03,-35.0,-80.0,98.23,-3.5,-34.83,88.11,-1.0,-1.0,-1.0,-0.5703,1.0,1.0,1.0,-1.0,1.0,1.0,0.5177,-1.0,-1.0,-1.0,1.0,-1.0,-0.5516,1.0,0.149,0.351,0.149,0.0,0.006,0.019,0.006,0.0,0.006,0.0,0.091,0.039,0.013,0.019,0.0,0.039,0.019,0.013,-0.5875,-0.3835,0.474,-0.6243,-0.3068,0.1841,0.6029,-0.2715,0.1902,0.6029,-1.0538,0.5384,-0.4234,-1.4281,0.2378,-0.066,-1.0738,0.1611,-0.0257,0.0145,0.2954,-0.0479,0.1719,-0.1632,0.0003,0.1159,-0.1946,0.0022,0.1213,0.2624,-0.311,-0.3157,-0.2695,0.2928,0.2403,-0.31,-1.721,0.1045,0.1179,-0.2228,0.1138,-1.0,-1.0,-1.0,-1.0,1.0,1.0,1.0,-1.0,1.0,1.0,0.1578,-1.0,-1.0,-1.0,1.0,-1.0,0.7641,1.0,0.0,0.0,0.0,0.0,0.0,0.0,0.0,0.0,0.0,0.3333,0.0,0.3333,0.0,0
3.56,run,-14.29,4.41,6.05,-15.16,11.35,0.0,0.05,0.0,0.617,-33.57,-3.08,108.72,-34.8,-0.18,89.65,34.72,-0.26,88.86,34.98,-43.24,110.74,-26.98,-66.18,92.2,-2.37,-40.87,84.81,-35.0,-4.74,109.28,-32.0,10.11,99.2,35.0,-11.1,99.05,35.0,-37.8,105.53,-35.0,-80.0,99.73,-5.0,-33.33,89.61,-1.0,-1.0,-1.0,0.3134,1.0,1.0,1.0,-1.0,1.0,1.0,0.7355,-1.0,-1.0,-1.0,1.0,-1.0,-0.0793,1.0,0.149,0.351,0.149,0.0,0.006,0.019,0.006,0.0,0.006,0.0,0.091,0.039,0.013,0.019,0.0,0.039,0.019,0.013,-0.5875,-0.3682,0.4955,-0.6213,-0.2823,0.1902,0.6029,-0.2838,0.1902,0.6029,-1.0508,0.5476,-0.4464,-1.4542,0.2286,-0.0445,-1.0477,0.1411,-0.018,0.0677,0.2873,-0.022,0.2123,-0.0913,0.0002,0.0351,-0.1362,0.0015,0.0964,0.2182,-0.3039,-0.3187,-0.2231,0.2855,0.266,-0.2917,-1.6966,0.0652,0.1003,-0.1918,0.203,-1.0,-1.0,-1.0,-0.5703,1.0,1.0,1.0,-1.0,1.0,1.0,0.5177,-1.0,-1.0,-1.0,1.0,-1.0,-0.5516,1.0,0.0,0.0,0.0,0.0,0.0,0.0,0.0,0.0,0.0,0.3333,0.0,0.3333,0.0,0
3.6,run,-13.79,3.83,12.53,-14.37,7.87,0.0,0.05,0.0,0.617,-33.57,-2.37,109.42,-34.8,1.32,90.79,34.72,-1.58,89.47,35.07,-42.54,110.83,-28.48,-67.5,92.46,-1.67,-39.55,84.2,-35.0,-6.24,107.78,-30.5,11.61,100.7,35.0,-12.6,100.55,35.0,-36.3,104.03,-35.0,-80.0,101.23,-6.5,-34.83,91.11,-1.0,-1.0,-1.0,1.0,1.0,1.0,1.0,-1.0,1.0,1.0,1.0,-1.0,-1.0,-1.0,1.0,-1.0,-0.893,1.0,0.149,0.351,0.149,0.0,0.006,0.019,0.006,0.0,0.006,0.0,0.091,0.039,0.013,0.019,0.0,0.039,0.019,0.013,-0.5875,-0.3559,0.5139,-0.6182,-0.2577,0.1994,0.6029,-0.3007,0.1887,0.6044,-1.0431,0.5553,-0.4709,-1.4788,0.2224,-0.0276,-1.0216,0.1258,-0.0126,0.0932,0.2699,-0.004,0.2403,-0.0295,0.0001,-0.0384,-0.1011,0.0068,0.0961,0.1814,-0.3044,-0.3148,-0.1791,0.2629,0.2836,-0.2615,-1.6769,0.0158,0.1055,-0.2647,0.1982,-1.0,-1.0,-1.0,0.3134,1.0,1.0,1.0,-1.0,1.0,1.0,0.7355,-1.0,-1.0,-1.0,1.0,-1.0,-0.0793,1.0,0.0,0.0,0.0,0.0,0.0,0.0,0.0,0.0,0.0,0.3333,0.0,0.3333,0.0,0
3.64,run,-13.23,3.28,14.53,-15.06,5.88,0.0,0.05,0.0,0.617,-33.57,-2.29,109.95,-33.66,2.2,91.85,34.72,-2.99,90.53,35.07,-41.66,110.39,-29.88,-68.99,93.16,-1.32,-38.14,83.94,-35.0,-7.74,106.28,-29.0,13.11,102.2,35.0,-14.1,102.05,35.0,-34.8,102.53,-35.0,-80.0,102.73,-8.0,-36.33,92.61,-1.0,-1.0,-1.0,1.0,1.0,1.0,1.0,-1.0,1.0,1.0,1.0,-1.0,-1.0,-1.0,1.0,-1.0,-0.9592,1.0,0.156,0.221,0.111,0.0,0.039,0.013,0.006,0.0,0.033,0.0,0.169,0.0,0.006,0.019,0.006,0.019,0.006,0.0,-0.5875,-0.3436,0.5262,-0.6182,-0.2316,0.2194,0.6029,-0.3237,0.1994,0.6059,-1.0308,0.5568,-0.497,-1.5018,0.227,-0.0153,-0.9986,0.115,-0.0088,0.1112,0.2349,-0.0028,0.2659,0.0541,0.0001,-0.1131,-0.0305,0.0105,0.1133,0.1327,-0.3108,-0.3066,-0.1081,0.23,0.2847,-0.2233,-1.6338,-0.0343,0.2186,-0.2508,0.1373,-1.0,-1.0,-1.0,1.0,1.0,1.0,1.0,-1.0,1.0,1.0,1.0,-1.0,-1.0,-1.0,1.0,-1.0,-0.893,1.0,0.0,0.0,0.0,0.0,0.0,0.0,0.0,0.0,0.0,0.3333,0.0,0.3333,0.0,0
3.68,run,-13.2,2.79,-0.14,-13.55,-5.09,0.0,0.05,0.0,0.617,-33.57,-2.2,110.13,-32.34,3.52,93.34,34.72,-4.39,91.67,35.07,-40.43,109.78,-31.29,-70.4,94.04,-1.32,-37.09,83.94,-35.0,-9.24,104.78,-27.5,14.61,103.7,35.0,-15.6,103.55,35.0,-33.3,101.03,-35.0,-80.0,104.23,-9.5,-37.83,94.11,-1.0,-1.0,-1.0,1.0,1.0,1.0,1.0,-1.0,1.0,1.0,1.0,-1.0,-1.0,-1.0,1.0,-1.0,-1.0,1.0,0.156,0.221,0.111,0.0,0.039,0.013,0.006,0.0,0.033,0.0,0.169,0.0,0.006,0.019,0.006,0.019,0.006,0.0,-0.5875,-0.3421,0.5354,-0.5983,-0.2163,0.2378,0.6029,-0.3482,0.2178,0.6059,-1.0155,0.5492,-0.5216,-1.5278,0.2393,-0.0092,-0.9741,0.1104,-0.0062,0.0836,0.199,0.073,0.2438,0.1071,0.0001,-0.1715,0.0478,0.0074,0.137,0.0641,-0.3099,-0.3127,-0.0296,0.1841,0.2916,-0.1736,-1.5843,-0.0828,0.2537,-0.2628,0.1026,-1.0,-1.0,-1.0,1.0,1.0,1.0,1.0,-1.0,1.0,1.0,1.0,-1.0,-1.0,-1.0,1.0,-1.0,-0.9592,1.0,0.0,0.0,0.0,0.0,0.0,0.0,0.0,0.0,0.0,0.3333,0.0,0.3333,0.0,0
3.72,run,-12.84,2.23,10.26,-14.44,1.83,0.0,0.05,0.0,0.617,-33.57,-2.2,110.13,-31.11,5.1,94.75,34.72,-5.98,92.99,35.07,-39.11,108.63,-32.7,-71.89,95.45,-1.85,-36.12,84.11,-35.0,-10.74,103.28,-26.0,16.11,105.2,35.0,-17.1,105.05,35.0,-31.8,99.53,-35.0,-80.0,105.73,-11.0,-39.33,95.61,-1.0,-1.0,-1.0,1.0,1.0,1.0,1.0,-1.0,1.0,1.0,0.3717,-1.0,-1.0,-1.0,1.0,-1.0,-1.0,1.0,0.156,0.221,0.111,0.0,0.039,0.013,0.006,0.0,0.033,0.0,0.169,0.0,0.006,0.019,0.006,0.019,0.006,0.0,-0.5875,-0.3405,0.5384,-0.5752,-0.1933,0.2638,0.6029,-0.3728,0.2378,0.6059,-0.994,0.5384,-0.5461,-1.5524,0.2546,-0.0092,-0.9557,0.1104,-0.0043,0.0642,0.1507,0.1366,0.2562,0.1719,0.0,-0.2113,0.1076,0.0051,0.1757,0.0049,-0.3081,-0.3101,0.0363,0.1288,0.2725,-0.1215,-1.5822,-0.1255,-0.0024,-0.2364,-0.0888,-1.0,-1.0,-1.0,1.0,1.0,1.0,1.0,-1.0,1.0,1.0,1.0,-1.0,-1.0,-1.0,1.0,-1.0,-1.0,1.0,0.0,0.0,0.0,0.0,0.0,0.0,0.0,0.0,0.0,0.3333,0.0,0.3333,0.0,0
3.76,run,-12.79,2.05,1.57,-5.68,0.31,0.0,0.05,0.0,0.617,-33.57,-2.2,110.13,-29.88,6.15,96.15,34.72,-7.38,94.31,35.16,-38.06,107.23,-33.75,-73.48,96.86,-2.55,-35.51,85.25,-35.0,-12.24,101.78,-24.5,17.61,106.7,35.0,-18.6,106.55,35.0,-30.3,98.03,-35.0,-80.0,107.23,-12.5,-40.83,97.11,-1.0,-1.0,-1.0,1.0,1.0,0.7926,1.0,-1.0,1.0,1.0,0.6491,-1.0,-1.0,-1.0,1.0,-1.0,-1.0,1.0,0.149,0.0,0.0,0.019,0.078,0.039,0.006,0.0,0.091,0.006,0.234,0.0,0.006,0.019,0.006,0.006,0.0,0.013,-0.5875,-0.3405,0.5384,-0.5538,-0.1657,0.2884,0.6029,-0.4004,0.2608,0.6059,-0.971,0.5185,-0.5706,-1.5785,0.2792,-0.0184,-0.9388,0.1135,-0.003,0.045,0.1055,0.1697,0.2746,0.205,0.0,-0.2431,0.1547,0.0036,0.2024,-0.0653,-0.3003,-0.307,0.1101,0.0584,0.249,-0.0745,-1.5502,-0.1741,0.1791,-0.252,0.032,-1.0,-1.0,-1.0,1.0,1.0,1.0,1.0,-1.0,1.0,1.0,0.3717,-1.0,-1.0,-1.0,1.0,-1.0,-1.0,1.0,0.0,0.0,0.0,0.0,0.0,0.0,0.0,0.0,0.0,0.3333,0.0,0.3333,0.0,0
3.8,run,-12.67,1.88,3.28,-5.04,-1.02,0.0,0.05,0.0,0.617,-33.57,-3.16,109.42,-28.56,7.29,97.47,34.72,-8.79,95.62,35.16,-36.74,105.82,-34.45,-74.79,98.26,-3.69,-35.24,86.57,-35.0,-13.74,100.28,-23.0,19.11,108.2,35.0,-20.1,108.05,35.0,-31.8,96.53,-34.67,-80.0,108.73,-14.0,-42.33,98.61,-1.0,-1.0,-1.0,1.0,1.0,0.8598,1.0,-1.0,1.0,1.0,-0.4894,-1.0,-0.9905,-1.0,1.0,-1.0,-1.0,1.0,0.149,0.0,0.0,0.019,0.078,0.039,0.006,0.0,0.091,0.006,0.234,0.0,0.006,0.019,0.006,0.006,0.0,0.013,-0.5875,-0.3405,0.5384,-0.5323,-0.1473,0.3129,0.6029,-0.4249,0.2838,0.6075,-0.9526,0.4939,-0.589,-1.6061,0.3037,-0.0307,-0.9281,0.1335,-0.0021,0.0315,0.0739,0.1983,0.2603,0.2343,0.0,-0.261,0.1935,0.0082,0.2098,-0.1366,-0.2784,-0.3171,0.1679,-0.0045,0.214,0.0217,-1.5457,-0.1895,0.0275,-0.0991,0.0054,-1.0,-1.0,-1.0,1.0,1.0,0.7926,1.0,-1.0,1.0,1.0,0.6491,-1.0,-1.0,-1.0,1.0,-1.0,-1.0,1.0,0.0,0.0,0.0,0.0,0.0,0.0,0.0,0.0,0.0,0.3333,0.0,0.3333,0.0,0
3.84,run,-12.75,1.75,-1.74,-2.1,2.26,0.0,0.05,0.0,0.617,-33.66,-4.39,108.37,-27.51,8.44,98.88,34.72,-10.2,97.03,35.07,-35.51,104.41,-34.8,-76.2,99.67,-5.1,-35.33,87.89,-35.0,-15.24,98.78,-21.5,20.61,106.7,35.0,-21.6,109.55,35.0,-33.3,95.03,-33.17,-80.0,110.23,-15.5,-43.83,100.11,-1.0,-1.0,-1.0,1.0,1.0,0.3458,1.0,-1.0,1.0,1.0,-0.5983,-1.0,1.0,-1.0,1.0,-1.0,-1.0,1.0,0.149,0.0,0.0,0.019,0.078,0.039,0.006,0.0,0.091,0.006,0.234,0.0,0.006,0.019,0.006,0.006,0.0,0.013,-0.5875,-0.3574,0.5262,-0.5093,-0.1273,0.3359,0.6029,-0.4495,0.3068,0.6075,-0.9296,0.4694,-0.6013,-1.6291,0.3283,-0.0506,-0.9235,0.1565,-0.0015,-0.041,0.0059,0.2248,0.2567,0.25,0.0,-0.2744,0.2214,0.0057,0.2328,-0.1873,-0.2407,-0.3079,0.2092,-0.0776,0.167,0.1011,-1.5354,-0.2051,0.0572,-0.088,-0.0178,-1.0,-1.0,-1.0,1.0,1.0,0.8598,1.0,-1.0,1.0,1.0,-0.4894,-1.0,-0.9905,-1.0,1.0,-1.0,-1.0,1.0,0.0,0.0,0.0,0.0,0.0,0.0,0.0,0.0,0.0,0.3333,0.0,0.3333,0.0,0
3.88,run,-13.11,1.76,-8.55,1.68,5.88,0.0,0.05,0.0,0.617,-33.66,-5.62,107.05,-26.19,9.58,100.11,34.72,-11.51,98.61,35.16,-34.37,103.01,-34.89,-77.52,101.16,-6.5,-35.6,89.38,-35.0,-16.74,97.28,-20.0,22.11,108.2,35.0,-23.1,111.05,35.0,-34.8,93.53,-31.67,-80.0,111.73,-17.0,-45.33,101.61,-1.0,-1.0,-1.0,1.0,1.0,0.8119,1.0,-1.0,1.0,1.0,-1.0,-1.0,1.0,-1.0,1.0,-1.0,-1.0,1.0,0.143,0.0,0.0,0.019,0.169,0.052,0.006,0.006,0.045,0.006,0.273,0.006,0.019,0.013,0.013,0.0,0.026,0.013,-0.589,-0.3789,0.5077,-0.4909,-0.1074,0.3605,0.6029,-0.474,0.3313,0.6059,-0.9081,0.4449,-0.6075,-1.6536,0.3528,-0.0752,-0.925,0.1795,-0.0068,-0.1094,-0.0651,0.2265,0.2547,0.2672,0.0,-0.2843,0.2472,-0.0017,0.2437,-0.2233,-0.1916,-0.3078,0.2387,-0.1466,0.1111,0.1573,-1.5426,-0.216,-0.0304,-0.0366,0.0395,-1.0,-1.0,-1.0,1.0,1.0,0.3458,1.0,-1.0,1.0,1.0,-0.5983,-1.0,1.0,-1.0,1.0,-1.0,-1.0,1.0,0.0,0.0,0.0,0.0,0.0,0.0,0.0,0.0,0.0,0.3333,0.0,0.3333,0.0,0
3.92,run,-13.46,1.76,-8.95,-0.31,10.38,0.0,0.05,0.0,0.617,-33.75,-6.94,105.91,-24.61,10.72,101.43,34.72,-12.83,100.11,35.16,-33.66,101.51,-34.45,-78.57,102.48,-7.91,-36.21,90.7,-35.0,-18.24,95.78,-18.5,23.61,109.7,35.0,-24.6,112.55,35.0,-36.3,92.03,-30.17,-80.0,113.23,-18.5,-46.83,103.11,-1.0,-1.0,-1.0,1.0,1.0,1.0,1.0,-1.0,1.0,1.0,-1.0,-1.0,1.0,-1.0,1.0,-1.0,-1.0,1.0,0.143,0.0,0.0,0.019,0.169,0.052,0.006,0.006,0.045,0.006,0.273,0.006,0.019,0.013,0.013,0.0,0.026,0.013,-0.589,-0.4004,0.4847,-0.4679,-0.0874,0.382,0.6029,-0.497,0.359,0.6075,-0.8882,0.4203,-0.609,-1.6766,0.3789,-0.0997,-0.9296,0.2056,-0.0048,-0.157,-0.1318,0.2448,0.253,0.2675,0.0,-0.2852,0.2765,0.0045,0.2453,-0.2483,-0.1398,-0.3017,0.2648,-0.1946,0.0606,0.2078,-1.5736,-0.2149,-0.1492,0.0293,0.1026,-1.0,-1.0,-1.0,1.0,1.0,0.8119,1.0,-1.0,1.0,1.0,-1.0,-1.0,1.0,-1.0,1.0,-1.0,-1.0,1.0,0.0,0.0,0.0,0.0,0.0,0.0,0.0,0.0,0.0,0.3333,0.0,0.3333,0.0,0
3.96,run,-13.9,1.61,-11.23,-4.32,9.19,0.0,0.05,0.0,0.617,-34.19,-8.26,104.59,-23.2,11.95,102.74,34.72,-14.15,101.6,35.16,-33.05,100.11,-33.57,-79.28,104.06,-9.32,-37.62,92.2,-35.0,-19.74,94.28,-17.0,25.11,111.2,35.0,-26.1,114.05,35.0,-37.8,90.53,-28.67,-80.0,114.73,-20.0,-48.33,104.61,-1.0,-1.0,-1.0,1.0,1.0,1.0,1.0,-1.0,1.0,1.0,-1.0,-1.0,1.0,-1.0,1.0,-1.0,-1.0,1.0,0.143,0.0,0.0,0.019,0.169,0.052,0.006,0.006,0.045,0.006,0.273,0.006,0.019,0.013,0.013,0.0,0.026,0.013,-0.5906,-0.4234,0.4648,-0.4403,-0.0675,0.405,0.6029,-0.52,0.385,0.6075,-0.8759,0.3942,-0.6013,-1.695,0.4019,-0.1243,-0.9403,0.2286,-0.0091,-0.1961,-0.1669,0.2747,0.2518,0.2734,0.0,-0.2858,0.2912,0.0032,0.2177,-0.2715,-0.0692,-0.2801,0.2715,-0.2281,0.0022,0.2316,-1.6043,-0.2155,-0.1563,-0.0054,0.1812,-1.0,-1.0,-1.0,1.0,1.0,1.0,1.0,-1.0,1.0,1.0,-1.0,-1.0,1.0,-1.0,1.0,-1.0,-1.0,1.0,0.0,0.0,0.0,0.0,0.0,0.0,0.0,0.0,0.0,0.3333,0.0,0.3333,0.0,0
4.0,run,-14.37,1.81,-12.48,3.81,6.93,0.0,0.05,0.0,0.617,-34.28,-9.58,103.27,-21.71,13.18,104.06,34.72,-15.47,103.01,35.16,-32.96,98.61,-32.52,-79.72,105.38,-10.72,-38.94,93.6,-35.0,-21.24,92.78,-15.5,26.61,112.7,35.0,-27.6,115.55,35.0,-39.3,89.03,-27.17,-80.0,116.23,-21.5,-49.83,106.11,-1.0,-1.0,-1.0,1.0,1.0,1.0,1.0,-1.0,1.0,1.0,-1.0,-1.0,1.0,-1.0,1.0,-1.0,-1.0,1.0,0.039,0.0,0.006,0.019,0.273,0.149,0.006,0.006,0.033,0.013,0.084,0.0,0.019,0.013,0.006,0.006,0.026,0.013,-0.5983,-0.4464,0.4418,-0.4157,-0.046,0.428,0.6029,-0.543,0.4111,0.6075,-0.8652,0.3697,-0.586,-1.7073,0.4295,-0.1488,-0.9649,0.2546,-0.0352,-0.2237,-0.2033,0.2845,0.2569,0.2778,0.0,-0.2865,0.3018,0.0022,0.1927,-0.2822,0.0092,-0.2422,0.2938,-0.2519,-0.0906,0.2601,-1.6433,-0.2286,-0.196,-0.0755,0.1603,-1.0,-1.0,-1.0,1.0,1.0,1.0,1.0,-1.0,1.0,1.0,-1.0,-1.0,1.0,-1.0,1.0,-1.0,-1.0,1.0,0.0,0.0,0.0,0.0,0.0,0.0,0.0,0.0,0.0,0.3333,0.0,0.3333,0.0,0
4.04,run,-14.85,2.17,-12.86,8.5,4.16,0.0,0.05,0.0,0.617,-34.28,-10.9,101.87,-20.21,14.5,105.29,34.72,-16.96,104.5,35.16,-32.87,97.12,-31.2,-79.8,106.79,-12.04,-40.34,95.01,-35.0,-22.74,91.28,-14.0,28.11,114.2,35.0,-29.1,117.05,35.0,-40.8,87.53,-25.67,-80.0,117.73,-23.0,-51.33,107.61,-1.0,-1.0,-1.0,1.0,1.0,1.0,1.0,-1.0,1.0,1.0,-1.0,-1.0,1.0,-1.0,1.0,-1.0,-1.0,1.0,0.039,0.0,0.006,0.019,0.273,0.149,0.006,0.006,0.033,0.013,0.084,0.0,0.019,0.013,0.006,0.006,0.026,0.013,-0.5998,-0.4694,0.4188,-0.3896,-0.0245,0.451,0.6029,-0.566,0.4357,0.6075,-0.8636,0.3436,-0.5676,-1.715,0.4525,-0.1733,-0.9879,0.2792,-0.0304,-0.2428,-0.2285,0.2969,0.2603,0.2807,0.0,-0.2868,0.3032,0.0016,0.1406,-0.2953,0.0754,-0.1983,0.2919,-0.2683,-0.1497,0.274,-1.684,-0.2107,-0.2178,0.0666,0.121,-1.0,-1.0,-1.0,1.0,1.0,1.0,1.0,-1.0,1.0,1.0,-1.0,-1.0,1.0,-1.0,1.0,-1.0,-1.0,1.0,0.0,0.0,0.0,0.0,0.0,0.0,0.0,0.0,0.0,0.3333,0.0,0.3333,0.0,0
4.08,run,-15.37,2.65,-13.42,10.8,5.88,0.0,0.05,0.0,0.617,-34.37,-12.22,100.46,-18.9,15.73,106.52,34.8,-18.37,106.0,35.16,-32.87,95.8,-29.71,-79.8,108.28,-13.36,-41.84,96.42,-35.0,-24.24,89.78,-12.5,29.61,115.7,35.0,-30.6,118.55,35.0,-42.3,86.03,-24.17,-80.0,119.23,-24.5,-52.83,109.11,-1.0,-0.5262,-1.0,1.0,1.0,1.0,1.0,-0.9579,1.0,1.0,-1.0,-1.0,1.0,-1.0,1.0,-1.0,-1.0,1.0,0.039,0.0,0.006,0.019,0.273,0.149,0.006,0.006,0.033,0.013,0.084,0.0,0.019,0.013,0.006,0.006,0.026,0.013,-0.5998,-0.4924,0.3942,-0.3636,-0.0015,0.4725,0.6029,-0.5921,0.4617,0.6075,-0.8621,0.3175,-0.5446,-1.7165,0.4771,-0.1963,-1.0124,0.3037,-0.0213,-0.2563,-0.2521,0.3057,0.2686,0.2771,0.0,-0.2986,0.3101,0.0011,0.1042,-0.3046,0.1392,-0.1445,0.2964,-0.2742,-0.1969,0.284,-1.7257,-0.179,-0.2245,0.1484,0.0725,-1.0,-1.0,-1.0,1.0,1.0,1.0,1.0,-1.0,1.0,1.0,-1.0,-1.0,1.0,-1.0,1.0,-1.0,-1.0,1.0,0.0,0.0,0.0,0.0,0.0,0.0,0.0,0.0,0.0,0.3333,0.0,0.3333,0.0,0
4.12,run,-16.6,3.37,-25.66,14.96,7.61,0.0,0.05,0.0,0.617,-34.37,-13.8,98.88,-17.05,17.4,108.11,34.8,-20.13,107.67,35.07,-33.49,94.13,-28.12,-79.8,109.95,-15.03,-43.59,98.17,-35.0,-23.86,88.28,-11.0,30.0,117.2,35.0,-32.1,120.05,35.0,-43.8,84.53,-22.67,-80.0,120.73,-26.0,-54.33,110.61,-1.0,0.0207,-1.0,1.0,1.0,1.0,1.0,-0.5383,1.0,1.0,-1.0,-1.0,1.0,-1.0,1.0,-1.0,-1.0,1.0,0.026,0.0,0.013,0.013,0.305,0.273,0.006,0.006,0.033,0.0,0.0,0.006,0.013,0.006,0.006,0.013,0.019,0.013,-0.6013,-0.5154,0.3697,-0.3405,0.0199,0.4939,0.6044,-0.6167,0.4878,0.6075,-0.8621,0.2945,-0.5185,-1.7165,0.5031,-0.2194,-1.0385,0.3283,-0.0206,-0.2656,-0.2684,0.3002,0.2685,0.2744,0.0057,-0.301,0.3148,0.0008,0.0729,-0.2994,0.1951,-0.1012,0.3052,-0.2781,-0.2355,0.2907,-1.7709,-0.1372,-0.2342,0.1885,0.1026,-1.0,-0.5262,-1.0,1.0,1.0,1.0,1.0,-0.9579,1.0,1.0,-1.0,-1.0,1.0,-1.0,1.0,-1.0,-1.0,1.0,0.0,0.0,0.0,0.0,0.0,0.0,0.0,0.0,0.0,0.3333,0.0,0.3333,0.0,0
4.16,run,-17.65,3.89,-25.61,12.04,15.13,0.0,0.05,0.0,0.617,-34.37,-15.29,97.47,-15.21,18.81,109.69,34.8,-21.53,109.34,35.07,-34.63,92.72,-26.54,-79.8,111.53,-16.52,-45.18,99.58,-35.0,-22.36,86.78,-9.5,30.0,118.7,35.0,-32.83,121.55,35.0,-45.3,83.03,-21.17,-80.0,122.23,-27.5,-55.83,112.11,-1.0,0.8168,-1.0,1.0,1.0,1.0,1.0,-0.1423,1.0,1.0,-1.0,-1.0,1.0,-1.0,1.0,-1.0,-1.0,1.0,0.026,0.0,0.013,0.013,0.305,0.273,0.006,0.006,0.033,0.0,0.0,0.006,0.013,0.006,0.006,0.013,0.019,0.013,-0.6013,-0.543,0.3421,-0.3083,0.0491,0.5216,0.6044,-0.6473,0.517,0.6059,-0.8728,0.2654,-0.4909,-1.7165,0.5323,-0.2485,-1.0692,0.359,-0.0144,-0.2724,-0.2743,0.3109,0.2791,0.2785,0.004,-0.3067,0.3116,-0.0043,0.0175,-0.3008,0.223,-0.0708,0.3049,-0.2859,-0.2609,0.2995,-1.8783,-0.0747,-0.4478,0.2611,0.1329,-1.0,0.0207,-1.0,1.0,1.0,1.0,1.0,-0.5383,1.0,1.0,-1.0,-1.0,1.0,-1.0,1.0,-1.0,-1.0,1.0,0.0,0.0,0.0,0.0,0.0,0.0,0.0,0.0,0.0,0.3333,0.0,0.3333,0.0,0
4.2,run,-18.15,4.32,-17.94,12.31,9.8,0.0,0.05,0.0,0.617,-34.45,-16.35,96.68,-13.97,19.86,110.74,34.89,-22.59,110.39,35.07,-35.51,91.67,-25.49,-79.8,112.59,-17.58,-46.32,100.72,-35.0,-20.86,85.28,-8.0,30.0,120.2,35.0,-31.33,123.05,35.0,-46.8,81.53,-19.67,-80.0,123.73,-29.0,-57.33,113.61,-1.0,1.0,-1.0,1.0,1.0,1.0,1.0,0.6194,1.0,1.0,-1.0,-1.0,1.0,-1.0,1.0,-1.0,-1.0,1.0,0.026,0.0,0.013,0.013,0.305,0.273,0.006,0.006,0.033,0.0,0.0,0.006,0.013,0.006,0.006,0.013,0.019,0.013,-0.6013,-0.5691,0.3175,-0.2761,0.0736,0.5492,0.6044,-0.6719,0.5461,0.6059,-0.8928,0.2408,-0.4633,-1.7165,0.5599,-0.2746,-1.0968,0.3835,-0.0101,-0.2815,-0.2775,0.3299,0.2809,0.2912,0.0028,-0.3002,0.3197,-0.003,-0.0573,-0.2961,0.2523,-0.0496,0.3096,-0.291,-0.2789,0.2952,-1.9703,-0.0296,-0.447,0.2102,0.2641,-1.0,0.8168,-1.0,1.0,1.0,1.0,1.0,-0.1423,1.0,1.0,-1.0,-1.0,1.0,-1.0,1.0,-1.0,-1.0,1.0,0.0,0.0,0.0,0.0,0.0,0.0,0.0,0.0,0.0,0.3333,0.0,0.3333,0.0,0
4.24,run,-19.33,4.98,-30.44,14.93,2.92,0.0,0.05,0.0,0.617,-34.45,-17.67,94.92,-13.01,21.09,112.15,34.89,-23.73,111.8,35.07,-36.65,90.26,-24.08,-79.8,114.08,-18.9,-48.34,102.13,-35.0,-19.36,83.78,-6.5,30.0,121.7,35.0,-29.83,124.55,35.0,-48.3,80.03,-18.17,-80.0,125.23,-30.5,-58.83,115.11,-1.0,1.0,-1.0,1.0,1.0,1.0,1.0,0.9009,1.0,1.0,-1.0,-1.0,1.0,-1.0,1.0,-1.0,-1.0,1.0,0.026,0.006,0.013,0.013,0.344,0.227,0.0,0.026,0.033,0.0,0.013,0.006,0.006,0.006,0.006,0.033,0.0,0.019,-0.6029,-0.5875,0.3037,-0.2546,0.092,0.5676,0.6059,-0.6903,0.5645,0.6059,-0.9081,0.2224,-0.4449,-1.7165,0.5783,-0.293,-1.1167,0.4034,-0.0146,-0.2873,-0.262,0.3363,0.2869,0.2941,0.0095,-0.3004,0.314,-0.0021,-0.1153,-0.2975,0.2669,-0.0347,0.307,-0.294,-0.293,0.3044,-2.0135,0.0084,-0.3131,0.2148,0.1711,-1.0,1.0,-1.0,1.0,1.0,1.0,1.0,0.6194,1.0,1.0,-1.0,-1.0,1.0,-1.0,1.0,-1.0,-1.0,1.0,0.0,0.0,0.0,0.0,0.0,0.0,0.0,0.0,0.0,0.3333,0.0,0.3333,0.0,0
4.28,run,-20.51,5.98,-30.44,21.07,-7.42,0.0,0.05,0.0,0.617,-34.54,-18.81,93.43,-11.51,22.76,113.91,34.89,-25.31,113.38,34.8,-37.97,88.68,-22.59,-79.8,115.49,-20.3,-49.66,103.62,-35.0,-17.86,82.28,-5.0,30.0,123.2,35.0,-28.33,126.05,35.0,-49.8,78.53,-16.67,-80.0,126.73,-32.0,-60.33,116.61,-1.0,1.0,-1.0,1.0,1.0,1.0,1.0,0.9713,1.0,1.0,-1.0,-1.0,1.0,-1.0,1.0,-1.0,-0.9197,1.0,0.026,0.006,0.013,0.013,0.344,0.227,0.0,0.026,0.033,0.0,0.013,0.006,0.006,0.006,0.006,0.033,0.0,0.019,-0.6029,-0.6105,0.273,-0.2378,0.1135,0.5921,0.6059,-0.7102,0.589,0.6059,-0.9281,0.1979,-0.4203,-1.7165,0.6044,-0.316,-1.152,0.428,-0.0102,-0.2876,-0.2986,0.2988,0.2815,0.2981,0.0066,-0.2852,0.312,-0.0015,-0.1556,-0.3005,0.279,-0.0243,0.3129,-0.2922,-0.3376,0.3053,-2.1169,0.0659,-0.5313,0.2605,0.0509,-1.0,1.0,-1.0,1.0,1.0,1.0,1.0,0.9009,1.0,1.0,-1.0,-1.0,1.0,-1.0,1.0,-1.0,-1.0,1.0,0.0,0.0,0.0,0.0,0.0,0.0,0.0,0.0,0.0,0.3333,0.0,0.3333,0.0,0
4.42,tail,-20.27,5.47,1.98,-5.42,14.18,,0.0,0.0,0.617,-34.89,-20.13,91.58,-10.37,18.54,112.59,34.89,-26.98,114.7,34.63,-39.55,85.43,-20.04,-79.19,119.09,-21.09,-53.0,104.77,,,,,,,,,,,,,,,,,,,,,,,,,,,,,,,,,,,,,0.0,0.0,0.0,0.0,0.0,0.0,0.0,0.0,0.0,0.0,0.0,0.0,0.0,0.0,0.0,0.0,0.0,0.0,,,,,,,,,,,,,,,,,,,,,,,,,,,,,,,,,,,,,,,,,,,,,,,,,,,,,,,,,,,,,,,,,,,,,,,,,
4.52,tail,-17.55,5.59,20.08,-0.16,-3.86,,0.0,0.0,0.617,-34.72,-20.21,91.67,-10.37,8.7,110.21,34.89,-26.98,114.7,34.63,-39.55,84.81,-20.04,-78.93,120.06,-20.13,-52.91,104.68,,,,,,,,,,,,,,,,,,,,,,,,,,,,,,,,,,,,,0.0,0.0,0.0,0.0,0.0,0.0,0.0,0.0,0.0,0.0,0.0,0.0,0.0,0.0,0.0,0.0,0.0,0.0,,,,,,,,,,,,,,,,,,,,,,,,,,,,,,,,,,,,,,,,,,,,,,,,,,,,,,,,,,,,,,,,,,,,,,,,,
4.62,tail,-16.87,6.07,4.8,3.49,-7.81,,0.0,0.0,0.617,-34.72,-20.21,91.67,-10.2,6.06,110.21,34.89,-26.98,114.7,34.63,-39.55,84.81,-20.04,-78.93,120.06,-20.3,-52.56,104.68,,,,,,,,,,,,,,,,,,,,,,,,,,,,,,,,,,,,,0.0,0.0,0.0,0.0,0.0,0.0,0.0,0.0,0.0,0.006,0.0,0.0,0.0,0.0,0.0,0.006,0.006,0.0,,,,,,,,,,,,,,,,,,,,,,,,,,,,,,,,,,,,,,,,,,,,,,,,,,,,,,,,,,,,,,,,,,,,,,,,,
4.72,tail,-17.6,5.51,-6.18,-4.69,11.43,,0.0,0.0,0.617,-33.31,-19.95,90.88,-9.49,6.42,109.07,34.28,-25.75,113.82,33.31,-39.11,83.58,-18.9,-77.7,118.65,-19.16,-52.12,103.97,,,,,,,,,,,,,,,,,,,,,,,,,,,,,,,,,,,,,0.006,0.039,0.013,0.013,0.026,0.026,0.013,0.006,0.019,0.013,0.013,0.019,0.006,0.006,0.013,0.019,0.026,0.013,,,,,,,,,,,,,,,,,,,,,,,,,,,,,,,,,,,,,,,,,,,,,,,,,,,,,,,,,,,,,,,,,,,,,,,,,
4.82,tail,-18.76,4.5,-9.34,-9.03,10.99,,0.0,0.0,0.617,-30.23,-16.96,87.89,-6.15,9.49,105.82,31.11,-22.5,111.09,30.32,-36.12,80.51,-15.64,-74.53,115.58,-16.0,-48.87,100.72,,,,,,,,,,,,,,,,,,,,,,,,,,,,,,,,,,,,,0.0,0.026,0.013,0.013,0.026,0.019,0.019,0.006,0.026,0.013,0.013,0.0,0.006,0.006,0.013,0.013,0.019,0.013,,,,,,,,,,,,,,,,,,,,,,,,,,,,,,,,,,,,,,,,,,,,,,,,,,,,,,,,,,,,,,,,,,,,,,,,,
4.92,tail,-18.55,9.21,1.52,38.78,9.32,,0.0,0.0,0.617,-26.89,-13.62,84.29,-3.16,12.57,102.57,27.95,-19.25,107.84,26.98,-32.52,79.01,-12.48,-71.19,112.24,-12.83,-45.88,97.12,,,,,,,,,,,,,,,,,,,,,,,,,,,,,,,,,,,,,0.0,0.033,0.006,0.013,0.039,0.013,0.019,0.0,0.026,0.013,0.013,0.0,0.006,0.006,0.006,0.019,0.039,0.013,,,,,,,,,,,,,,,,,,,,,,,,,,,,,,,,,,,,,,,,,,,,,,,,,,,,,,,,,,,,,,,,,,,,,,,,,
5.02,tail,-19.34,7.05,-5.85,-18.21,11.63,,0.0,0.0,0.617,-23.73,-10.63,81.12,-0.44,15.29,99.14,24.7,-16.0,104.59,23.91,-29.44,79.01,-9.23,-67.85,109.07,-9.4,-43.07,94.04,,,,,,,,,,,,,,,,,,,,,,,,,,,,,,,,,,,,,0.006,0.026,0.006,0.0,0.026,0.006,0.019,0.0,0.019,0.019,0.026,0.0,0.019,0.006,0.006,0.013,0.052,0.013,,,,,,,,,,,,,,,,,,,,,,,,,,,,,,,,,,,,,,,,,,,,,,,,,,,,,,,,,,,,,,,,,,,,,,,,,
5.12,tail,-18.16,6.61,10.08,-3.68,7.08,,0.0,0.0,0.617,-20.57,-7.21,79.54,0.18,16.17,95.89,21.36,-12.57,101.34,20.65,-26.54,78.93,-5.98,-64.69,105.73,-6.24,-39.73,90.79,,,,,,,,,,,,,,,,,,,,,,,,,,,,,,,,,,,,,0.006,0.045,0.0,0.0,0.033,0.013,0.006,0.0,0.019,0.026,0.045,0.0,0.013,0.006,0.013,0.019,0.045,0.006,,,,,,,,,,,,,,,,,,,,,,,,,,,,,,,,,,,,,,,,,,,,,,,,,,,,,,,,,,,,,,,,,,,,,,,,,
5.22,tail,-17.31,4.9,7.03,-14.68,15.23,,0.0,0.0,0.617,-17.23,-4.31,79.45,0.26,16.17,92.46,18.11,-9.4,98.0,17.4,-23.47,78.93,-2.72,-61.35,102.39,-2.99,-36.3,87.54,,,,,,,,,,,,,,,,,,,,,,,,,,,,,,,,,,,,,0.006,0.058,0.0,0.0,0.026,0.006,0.013,0.006,0.026,0.026,0.058,0.0,0.013,0.013,0.013,0.033,0.033,0.006,,,,,,,,,,,,,,,,,,,,,,,,,,,,,,,,,,,,,,,,,,,,,,,,,,,,,,,,,,,,,,,,,,,,,,,,,
5.32,tail,-16.82,4.78,3.89,-1.1,7.12,,0.0,0.0,0.617,-13.62,-0.79,79.45,0.26,16.17,88.68,14.33,-5.8,94.31,13.71,-20.13,78.84,-0.35,-57.92,98.7,-0.44,-32.43,83.94,,,,,,,,,,,,,,,,,,,,,,,,,,,,,,,,,,,,,0.006,0.084,0.0,0.0,0.033,0.0,0.013,0.006,0.019,0.026,0.123,0.006,0.013,0.013,0.013,0.013,0.026,0.006,,,,,,,,,,,,,,,,,,,,,,,,,,,,,,,,,,,,,,,,,,,,,,,,,,,,,,,,,,,,,,,,,,,,,,,,,
5.42,tail,-16.17,3.96,4.63,-8.19,5.95,,0.0,0.0,0.617,-10.46,2.02,79.37,0.26,16.17,85.43,11.16,-2.55,91.05,10.46,-17.05,78.75,-0.18,-54.76,95.45,-0.18,-29.27,80.68,,,,,,,,,,,,,,,,,,,,,,,,,,,,,,,,,,,,,0.006,0.123,0.0,0.0,0.033,0.006,0.013,0.006,0.019,0.033,0.104,0.013,0.0,0.019,0.013,0.0,0.039,0.0,,,,,,,,,,,,,,,,,,,,,,,,,,,,,,,,,,,,,,,,,,,,,,,,,,,,,,,,,,,,,,,,,,,,,,,,,
5.52,tail,-15.92,3.39,2.05,-5.55,2.44,,0.0,0.0,0.617,-7.29,5.01,79.28,0.26,16.17,82.18,7.91,0.62,87.8,7.47,-14.15,78.75,-0.18,-51.77,92.2,0.09,-26.1,78.4,,,,,,,,,,,,,,,,,,,,,,,,,,,,,,,,,,,,,0.019,0.143,0.0,0.0,0.033,0.006,0.013,0.019,0.019,0.039,0.156,0.013,0.0,0.039,0.013,0.006,0.045,0.0,,,,,,,,,,,,,,,,,,,,,,,,,,,,,,,,,,,,,,,,,,,,,,,,,,,,,,,,,,,,,,,,,,,,,,,,,
5.62,tail,-14.2,2.84,12.79,-4.82,-2.12,,0.0,0.0,0.617,-4.13,8.0,79.28,0.26,16.26,79.19,4.83,3.6,84.55,4.31,-11.34,78.66,-0.18,-48.69,88.86,0.09,-23.03,78.22,,,,,,,,,,,,,,,,,,,,,,,,,,,,,,,,,,,,,0.013,0.221,0.0,0.0,0.026,0.013,0.026,0.026,0.013,0.039,0.214,0.013,0.0,0.045,0.006,0.006,0.058,0.0,,,,,,,,,,,,,,,,,,,,,,,,,,,,,,,,,,,,,,,,,,,,,,,,,,,,,,,,,,,,,,,,,,,,,,,,,
5.72,tail,-12.48,2.72,13.92,-1.8,2.81,,0.0,0.0,0.617,-0.97,10.55,79.28,0.18,16.26,78.4,1.58,6.59,81.04,1.14,-8.26,78.66,-0.18,-45.18,85.43,0.0,-19.95,78.22,,,,,,,,,,,,,,,,,,,,,,,,,,,,,,,,,,,,,0.006,0.331,0.0,0.0,0.026,0.006,0.006,0.065,0.0,0.026,0.279,0.013,0.0,0.033,0.006,0.0,0.084,0.0,,,,,,,,,,,,,,,,,,,,,,,,,,,,,,,,,,,,,,,,,,,,,,,,,,,,,,,,,,,,,,,,,,,,,,,,,
5.82,tail,-13.19,2.4,-5.43,-3.67,0.01,,0.0,0.0,0.617,-0.18,13.71,79.19,0.18,16.26,78.4,0.26,9.49,79.1,0.35,-5.54,78.66,-0.18,-41.57,82.18,0.09,-16.96,78.22,,,,,,,,,,,,,,,,,,,,,,,,,,,,,,,,,,,,,0.0,0.37,0.006,0.0,0.026,0.006,0.006,0.13,0.0,0.013,0.377,0.019,0.0,0.013,0.006,0.006,0.143,0.0,,,,,,,,,,,,,,,,,,,,,,,,,,,,,,,,,,,,,,,,,,,,,,,,,,,,,,,,,,,,,,,,,,,,,,,,,
5.92,tail,-12.92,3.1,2.12,5.27,2.3,,0.0,0.0,0.617,-0.18,15.82,79.19,0.18,16.26,78.4,0.26,12.22,79.01,0.35,-2.9,78.57,-0.18,-37.97,79.63,0.09,-14.06,78.05,,,,,,,,,,,,,,,,,,,,,,,,,,,,,,,,,,,,,0.006,0.331,0.0,0.0,0.019,0.006,0.006,0.267,0.0,0.013,0.468,0.026,0.0,0.006,0.006,0.006,0.175,0.0,,,,,,,,,,,,,,,,,,,,,,,,,,,,,,,,,,,,,,,,,,,,,,,,,,,,,,,,,,,,,,,,,,,,,,,,,
6.02,tail,-12.12,3.8,5.95,4.55,1.54,,0.0,0.0,0.617,-0.18,16.0,79.1,-0.26,16.26,78.4,0.26,15.56,78.84,0.35,0.7,78.49,-0.18,-34.45,79.37,0.09,-10.9,78.05,,,,,,,,,,,,,,,,,,,,,,,,,,,,,,,,,,,,,0.0,0.292,0.0,0.006,0.026,0.006,0.006,0.234,0.006,0.006,0.494,0.026,0.0,0.006,0.0,0.006,0.208,0.006,,,,,,,,,,,,,,,,,,,,,,,,,,,,,,,,,,,,,,,,,,,,,,,,,,,,,,,,,,,,,,,,,,,,,,,,,
6.12,tail,-11.07,3.81,8.45,-0.39,-0.51,,0.0,0.0,0.617,-0.18,16.0,79.1,0.0,16.26,78.4,0.26,17.05,78.84,0.35,3.69,78.31,-0.18,-31.29,79.37,0.09,-7.82,77.87,,,,,,,,,,,,,,,,,,,,,,,,,,,,,,,,,,,,,0.0,0.292,0.0,0.006,0.026,0.013,0.006,0.377,0.006,0.013,0.604,0.045,0.0,0.013,0.0,0.006,0.267,0.0,,,,,,,,,,,,,,,,,,,,,,,,,,,,,,,,,,,,,,,,,,,,,,,,,,,,,,,,,,,,,,,,,,,,,,,,,
6.22,tail,-9.77,3.87,10.51,-0.03,1.49,,0.0,0.0,0.617,-0.18,16.0,79.1,0.0,16.26,78.4,0.26,17.05,78.84,0.35,6.77,78.22,-0.18,-28.04,79.28,0.09,-4.83,77.87,,,,,,,,,,,,,,,,,,,,,,,,,,,,,,,,,,,,,0.006,0.319,0.0,0.006,0.026,0.006,0.006,0.279,0.006,0.013,0.592,0.045,0.0,0.013,0.006,0.006,0.338,0.006,,,,,,,,,,,,,,,,,,,,,,,,,,,,,,,,,,,,,,,,,,,,,,,,,,,,,,,,,,,,,,,,,,,,,,,,,
6.32,tail,-8.65,4.0,9.21,0.62,0.59,,0.0,0.0,0.617,-0.18,16.0,79.1,0.26,16.26,78.31,0.26,17.05,78.84,0.35,9.93,78.13,-0.18,-24.87,79.19,0.09,-1.93,77.78,,,,,,,,,,,,,,,,,,,,,,,,,,,,,,,,,,,,,0.0,0.279,0.006,0.0,0.026,0.013,0.006,0.338,0.006,0.006,0.63,0.052,0.0,0.019,0.013,0.006,0.39,0.006,,,,,,,,,,,,,,,,,,,,,,,,,,,,,,,,,,,,,,,,,,,,,,,,,,,,,,,,,,,,,,,,,,,,,,,,,
6.42,tail,-7.49,3.91,9.53,-1.52,1.98,,0.0,0.0,0.617,-0.18,16.0,79.1,0.79,16.17,78.31,0.18,17.05,78.84,0.26,12.48,78.13,-0.18,-21.62,79.1,0.18,1.32,77.7,,,,,,,,,,,,,,,,,,,,,,,,,,,,,,,,,,,,,0.0,0.325,0.006,0.006,0.033,0.013,0.006,0.267,0.006,0.006,0.526,0.071,0.0,0.013,0.013,0.006,0.396,0.013,,,,,,,,,,,,,,,,,,,,,,,,,,,,,,,,,,,,,,,,,,,,,,,,,,,,,,,,,,,,,,,,,,,,,,,,,
6.52,tail,-7.0,3.72,3.9,-2.32,-0.08,,0.0,0.0,0.617,-0.18,16.08,79.1,0.62,16.17,78.31,0.18,17.05,78.84,0.18,13.18,78.13,-0.18,-18.46,79.1,0.18,4.31,77.7,,,,,,,,,,,,,,,,,,,,,,,,,,,,,,,,,,,,,0.0,0.312,0.006,0.006,0.033,0.006,0.006,0.286,0.0,0.006,0.552,0.071,0.0,0.026,0.013,0.013,0.461,0.013,,,,,,,,,,,,,,,,,,,,,,,,,,,,,,,,,,,,,,,,,,,,,,,,,,,,,,,,,,,,,,,,,,,,,,,,,
6.62,tail,-6.47,2.59,4.16,-9.42,2.01,,0.0,0.0,0.617,-0.18,16.52,79.1,0.62,16.17,78.31,0.18,17.05,78.84,0.18,13.18,78.13,-0.18,-15.29,78.93,0.18,7.47,77.61,,,,,,,,,,,,,,,,,,,,,,,,,,,,,,,,,,,,,0.0,0.189,0.006,0.006,0.026,0.006,0.006,0.338,0.0,0.0,0.494,0.065,0.0,0.039,0.019,0.006,0.533,0.013,,,,,,,,,,,,,,,,,,,,,,,,,,,,,,,,,,,,,,,,,,,,,,,,,,,,,,,,,,,,,,,,,,,,,,,,,
6.72,tail,-5.65,2.07,6.01,-4.54,-0.03,,0.0,0.0,0.617,-0.18,16.79,79.1,0.62,16.17,78.31,0.18,17.05,78.75,0.18,13.27,78.13,-0.18,-11.87,78.93,0.18,10.99,77.61,,,,,,,,,,,,,,,,,,,,,,,,,,,,,,,,,,,,,0.0,0.169,0.006,0.006,0.033,0.006,0.006,0.357,0.006,0.0,0.474,0.065,0.0,0.039,0.019,0.006,0.507,0.013,,,,,,,,,,,,,,,,,,,,,,,,,,,,,,,,,,,,,,,,,,,,,,,,,,,,,,,,,,,,,,,,,,,,,,,,,
6.82,tail,-4.94,1.78,5.81,-3.29,0.38,,0.0,0.0,0.617,-0.18,17.23,79.1,0.62,16.17,78.31,0.18,17.05,78.75,0.18,13.45,78.13,-0.18,-8.79,78.93,0.09,13.54,77.61,,,,,,,,,,,,,,,,,,,,,,,,,,,,,,,,,,,,,0.0,0.136,0.006,0.006,0.033,0.013,0.006,0.357,0.006,0.0,0.384,0.065,0.0,0.071,0.019,0.006,0.455,0.013,,,,,,,,,,,,,,,,,,,,,,,,,,,,,,,,,,,,,,,,,,,,,,,,,,,,,,,,,,,,,,,,,,,,,,,,,
6.92,tail,-4.55,1.75,2.86,-0.22,-0.04,,0.0,0.0,0.617,-0.18,17.23,79.1,0.62,16.17,78.31,0.18,17.05,78.75,0.18,14.33,78.13,-0.26,-5.71,78.84,0.09,14.06,77.61,,,,,,,,,,,,,,,,,,,,,,,,,,,,,,,,,,,,,0.0,0.13,0.006,0.006,0.033,0.006,0.0,0.292,0.006,0.0,0.319,0.065,0.006,0.071,0.019,0.006,0.507,0.013,,,,,,,,,,,,,,,,,,,,,,,,,,,,,,,,,,,,,,,,,,,,,,,,,,,,,,,,,,,,,,,,,,,,,,,,,
7.02,tail,-4.28,1.88,1.77,0.3,-0.59,,0.0,0.0,0.617,0.0,17.23,79.1,0.62,16.08,78.31,0.18,17.05,78.75,-0.09,14.41,78.22,-0.18,-2.55,78.84,0.09,14.41,77.61,,,,,,,,,,,,,,,,,,,,,,,,,,,,,,,,,,,,,0.0,0.117,0.0,0.006,0.033,0.013,0.006,0.338,0.006,0.006,0.299,0.045,0.0,0.143,0.026,0.0,0.39,0.013,,,,,,,,,,,,,,,,,,,,,,,,,,,,,,,,,,,,,,,,,,,,,,,,,,,,,,,,,,,,,,,,,,,,,,,,,
7.12,tail,-3.72,1.87,4.32,-0.77,-0.7,,0.0,0.0,0.617,0.0,17.23,79.1,0.62,16.08,78.31,0.18,17.05,78.75,-0.09,14.5,78.22,-0.18,0.53,78.75,0.0,14.5,77.61,,,,,,,,,,,,,,,,,,,,,,,,,,,,,,,,,,,,,0.0,0.149,0.0,0.006,0.033,0.006,0.006,0.351,0.006,0.006,0.234,0.045,0.0,0.24,0.033,0.006,0.364,0.013,,,,,,,,,,,,,,,,,,,,,,,,,,,,,,,,,,,,,,,,,,,,,,,,,,,,,,,,,,,,,,,,,,,,,,,,,
7.22,tail,-2.78,2.33,6.85,2.94,0.52,,0.0,0.0,0.617,0.09,17.23,79.1,0.62,16.08,78.31,0.18,17.05,78.75,-0.09,15.03,78.22,-0.18,3.96,78.66,0.0,14.68,77.61,,,,,,,,,,,,,,,,,,,,,,,,,,,,,,,,,,,,,0.006,0.136,0.006,0.006,0.033,0.013,0.006,0.364,0.006,0.006,0.163,0.045,0.0,0.195,0.045,0.0,0.286,0.013,,,,,,,,,,,,,,,,,,,,,,,,,,,,,,,,,,,,,,,,,,,,,,,,,,,,,,,,,,,,,,,,,,,,,,,,,
7.32,tail,-2.01,2.19,6.12,-1.84,-0.83,,0.0,0.0,0.617,0.09,17.23,79.1,0.62,16.08,78.31,0.18,17.05,78.75,-0.09,15.29,78.31,-0.18,6.94,78.66,0.0,15.21,77.7,,,,,,,,,,,,,,,,,,,,,,,,,,,,,,,,,,,,,0.0,0.13,0.0,0.006,0.033,0.006,0.006,0.279,0.006,0.0,0.136,0.033,0.0,0.214,0.033,0.0,0.234,0.006,,,,,,,,,,,,,,,,,,,,,,,,,,,,,,,,,,,,,,,,,,,,,,,,,,,,,,,,,,,,,,,,,,,,,,,,,
