t_s,roll_deg,pitch_deg,gyro_x_dps,gyro_y_dps,gyro_z_dps,height_ref_mm,vx_ref_mps,vy_ref_mps,max_cur_a,q0_deg,q1_deg,q2_deg,q3_deg,q4_deg,q5_deg,q6_deg,q7_deg,q8_deg,q9_deg,q10_deg,q11_deg,q12_deg,q13_deg,q14_deg,q15_deg,q16_deg,q17_deg,cmd0_deg,cmd1_deg,cmd2_deg,cmd3_deg,cmd4_deg,cmd5_deg,cmd6_deg,cmd7_deg,cmd8_deg,cmd9_deg,cmd10_deg,cmd11_deg,cmd12_deg,cmd13_deg,cmd14_deg,cmd15_deg,cmd16_deg,cmd17_deg,act0,act1,act2,act3,act4,act5,act6,act7,act8,act9,act10,act11,act12,act13,act14,act15,act16,act17,cur0_a,cur1_a,cur2_a,cur3_a,cur4_a,cur5_a,cur6_a,cur7_a,cur8_a,cur9_a,cur10_a,cur11_a,cur12_a,cur13_a,cur14_a,cur15_a,cur16_a,cur17_a
0.0,-0.02,2.14,0.51,0.15,3.67,0.0,0.0,0.0,0.019,0.26,0.0,0.18,-0.09,-0.09,0.09,0.18,0.09,0.35,0.09,-0.09,0.09,0.09,0.0,0.0,0.09,-0.09,-0.09,2.03,-1.5,1.68,1.41,-1.59,1.59,1.68,-1.41,1.85,-1.41,-1.59,1.59,1.59,-1.5,-1.5,1.59,-1.59,1.41,0.3328,0.1933,-0.334,0.3633,0.0349,-0.142,0.7915,-1.0,-0.4886,-1.0,-0.1676,0.394,0.1701,-0.3535,-1.0,1.0,-0.0978,-0.2063,0.006,0.006,0.0,0.006,0.013,0.006,0.006,0.013,0.006,0.013,0.006,0.013,0.006,0.013,0.019,0.013,0.006,0.006
0.04,-0.01,2.15,-0.01,0.19,-4.04,0.0,0.0,0.0,0.019,1.23,0.0,0.18,-0.09,-0.09,0.35,0.18,-0.18,0.44,-0.18,-0.09,0.26,0.18,-0.18,-0.26,0.18,-0.18,0.09,0.53,-3.0,3.18,2.91,-3.09,3.09,3.18,-2.91,3.35,0.09,-3.09,3.09,0.09,-3.0,0.0,3.09,-3.09,2.91,-0.1138,-0.296,-0.1161,0.8213,-0.6537,0.7208,0.1152,-1.0,-0.6306,0.0334,-0.3762,-0.5088,-0.4485,-0.357,-0.1163,0.8907,0.0327,-0.4269,0.006,0.006,0.0,0.006,0.013,0.006,0.006,0.013,0.006,0.013,0.006,0.013,0.006,0.013,0.019,0.013,0.006,0.006
0.08,-0.01,2.13,0.18,0.19,2.87,0.0,0.0,0.0,0.019,0.97,-0.44,0.79,0.53,-0.53,0.97,0.53,-0.79,0.7,-1.05,-0.53,1.05,0.97,-0.88,-0.97,1.14,-0.62,0.62,2.03,-4.5,4.68,4.41,-4.59,4.59,4.68,-4.41,4.85,-1.41,-4.59,4.59,-1.41,-4.5,1.5,4.59,-4.59,4.41,0.2711,-0.8346,0.0253,0.3415,-1.0,0.6242,0.9831,-0.8639,-0.3312,-0.7297,-0.1672,-0.2807,-0.0808,-0.4107,-0.1275,0.4476,-0.008,-0.3212,0.006,0.006,0.0,0.006,0.013,0.006,0.006,0.013,0.006,0.013,0.006,0.013,0.006,0.013,0.019,0.013,0.006,0.006
0.12,-0.01,2.16,0.31,0.29,-0.95,0.0,0.0,0.0,0.045,2.11,-1.32,1.67,1.32,-1.32,2.11,1.58,-1.58,1.49,-1.14,-1.49,2.11,1.05,-1.76,-1.05,1.93,-1.32,1.49,2.97,-6.0,6.18,5.91,-6.09,6.09,6.18,-5.91,6.35,-2.91,-6.09,6.09,-2.91,-6.0,3.0,6.09,-6.09,5.91,0.0848,-0.2038,-0.0111,0.393,-0.4246,0.1682,0.7252,-0.7133,-0.0813,-0.5175,-0.3733,-0.5556,-0.2734,-0.4559,-0.0782,0.7296,0.1657,-0.3446,0.013,0.026,0.013,0.019,0.033,0.006,0.019,0.045,0.006,0.013,0.026,0.006,0.006,0.033,0.0,0.013,0.033,0.006
0.16,-0.04,2.14,-0.76,-0.51,-1.98,0.0,0.0,0.0,0.045,2.2,-2.46,2.81,2.46,-2.46,3.25,2.64,-2.81,2.81,-1.67,-2.55,3.25,0.88,-2.99,-0.79,3.25,-2.46,2.55,1.47,-7.5,7.68,7.41,-7.59,7.59,7.68,-7.41,7.85,-4.41,-7.59,7.59,-4.41,-7.5,4.5,7.59,-4.59,7.41,0.0329,-0.3029,-0.3052,0.5278,-0.4467,0.1636,0.5386,-1.0,-0.1296,-0.4216,-0.0231,-0.3568,-0.2692,-0.4751,-0.0823,0.6227,0.5354,-0.2355,0.013,0.026,0.013,0.019,0.033,0.006,0.019,0.045,0.006,0.013,0.026,0.006,0.006,0.033,0.0,0.013,0.033,0.006
0.2,-0.03,2.18,0.17,-0.11,4.64,0.0,0.0,0.0,0.045,2.55,-3.6,4.04,3.69,-3.69,4.57,3.96,-4.13,4.04,-2.46,-3.78,4.57,0.0,-4.31,-0.09,4.48,-3.6,3.78,2.97,-9.0,9.18,8.91,-9.09,9.09,9.18,-8.91,9.35,-5.91,-9.09,6.09,-5.91,-9.0,6.0,9.09,-3.09,5.91,0.1198,-0.3461,-0.3712,0.488,-0.4076,0.0498,0.4188,-1.0,0.0589,-0.4974,-0.1198,-0.7765,-0.3319,-0.3452,-0.1294,0.4244,0.4448,-1.0,0.013,0.026,0.013,0.019,0.033,0.006,0.019,0.045,0.006,0.013,0.026,0.006,0.006,0.033,0.0,0.013,0.033,0.006
0.24,-0.02,2.21,0.32,0.45,-4.67,0.0,0.0,0.0,0.045,3.25,-5.01,5.36,5.01,-5.01,5.98,5.27,-5.54,5.36,-3.43,-5.1,5.8,-0.79,-5.62,0.88,5.89,-4.48,5.01,1.47,-10.5,10.68,10.41,-10.59,10.59,7.68,-10.41,10.85,-7.41,-10.59,7.59,-4.41,-10.5,7.5,10.59,-1.59,4.41,-0.0733,-0.2207,-0.2851,0.316,-0.1339,-0.0915,0.0684,-0.9266,0.2139,-0.5268,-0.114,-0.6321,-0.0666,-0.2166,-0.3057,0.4277,0.7098,-1.0,0.006,0.026,0.006,0.026,0.026,0.013,0.013,0.026,0.019,0.019,0.026,0.0,0.019,0.019,0.019,0.006,0.019,0.006
0.28,0.92,3.22,0.64,0.66,0.07,0.0,0.0,0.0,0.045,1.23,-9.93,10.46,10.2,-10.02,10.46,7.82,-10.11,10.55,-7.29,-10.2,7.56,-4.31,-10.28,7.38,10.46,-1.67,4.57,-0.03,-12.0,12.18,8.91,-12.09,12.09,6.18,-11.91,12.35,-8.91,-12.09,9.09,-2.91,-12.0,9.0,10.05,-0.09,2.91,-0.197,-0.2244,-0.3124,0.0643,-0.1062,-0.2443,-0.0733,-1.0,0.3275,-0.613,0.0933,-0.4738,-0.0028,-0.2434,-0.0821,0.2872,0.756,-1.0,0.026,0.013,0.006,0.0,0.019,0.006,0.006,0.026,0.006,0.006,0.013,0.0,0.0,0.013,0.006,0.0,0.006,0.006
0.32,0.92,3.22,0.71,0.62,-3.27,0.0,0.0,0.0,0.045,1.67,-10.02,10.46,10.2,-10.11,10.55,7.82,-10.2,10.55,-7.47,-10.2,7.56,-4.31,-10.28,7.38,10.46,-1.67,4.48,-1.53,-13.5,13.68,7.41,-13.59,13.59,4.68,-13.41,13.85,-10.41,-13.59,7.59,-1.41,-13.5,10.5,10.91,1.41,1.41,-0.1375,-0.2433,-0.2516,0.1003,-0.1479,-0.3749,-0.0811,-1.0,0.5969,-0.3981,-0.3502,-0.8058,0.1994,-0.0572,0.2536,0.3117,1.0,-1.0,0.026,0.013,0.006,0.0,0.019,0.006,0.006,0.026,0.006,0.006,0.013,0.0,0.0,0.013,0.006,0.0,0.006,0.006
0.36,0.86,3.16,-0.84,-0.57,1.77,0.0,0.0,0.0,0.045,0.35,-10.55,10.9,10.11,-10.63,11.25,7.29,-10.72,11.07,-8.0,-10.63,8.17,-3.96,-10.81,8.17,10.11,-1.23,3.96,-2.82,-15.0,15.18,5.91,-15.09,15.09,3.18,-14.91,15.35,-11.91,-15.09,9.09,0.09,-15.0,12.0,10.1,2.91,-0.09,-0.0804,-0.1852,-0.3094,-0.1655,-0.2099,-0.2846,-0.1812,-1.0,0.5837,-0.3939,-0.0644,-0.2864,0.076,-0.4038,0.1049,0.2886,1.0,-1.0,0.026,0.013,0.006,0.0,0.019,0.006,0.006,0.026,0.006,0.006,0.013,0.0,0.0,0.013,0.006,0.0,0.006,0.006
0.4,0.91,3.19,1.24,1.36,-3.72,0.0,0.0,0.0,0.058,0.35,-11.34,11.69,9.67,-11.34,11.95,6.59,-11.6,11.69,-8.79,-11.43,8.53,-3.08,-11.78,8.88,10.02,-0.44,3.34,-1.32,-16.5,16.68,7.41,-16.59,16.59,1.68,-16.41,16.85,-10.41,-16.59,10.59,-1.41,-16.5,13.5,11.6,4.41,-1.59,0.0022,-0.1347,-0.5163,0.2265,-0.0795,-0.2165,-0.0638,-1.0,0.5573,-0.1804,-0.0545,-0.5433,-0.221,-0.5237,-0.0714,0.5781,0.667,-1.0,0.058,0.019,0.006,0.006,0.026,0.013,0.013,0.026,0.013,0.013,0.019,0.006,0.006,0.026,0.013,0.006,0.013,0.013
0.44,0.87,3.12,-0.98,-0.82,1.32,0.0,0.0,0.0,0.058,-0.7,-12.22,12.66,8.53,-12.3,13.1,5.62,-12.66,12.74,-9.58,-12.39,9.23,-2.2,-12.74,10.02,10.2,0.44,2.29,0.18,-18.0,18.18,7.58,-18.09,18.09,3.18,-17.91,18.35,-8.91,-18.09,12.09,-2.55,-18.0,15.0,13.1,5.91,-3.09,0.0154,-0.1521,-0.2004,0.2166,-0.1822,-0.1973,0.1348,-1.0,0.363,-0.1313,0.0431,-0.3232,-0.073,-0.2524,0.0995,0.6415,0.8121,-1.0,0.058,0.019,0.006,0.006,0.026,0.013,0.013,0.026,0.013,0.013,0.019,0.006,0.006,0.026,0.013,0.006,0.013,0.013
0.48,0.84,3.13,-0.46,-0.2,3.33,0.0,0.0,0.0,0.058,-1.58,-13.45,13.89,8.0,-13.54,14.41,4.48,-14.06,13.97,-10.11,-13.71,10.11,-1.67,-14.15,11.34,10.99,1.76,1.05,1.68,-19.5,19.68,6.81,-19.59,19.59,4.68,-19.41,19.85,-7.41,-19.59,13.59,-4.05,-19.5,16.5,14.6,7.41,-4.59,0.0815,-0.1861,-0.1809,0.1945,-0.2148,-0.1611,0.1878,-1.0,0.5266,-0.0055,-0.0103,-0.4314,-0.3085,-0.4129,0.1086,0.5672,0.6352,-1.0,0.058,0.019,0.006,0.006,0.026,0.013,0.013,0.026,0.013,0.013,0.019,0.006,0.006,0.026,0.013,0.006,0.013,0.013
0.52,0.88,3.15,1.22,0.73,-2.92,0.0,0.0,0.0,0.058,-1.05,-14.94,15.29,7.47,-14.94,15.82,3.43,-15.47,15.29,-10.28,-15.12,11.25,-1.58,-15.47,12.92,11.78,3.08,-0.26,2.55,-21.0,21.18,6.71,-21.09,21.09,6.18,-20.91,21.35,-5.91,-21.09,15.09,-4.58,-21.0,18.0,16.1,7.05,-6.09,0.073,-0.1036,-0.0834,0.1917,-0.1735,-0.2389,0.2571,-1.0,0.4472,0.0545,0.0626,-0.2674,-0.1309,-0.3431,0.1287,0.6691,0.5828,-0.9685,0.006,0.026,0.013,0.0,0.026,0.013,0.006,0.019,0.019,0.006,0.026,0.013,0.013,0.026,0.013,0.013,0.006,0.013
0.56,0.77,3.07,-1.65,-1.39,3.11,0.0,0.0,0.0,0.058,-1.41,-16.26,16.7,7.03,-16.26,17.31,2.72,-16.88,16.7,-10.2,-16.44,12.57,-1.85,-16.96,14.24,13.01,4.48,-1.67,2.34,-22.5,22.68,5.67,-22.59,22.59,7.68,-22.41,22.85,-4.41,-22.59,16.59,-6.08,-22.5,19.5,17.6,7.87,-7.58,0.0667,-0.0837,-0.0595,0.162,-0.2031,-0.2105,0.3293,-1.0,0.4051,0.0131,0.0297,-0.3424,-0.1739,-0.3221,0.3542,0.5996,0.5976,-0.8538,0.006,0.026,0.013,0.0,0.026,0.013,0.006,0.019,0.019,0.006,0.026,0.013,0.013,0.026,0.013,0.013,0.006,0.013
0.6,0.77,3.09,0.89,0.52,-4.26,0.0,0.0,0.0,0.058,0.26,-17.75,18.11,6.68,-17.67,18.63,2.2,-18.28,18.19,-9.23,-17.84,13.71,-2.55,-18.37,15.64,14.33,5.54,-3.08,0.93,-24.0,24.18,5.21,-24.09,24.09,9.18,-23.91,24.35,-2.91,-24.09,18.09,-4.58,-24.0,21.0,19.1,6.37,-9.08,0.0265,-0.0999,-0.0515,0.149,-0.1204,-0.2833,0.2779,-1.0,0.394,0.0672,0.0056,-0.4026,-0.0802,-0.396,0.2681,0.5726,0.4404,-0.9554,0.006,0.026,0.013,0.0,0.026,0.013,0.006,0.019,0.019,0.006,0.026,0.013,0.013,0.026,0.013,0.013,0.006,0.013
0.64,0.73,3.05,-1.54,-0.89,1.44,0.0,0.0,0.0,0.058,0.0,-19.07,19.51,6.33,-19.16,20.13,2.2,-19.69,19.6,-8.26,-19.34,15.12,-3.43,-19.78,17.05,15.73,6.5,-4.48,-0.06,-25.5,25.68,3.71,-25.59,25.59,10.68,-25.41,25.85,-3.12,-25.25,19.59,-3.08,-25.5,22.5,19.36,6.34,-7.58,-0.0017,-0.1225,-0.0467,0.0801,-0.1505,-0.2547,0.3168,-1.0,0.329,-0.0892,-0.0046,-0.3576,0.0593,-0.2824,0.3744,0.5531,0.5698,-0.7637,0.045,0.026,0.013,0.013,0.026,0.006,0.006,0.026,0.019,0.019,0.026,0.006,0.006,0.033,0.006,0.013,0.0,0.013
0.68,0.72,3.09,0.69,0.6,1.62,0.0,0.0,0.0,0.058,0.79,-20.57,20.92,5.54,-20.57,21.62,2.2,-21.09,20.92,-7.12,-20.65,16.44,-4.22,-21.18,18.46,16.96,7.21,-5.89,-0.74,-27.0,27.18,2.21,-27.09,27.09,9.18,-26.91,27.35,-1.62,-26.75,21.09,-1.58,-27.0,24.0,18.68,4.84,-9.08,-0.0213,-0.1411,-0.0285,0.0568,-0.1059,-0.3179,0.1972,-1.0,0.3821,-0.0361,-0.0551,-0.4284,0.102,-0.3487,0.3064,0.5337,0.4812,-0.9189,0.045,0.026,0.013,0.013,0.026,0.006,0.006,0.026,0.019,0.019,0.026,0.006,0.006,0.033,0.006,0.013,0.0,0.013
0.72,0.75,3.09,0.95,0.51,-4.0,0.0,0.0,0.0,0.058,1.05,-21.88,22.41,4.66,-21.97,23.03,2.72,-22.59,22.32,-5.54,-22.15,17.75,-4.48,-22.68,19.95,17.93,7.65,-7.03,-1.09,-28.5,28.68,1.02,-28.59,28.59,7.68,-28.41,28.85,-2.94,-28.25,22.59,-0.08,-28.5,25.5,19.92,6.34,-7.58,-0.0311,-0.1807,-0.0498,0.0293,-0.1293,-0.3217,0.1798,-1.0,0.3916,-0.084,-0.0941,-0.404,0.2386,-0.2689,0.2918,0.5691,0.5853,-0.7444,0.045,0.026,0.013,0.013,0.026,0.006,0.006,0.026,0.019,0.019,0.026,0.006,0.006,0.033,0.006,0.013,0.0,0.013
0.76,0.66,3.01,-1.62,-1.1,0.61,0.0,0.0,0.0,0.058,-0.09,-23.38,23.82,3.78,-23.38,24.43,4.04,-23.99,23.82,-4.31,-23.55,19.25,-4.48,-24.08,21.36,18.81,7.65,-7.91,-1.02,-30.0,30.18,-0.48,-30.09,30.09,6.18,-29.91,30.35,-3.41,-26.75,24.09,1.42,-30.0,27.0,21.24,7.84,-6.08,-0.0292,-0.2141,-0.0895,-0.0801,-0.1522,-0.332,0.1732,-1.0,0.4315,-0.0974,-0.0014,-0.3025,0.2162,-0.2605,0.3513,0.6067,0.6319,-0.7735,0.0,0.019,0.013,0.006,0.033,0.013,0.013,0.033,0.013,0.013,0.013,0.006,0.013,0.026,0.006,0.013,0.013,0.006
0.8,0.73,3.07,1.86,1.52,-1.4,0.0,0.0,0.0,0.058,0.18,-24.79,25.22,2.02,-24.79,25.84,5.1,-25.4,25.22,-3.25,-24.87,20.65,-3.96,-25.49,22.76,19.69,7.56,-8.53,0.48,-31.5,31.68,-0.84,-28.59,31.59,4.68,-31.41,31.85,-1.91,-25.25,25.59,2.92,-31.5,28.5,22.25,6.34,-7.58,0.0158,-0.2047,-0.0268,-0.0239,-0.0098,-0.344,0.1087,-1.0,0.5016,0.0365,-0.0021,-0.3615,0.1663,-0.3337,0.305,0.6357,0.5627,-0.8624,0.0,0.019,0.013,0.006,0.033,0.013,0.013,0.033,0.013,0.013,0.013,0.006,0.013,0.026,0.006,0.013,0.013,0.006
0.84,0.62,3.02,-2.13,-1.59,2.06,0.0,0.0,0.0,0.058,-1.41,-26.19,26.63,1.41,-26.19,27.25,6.06,-26.81,26.63,-2.55,-25.93,22.06,-3.08,-26.89,24.26,20.65,7.47,-8.79,1.26,-33.0,33.18,-1.99,-30.09,33.09,5.21,-32.91,33.35,-0.41,-25.58,27.09,4.42,-33.0,30.0,23.44,7.84,-6.08,0.0359,-0.2765,0.0414,-0.0568,-0.1594,-0.3469,0.1488,-1.0,0.5854,0.0348,-0.0106,-0.3445,0.2894,-0.1781,0.3349,0.6698,0.752,-0.7106,0.0,0.019,0.013,0.006,0.033,0.013,0.013,0.033,0.013,0.013,0.013,0.006,0.013,0.026,0.006,0.013,0.013,0.006
0.88,0.67,3.03,1.99,1.9,-2.5,0.0,0.0,0.0,0.058,-0.97,-27.69,27.95,0.53,-27.42,28.65,6.68,-28.21,28.04,-1.85,-26.72,23.47,-2.02,-28.3,25.66,21.62,7.47,-8.79,-0.24,-34.5,34.68,-3.49,-28.59,31.59,3.71,-34.41,34.85,1.09,-24.08,28.59,5.92,-34.5,31.5,22.4,9.34,-7.58,-0.0283,-0.2626,0.0954,-0.1949,0.0216,-0.4182,0.0982,-1.0,0.6065,0.1497,0.0286,-0.3194,0.2713,-0.3284,0.3735,0.64,0.6484,-0.9344,0.006,0.019,0.013,0.006,0.019,0.013,0.0,0.026,0.013,0.019,0.006,0.006,0.019,0.019,0.013,0.013,0.006,0.013
0.92,0.67,2.96,-0.51,-0.48,0.73,0.0,0.0,0.0,0.058,-0.35,-29.0,29.53,-1.41,-28.39,30.06,7.03,-29.53,29.44,-0.88,-27.25,24.87,-0.53,-29.71,27.07,22.5,7.56,-8.35,0.39,-36.0,36.18,-4.99,-30.09,30.91,4.56,-35.91,36.35,2.59,-25.58,27.36,7.42,-36.0,33.0,22.09,10.84,-6.46,0.0112,-0.3232,0.1219,-0.1553,-0.0982,-0.401,0.1304,-1.0,0.6793,0.2012,-0.0271,-0.4429,0.3079,-0.2319,0.4173,0.6312,0.7688,-0.8407,0.006,0.019,0.013,0.006,0.019,0.013,0.0,0.026,0.013,0.019,0.006,0.006,0.019,0.019,0.013,0.013,0.006,0.013
0.96,0.59,2.92,-1.48,-0.99,2.18,0.0,0.0,0.0,0.058,-0.62,-30.41,30.85,-1.76,-29.09,30.94,7.03,-31.11,30.85,0.26,-27.42,26.1,0.88,-31.2,28.48,23.12,8.09,-7.82,-1.11,-37.5,37.68,-6.49,-28.59,29.41,5.85,-37.41,37.85,4.09,-25.54,28.86,8.92,-37.5,34.5,23.59,10.97,-7.96,-0.0703,-0.3944,-0.0046,-0.3074,0.0075,-0.4891,0.1671,-1.0,0.6375,0.156,-0.0099,-0.4082,0.3751,-0.3315,0.3695,0.7184,0.6539,-1.0,0.006,0.019,0.013,0.006,0.019,0.013,0.0,0.026,0.013,0.019,0.006,0.006,0.019,0.019,0.013,0.013,0.006,0.013
1.0,0.63,2.96,1.7,1.53,-2.78,0.0,0.0,0.0,0.058,0.7,-31.9,32.34,-2.99,-29.44,31.64,6.86,-32.52,32.26,1.32,-27.33,27.33,2.2,-32.61,29.97,23.29,9.05,-7.21,-2.41,-39.0,39.18,-7.99,-27.09,27.91,4.35,-38.91,39.35,5.59,-27.04,27.36,10.42,-39.0,36.0,25.09,9.47,-9.46,-0.0689,-0.3992,0.111,-0.2845,0.0822,-0.5084,0.1127,-1.0,0.5923,0.2593,-0.0871,-0.5212,0.3904,-0.3621,0.3799,0.7345,0.5415,-1.0,0.033,0.026,0.006,0.006,0.006,0.006,0.013,0.033,0.019,0.019,0.006,0.0,0.013,0.019,0.013,0.019,0.0,0.0
1.04,0.55,2.93,-1.22,-1.09,4.27,0.0,0.0,0.0,0.058,-0.18,-33.22,33.75,-5.01,-29.53,31.99,6.06,-33.84,33.66,2.81,-26.81,28.04,3.69,-34.01,31.29,23.64,9.93,-7.03,-3.32,-40.5,40.68,-9.49,-27.22,26.41,5.85,-40.41,40.85,4.23,-28.54,25.86,11.92,-40.5,37.5,26.59,7.97,-10.96,-0.0948,-0.4293,0.0297,-0.3818,-0.0404,-0.5387,0.2448,-1.0,0.5004,0.1208,-0.1282,-0.5526,0.5161,-0.3076,0.4029,0.8046,0.5424,-1.0,0.033,0.026,0.006,0.006,0.006,0.006,0.013,0.033,0.019,0.019,0.006,0.0,0.013,0.019,0.013,0.019,0.0,0.0
1.08,0.52,2.97,0.25,0.58,-2.1,0.0,0.0,0.0,0.058,-0.53,-34.72,35.07,-5.36,-29.36,31.99,5.27,-35.33,35.07,3.87,-26.63,28.65,5.01,-35.33,32.78,24.26,10.46,-7.03,-3.15,-42.0,42.18,-10.99,-25.72,24.91,7.35,-41.91,42.35,5.73,-30.04,24.36,13.42,-42.0,39.0,28.09,6.47,-12.46,-0.0901,-0.4329,-0.034,-0.3491,0.0858,-0.5271,0.2522,-1.0,0.4569,0.2683,-0.177,-0.5802,0.4066,-0.4769,0.4008,0.818,0.39,-1.0,0.033,0.026,0.006,0.006,0.006,0.006,0.013,0.033,0.019,0.019,0.006,0.0,0.013,0.019,0.013,0.019,0.0,0.0
1.12,0.57,2.94,1.5,0.78,-0.78,0.0,0.0,0.0,0.058,-1.05,-36.12,36.56,-7.21,-28.56,31.55,4.75,-36.74,36.47,4.75,-26.63,28.65,6.42,-36.83,34.19,25.14,10.72,-7.65,-2.46,-43.5,43.68,-10.61,-27.22,23.41,8.85,-43.41,43.85,7.23,-30.89,22.86,14.92,-42.88,40.5,28.5,4.97,-13.96,-0.0703,-0.4025,0.1438,-0.3032,-0.0789,-0.4951,0.3046,-1.0,0.4243,0.2809,-0.1071,-0.5729,0.4882,-0.3252,0.4044,0.8143,0.515,-1.0,0.0,0.026,0.013,0.0,0.006,0.013,0.0,0.033,0.019,0.013,0.013,0.006,0.013,0.019,0.013,0.013,0.0,0.013
1.16,0.49,2.88,-1.34,-1.03,2.77,0.0,0.0,0.0,0.058,-2.55,-37.53,37.97,-8.88,-27.77,30.59,4.57,-38.14,37.88,5.54,-27.16,28.65,7.91,-38.23,35.6,26.28,10.72,-8.53,-2.24,-45.0,45.18,-10.8,-28.72,24.91,10.35,-44.91,45.35,8.73,-29.39,21.36,13.42,-41.53,42.0,27.0,6.47,-15.46,-0.064,-0.4479,-0.0324,-0.3087,-0.2123,-0.4561,0.4054,-1.0,0.5036,0.3225,-0.0395,-0.5423,0.3408,-0.3005,0.5583,0.6929,0.6246,-1.0,0.0,0.026,0.013,0.0,0.006,0.013,0.0,0.033,0.019,0.013,0.013,0.006,0.013,0.019,0.013,0.013,0.0,0.013
1.2,0.52,2.9,1.25,0.92,-2.37,0.0,0.0,0.0,0.058,-2.2,-39.02,39.38,-9.14,-27.07,29.53,4.57,-39.55,39.29,6.5,-27.95,27.69,9.32,-39.64,37.0,27.25,10.37,-9.67,-0.74,-44.91,46.68,-9.3,-30.22,26.41,11.85,-46.41,46.85,10.23,-27.89,22.86,11.92,-43.02,43.5,25.5,7.97,-16.96,0.0011,-0.362,-0.0443,-0.2442,-0.1232,-0.4409,0.3816,-1.0,0.5838,0.4784,0.1322,-0.4389,0.1765,-0.3277,0.476,0.6819,0.6023,-1.0,0.0,0.026,0.013,0.0,0.006,0.013,0.0,0.033,0.019,0.013,0.013,0.006,0.013,0.019,0.013,0.013,0.0,0.013
1.24,0.52,2.87,-0.26,0.68,2.99,0.0,0.0,0.0,0.058,-3.34,-40.34,40.78,-10.02,-26.72,28.39,4.75,-40.96,40.78,7.65,-28.56,26.72,10.55,-40.78,38.5,27.95,9.67,-11.07,-0.02,-43.82,48.18,-7.8,-31.72,27.91,13.35,-47.91,48.35,11.73,-26.39,24.36,10.42,-41.52,45.0,24.0,9.47,-15.46,-0.0005,-0.3422,0.0478,-0.1646,-0.2452,-0.3708,0.4579,-1.0,0.6447,0.4195,0.2327,-0.3299,0.1739,-0.1473,0.6023,0.5486,0.787,-0.7671,0.033,0.026,0.006,0.0,0.006,0.006,0.019,0.026,0.019,0.026,0.013,0.013,0.013,0.013,0.013,0.006,0.019,0.019
1.28,0.54,2.86,1.56,1.89,-0.62,0.0,0.0,0.0,0.058,-2.46,-41.57,42.28,-11.16,-26.72,27.42,5.98,-42.36,42.1,8.88,-28.92,25.66,11.51,-41.66,39.9,28.21,8.96,-12.39,0.99,-42.32,49.68,-6.3,-33.22,29.41,14.85,-49.41,49.85,13.23,-24.89,25.86,8.92,-40.02,46.5,22.5,10.97,-13.96,0.0282,-0.2761,0.0808,-0.1111,-0.1779,-0.4013,0.4306,-1.0,0.7659,0.5404,0.2972,-0.2952,0.0892,-0.2009,0.6385,0.4126,0.8753,-0.6361,0.033,0.026,0.006,0.0,0.006,0.006,0.019,0.026,0.019,0.026,0.013,0.013,0.013,0.013,0.013,0.006,0.019,0.019
1.32,0.55,2.86,-0.41,-0.26,-0.64,0.0,0.0,0.0,0.058,-1.85,-42.63,43.68,-10.63,-26.81,26.81,7.29,-43.77,43.59,10.02,-28.92,24.96,12.22,-42.28,41.31,28.12,8.61,-13.54,2.08,-40.82,51.18,-4.8,-32.22,30.66,15.01,-50.91,51.35,14.73,-23.39,27.36,7.42,-38.52,48.0,21.0,12.47,-12.46,0.0593,-0.271,0.0171,-0.1175,-0.1313,-0.404,0.4289,-1.0,0.8289,0.4496,0.3651,-0.2338,0.0912,-0.1696,0.6346,0.3887,0.9249,-0.4793,0.033,0.026,0.006,0.0,0.006,0.006,0.019,0.026,0.019,0.026,0.013,0.013,0.013,0.013,0.013,0.006,0.019,0.019
1.36,0.5,2.79,-0.68,0.19,1.11,0.0,0.0,0.0,0.058,-1.23,-43.42,45.0,-10.11,-27.6,26.54,8.7,-45.26,45.0,11.51,-28.56,24.43,12.66,-42.63,42.8,27.6,8.61,-14.41,0.58,-39.32,52.68,-6.09,-30.72,29.16,13.51,-52.41,52.85,13.23,-21.89,28.86,5.92,-37.94,49.5,19.5,13.97,-10.96,-0.005,-0.241,0.0839,-0.174,0.036,-0.5079,0.3517,-1.0,0.7758,0.3771,0.3627,-0.2687,0.1546,-0.2353,0.624,0.414,0.8274,-0.5844,0.006,0.013,0.013,0.019,0.019,0.0,0.013,0.026,0.013,0.019,0.0,0.006,0.006,0.006,0.013,0.006,0.0,0.006
1.4,0.56,2.87,2.2,1.94,0.35,0.0,0.0,0.0,0.058,0.44,-43.95,46.49,-10.37,-28.56,26.63,10.02,-46.67,46.41,12.66,-27.69,24.43,12.66,-42.36,44.21,26.72,8.79,-15.03,-0.92,-40.82,54.18,-7.35,-29.22,27.66,12.01,-53.91,54.35,12.74,-20.39,30.36,7.42,-39.44,51.0,18.0,15.47,-9.46,-0.0343,-0.3117,0.1462,-0.2101,0.1834,-0.5377,0.2975,-1.0,0.7245,0.364,0.262,-0.4022,0.242,-0.3417,0.606,0.4136,0.7673,-0.5761,0.006,0.013,0.013,0.019,0.019,0.0,0.013,0.026,0.013,0.019,0.0,0.006,0.006,0.006,0.013,0.006,0.0,0.006
1.44,0.46,2.78,-2.41,-1.74,-0.21,0.0,0.0,0.0,0.058,0.09,-44.03,47.9,-8.53,-29.44,27.07,11.16,-48.08,47.81,13.54,-26.63,24.7,12.22,-42.01,45.62,25.58,9.49,-15.21,-2.11,-42.32,55.68,-8.85,-27.72,26.16,10.51,-55.41,55.85,11.24,-20.14,28.86,8.92,-40.94,52.5,18.74,15.21,-7.96,-0.0604,-0.3876,0.0819,-0.3429,0.2087,-0.6171,0.2703,-1.0,0.6719,0.2346,0.0883,-0.5366,0.446,-0.4129,0.4912,0.5354,0.7311,-0.6698,0.006,0.013,0.013,0.019,0.019,0.0,0.013,0.026,0.013,0.019,0.0,0.006,0.006,0.006,0.013,0.006,0.0,0.006
1.48,0.48,2.74,1.1,0.95,-1.7,0.0,0.0,0.0,0.058,1.58,-44.03,49.31,-7.73,-29.97,27.6,12.13,-49.48,49.22,14.15,-25.31,25.75,11.43,-41.48,47.11,24.17,10.46,-15.12,-3.61,-43.82,57.18,-10.35,-26.22,24.66,9.01,-56.91,57.35,9.74,-21.64,27.36,10.42,-42.44,54.0,20.24,13.71,-9.46,-0.1684,-0.4074,0.1089,-0.517,0.4457,-0.6536,0.1493,-1.0,0.4901,0.2044,0.0426,-0.6039,0.5649,-0.6736,0.3372,0.6666,0.5012,-0.9807,0.039,0.0,0.006,0.013,0.013,0.0,0.006,0.019,0.013,0.006,0.0,0.006,0.006,0.0,0.006,0.006,0.006,0.006
1.52,0.44,2.74,-1.28,-1.24,3.98,0.0,0.0,0.0,0.058,0.62,-43.68,50.71,-8.0,-30.15,27.51,12.83,-50.89,50.71,14.5,-23.99,26.46,10.63,-41.04,48.52,22.85,11.6,-14.5,-5.11,-45.32,58.68,-11.85,-24.72,23.16,7.51,-58.41,58.85,8.24,-23.14,25.86,11.92,-43.94,55.5,21.74,12.21,-10.96,-0.1604,-0.5105,-0.0258,-0.5104,0.3309,-0.6409,0.1357,-1.0,0.3884,0.1015,-0.1813,-0.9073,0.7024,-0.6962,0.2063,0.7794,0.4489,-1.0,0.039,0.0,0.006,0.013,0.013,0.0,0.006,0.019,0.013,0.006,0.0,0.006,0.006,0.0,0.006,0.006,0.006,0.006
1.56,0.46,2.78,1.03,1.06,-0.94,0.0,0.0,0.0,0.058,0.44,-43.59,52.12,-7.21,-30.15,26.81,13.1,-52.21,52.12,14.33,-22.85,27.07,10.2,-41.04,49.92,21.62,12.57,-13.62,-6.4,-46.82,57.18,-13.35,-23.22,21.66,6.01,-59.91,60.35,6.74,-24.64,24.36,13.42,-45.44,57.0,23.24,10.71,-12.46,-0.1829,-0.5216,-0.1359,-0.6892,0.4318,-0.6584,0.1103,-1.0,0.2529,0.0832,-0.2485,-0.8846,0.8354,-0.8375,0.0437,0.9278,0.3011,-1.0,0.039,0.0,0.006,0.013,0.013,0.0,0.006,0.019,0.013,0.006,0.0,0.006,0.006,0.0,0.006,0.006,0.006,0.006
1.6,0.44,2.71,-0.67,-0.4,-2.93,0.0,0.0,0.0,0.058,-0.35,-43.59,53.61,-7.12,-29.88,25.93,13.1,-53.61,53.53,13.97,-22.15,27.16,10.11,-41.57,51.33,20.92,13.27,-12.66,-6.05,-48.32,55.68,-14.85,-21.72,20.16,5.18,-61.41,61.85,5.24,-26.14,22.86,14.92,-46.94,58.5,24.74,9.21,-13.96,-0.1728,-0.4917,-0.1714,-0.6517,0.3423,-0.6104,0.1481,-1.0,0.1855,0.0851,-0.2558,-0.9598,0.8204,-0.8061,0.0215,0.9486,0.2985,-1.0,0.006,0.019,0.006,0.006,0.013,0.019,0.013,0.058,0.019,0.019,0.0,0.006,0.006,0.019,0.013,0.006,0.006,0.0
1.64,0.4,2.72,-0.09,-0.26,5.78,0.0,0.0,0.0,0.058,-1.85,-43.95,54.76,-8.09,-28.92,24.79,13.1,-55.02,54.84,12.92,-21.62,27.16,10.28,-42.19,52.73,20.39,13.62,-11.87,-6.19,-49.82,54.18,-16.35,-20.22,18.66,6.68,-62.91,63.35,4.46,-27.64,21.36,16.42,-48.44,60.0,26.24,7.71,-15.46,-0.1767,-0.4998,-0.1908,-0.6882,0.3407,-0.5662,0.2124,-1.0,0.1761,0.1276,-0.127,-0.8972,0.7362,-0.7798,0.0882,0.904,0.3147,-1.0,0.006,0.019,0.006,0.006,0.013,0.019,0.013,0.058,0.019,0.019,0.0,0.006,0.006,0.019,0.013,0.006,0.006,0.0
1.68,0.39,2.78,1.08,0.94,-3.49,0.0,0.0,0.0,0.058,-2.64,-44.82,55.81,-9.05,-27.77,23.38,12.04,-56.43,56.25,11.87,-21.53,26.19,11.07,-43.15,54.14,20.21,13.62,-11.34,-4.69,-49.76,52.68,-17.85,-18.72,17.16,8.18,-64.41,64.85,5.96,-29.14,19.86,17.92,-49.94,61.5,27.74,6.21,-16.96,-0.0713,-0.4502,-0.1874,-0.5831,0.223,-0.5935,0.2345,-1.0,0.2766,0.2545,-0.1009,-0.8988,0.6587,-0.6497,0.1083,0.894,0.3635,-1.0,0.006,0.019,0.006,0.006,0.013,0.019,0.013,0.058,0.019,0.019,0.0,0.006,0.006,0.019,0.013,0.006,0.006,0.0
1.72,0.3,2.76,-1.22,-0.97,2.77,0.0,0.0,0.0,0.058,-4.57,-45.97,56.51,-10.28,-26.37,21.88,10.9,-57.83,57.66,10.46,-21.62,25.31,12.04,-44.47,55.63,20.57,13.36,-11.25,-3.19,-48.26,54.18,-19.35,-17.22,18.66,9.68,-65.91,66.35,7.46,-27.64,18.36,17.24,-51.44,63.0,28.73,4.71,-18.46,-0.0622,-0.3892,-0.1088,-0.5809,0.1543,-0.5295,0.3721,-1.0,0.347,0.3148,0.1452,-0.6282,0.4926,-0.5467,0.2812,0.8209,0.52,-1.0,0.019,0.026,0.0,0.013,0.006,0.013,0.006,0.033,0.013,0.013,0.019,0.019,0.019,0.033,0.013,0.006,0.026,0.0
1.76,0.36,2.75,1.31,0.74,-1.75,0.0,0.0,0.0,0.058,-4.48,-47.11,56.87,-11.69,-25.05,20.65,9.84,-59.24,59.15,9.05,-22.32,24.08,13.27,-45.88,57.04,21.45,12.66,-11.43,-1.69,-46.76,55.68,-17.85,-18.72,20.16,11.18,-67.41,67.85,8.96,-26.14,16.86,15.74,-50.7,64.5,27.23,6.21,-19.96,0.0079,-0.3276,-0.014,-0.3683,0.0951,-0.5258,0.4068,-1.0,0.5171,0.5363,0.2549,-0.638,0.2562,-0.4672,0.4059,0.6522,0.5884,-1.0,0.019,0.026,0.0,0.013,0.006,0.013,0.006,0.033,0.013,0.013,0.019,0.019,0.019,0.033,0.013,0.006,0.026,0.0
1.8,0.36,2.73,-0.68,-0.53,1.54,0.0,0.0,0.0,0.058,-6.24,-48.08,56.87,-13.1,-23.64,19.6,9.14,-60.73,60.56,8.17,-23.29,22.59,14.68,-47.2,58.45,22.24,11.69,-12.13,-0.19,-45.26,57.18,-16.35,-20.22,21.66,12.68,-68.91,69.35,10.46,-24.64,18.36,14.24,-49.2,66.0,25.73,7.71,-20.0,0.0306,-0.3133,0.0954,-0.3411,-0.032,-0.498,0.4792,-1.0,0.6296,0.5763,0.4232,-0.4424,0.2145,-0.2577,0.5117,0.5528,0.8062,-1.0,0.019,0.026,0.0,0.013,0.006,0.013,0.006,0.033,0.013,0.013,0.019,0.019,0.019,0.033,0.013,0.006,0.026,0.0
1.84,0.39,2.71,0.67,0.71,-1.68,0.0,0.0,0.0,0.058,-5.8,-48.87,56.87,-14.41,-22.32,18.98,8.53,-62.14,61.96,7.38,-24.26,21.27,15.73,-48.34,59.85,23.55,10.55,-13.1,1.31,-43.76,58.68,-14.85,-21.72,23.16,14.18,-70.41,70.85,11.96,-23.14,19.86,12.74,-47.7,67.5,24.23,9.21,-18.5,0.0668,-0.2868,0.185,-0.2477,-0.0317,-0.4824,0.4611,-1.0,0.7991,0.7193,0.5518,-0.3333,0.0324,-0.2569,0.6107,0.4021,0.8926,-0.9496,0.0,0.013,0.0,0.006,0.006,0.006,0.0,0.039,0.019,0.0,0.019,0.013,0.006,0.045,0.013,0.0,0.019,0.019
1.88,0.36,2.72,-0.78,-0.24,1.32,0.0,0.0,0.0,0.058,-6.06,-49.13,56.78,-15.47,-21.18,18.54,8.44,-63.63,63.37,7.12,-25.05,20.13,16.52,-49.22,61.35,24.52,9.58,-14.33,2.81,-42.26,60.18,-13.35,-23.22,22.7,15.68,-71.91,72.35,13.46,-21.64,21.36,11.24,-46.2,69.0,22.73,10.71,-17.0,0.0855,-0.2749,0.1953,-0.1916,-0.1189,-0.4977,0.4774,-1.0,0.8964,0.6843,0.6432,-0.2842,0.0181,-0.1505,0.6563,0.3018,1.0,-0.716,0.0,0.013,0.0,0.006,0.006,0.006,0.0,0.039,0.019,0.0,0.019,0.013,0.006,0.045,0.013,0.0,0.019,0.019
1.92,0.39,2.73,0.79,0.88,-0.08,0.0,0.0,0.0,0.058,-5.45,-49.22,57.13,-16.26,-20.48,18.72,8.44,-65.13,64.78,7.03,-25.58,19.16,16.96,-49.83,62.75,25.14,8.79,-15.56,2.8,-40.76,61.68,-11.85,-24.72,21.2,15.77,-73.41,73.85,14.96,-20.14,22.86,9.74,-44.7,70.5,21.23,12.21,-15.5,0.0801,-0.2245,0.1914,-0.1863,-0.0329,-0.5619,0.4507,-1.0,0.9069,0.6579,0.7149,-0.2477,0.0335,-0.1651,0.6899,0.2585,1.0,-0.6754,0.0,0.013,0.0,0.006,0.006,0.006,0.0,0.039,0.019,0.0,0.019,0.013,0.006,0.045,0.013,0.0,0.019,0.019
1.96,0.43,2.76,1.34,0.86,0.18,0.0,0.0,0.0,0.058,-4.22,-49.04,58.01,-16.79,-19.86,18.98,9.05,-66.53,66.18,7.29,-25.75,18.63,16.96,-50.1,64.16,25.49,8.44,-16.61,2.78,-39.26,63.18,-10.35,-26.22,19.7,16.02,-74.91,75.35,16.46,-18.64,24.36,8.24,-43.2,72.0,19.73,13.71,-14.0,0.0794,-0.2522,0.1538,-0.1695,-0.028,-0.6227,0.4578,-1.0,0.8952,0.5583,0.6949,-0.3244,0.0838,-0.148,0.7112,0.2612,1.0,-0.5745,0.033,0.006,0.013,0.0,0.0,0.006,0.006,0.019,0.013,0.013,0.006,0.006,0.006,0.013,0.006,0.0,0.006,0.013
2.0,0.31,2.68,-2.13,-1.55,-0.16,0.0,0.0,0.0,0.058,-3.87,-48.34,59.06,-16.96,-19.78,19.69,10.11,-68.03,67.59,8.35,-25.58,18.46,16.79,-50.1,65.65,25.49,8.35,-17.49,1.89,-39.43,64.68,-8.87,-24.72,18.2,16.3,-76.41,76.85,14.96,-17.14,25.86,7.73,-41.7,73.5,18.23,15.21,-12.5,0.0539,-0.2625,0.0237,-0.2533,0.0433,-0.7397,0.4657,-1.0,0.799,0.4001,0.6378,-0.4044,0.2208,-0.1914,0.6916,0.3605,1.0,-0.6254,0.033,0.006,0.013,0.0,0.0,0.006,0.006,0.019,0.013,0.013,0.006,0.006,0.006,0.013,0.006,0.0,0.006,0.013
2.04,0.36,2.69,1.04,0.71,-0.33,0.0,0.0,0.0,0.058,-1.49,-47.11,60.29,-16.88,-19.78,19.69,11.34,-69.43,68.99,9.32,-24.87,18.63,15.91,-49.57,67.06,24.96,8.53,-18.02,0.84,-40.93,63.18,-10.37,-23.22,16.7,14.8,-77.83,78.35,13.46,-15.64,24.36,9.23,-43.2,75.0,16.73,16.71,-11.0,0.024,-0.3077,-0.0727,-0.3245,0.2542,-0.7621,0.4192,-0.9605,0.6763,0.3279,0.5967,-0.4971,0.2657,-0.3983,0.5997,0.4765,0.8407,-0.8008,0.033,0.006,0.013,0.0,0.0,0.006,0.006,0.019,0.013,0.013,0.006,0.006,0.006,0.013,0.006,0.0,0.006,0.013
2.08,0.3,2.67,-0.92,-0.47,1.3,0.0,0.0,0.0,0.058,-1.14,-45.7,61.61,-16.52,-20.3,19.6,12.66,-70.84,70.49,10.63,-23.99,19.34,14.94,-48.78,68.38,24.08,9.14,-18.19,0.85,-42.43,61.68,-11.87,-21.72,15.2,14.1,-79.33,79.85,11.96,-14.14,22.86,10.73,-44.7,76.5,18.23,18.21,-9.5,0.0243,-0.4037,-0.254,-0.3477,0.2608,-0.7907,0.4028,-1.0,0.5616,0.1712,0.3716,-0.761,0.4248,-0.4548,0.4434,0.6135,0.8192,-0.8682,0.045,0.013,0.0,0.019,0.026,0.019,0.013,0.019,0.013,0.013,0.013,0.006,0.026,0.019,0.013,0.006,0.006,0.0
2.12,0.33,2.68,0.37,0.75,-1.88,0.0,0.0,0.0,0.058,0.44,-44.74,62.67,-15.29,-21.18,18.63,13.71,-72.25,71.81,11.69,-22.68,20.3,13.62,-47.81,69.87,22.94,10.11,-18.19,-0.65,-43.93,60.18,-13.37,-20.22,13.7,12.6,-80.0,81.35,10.46,-12.64,21.36,12.23,-46.2,78.0,19.73,16.71,-11.0,-0.0377,-0.4113,-0.3452,-0.5232,0.4485,-0.767,0.3233,-1.0,0.407,0.1085,0.2468,-0.8334,0.5521,-0.6825,0.2469,0.7506,0.6346,-1.0,0.045,0.013,0.0,0.019,0.026,0.019,0.013,0.019,0.013,0.013,0.013,0.006,0.026,0.019,0.013,0.006,0.006,0.0
2.16,0.41,2.68,1.02,0.07,0.25,0.0,0.0,0.0,0.058,1.05,-43.33,63.63,-13.62,-21.71,17.67,14.59,-73.65,73.21,12.48,-21.36,21.36,12.48,-46.41,71.28,21.71,11.51,-17.4,-2.15,-45.43,58.68,-14.87,-18.72,12.2,11.1,-80.0,82.85,8.96,-14.14,19.86,13.73,-47.7,76.5,21.23,15.21,-12.5,-0.0916,-0.4411,-0.3986,-0.5368,0.535,-0.705,0.2809,-1.0,0.2962,0.0589,0.0659,-1.0,0.6316,-0.8115,0.0979,0.812,0.5345,-1.0,0.045,0.013,0.0,0.019,0.026,0.019,0.013,0.019,0.013,0.013,0.013,0.006,0.026,0.019,0.013,0.006,0.006,0.0
2.2,0.28,2.67,-1.88,-0.68,0.92,0.0,0.0,0.0,0.058,1.05,-42.71,63.98,-13.18,-21.97,16.52,15.03,-75.15,74.62,13.1,-19.95,22.06,11.6,-45.62,72.77,20.74,12.83,-16.44,-3.65,-46.93,57.18,-16.37,-17.22,10.7,9.6,-80.0,81.35,7.46,-15.64,18.36,15.23,-49.2,75.0,22.73,13.71,-14.0,-0.1302,-0.472,-0.4371,-0.6624,0.5415,-0.7092,0.21,-1.0,0.1574,0.0153,-0.0746,-1.0,0.812,-0.891,-0.0947,0.8981,0.4204,-1.0,0.019,0.0,0.0,0.013,0.0,0.019,0.0,0.019,0.019,0.006,0.0,0.0,0.0,0.013,0.006,0.0,0.006,0.013
2.24,0.38,2.74,2.62,1.2,0.33,0.0,0.0,0.0,0.058,1.76,-42.1,64.16,-12.92,-21.97,14.94,15.21,-76.55,76.11,13.18,-18.54,22.5,11.07,-45.18,74.0,20.04,13.89,-15.47,-5.15,-48.43,55.68,-17.87,-15.72,10.46,8.1,-80.0,79.85,5.96,-17.14,16.86,16.73,-50.7,73.5,24.23,12.21,-15.5,-0.1484,-0.4433,-0.419,-0.6858,0.6009,-0.6417,0.2309,-1.0,0.0997,0.0351,-0.1072,-1.0,0.8108,-1.0,-0.1976,0.9137,0.2776,-1.0,0.019,0.0,0.0,0.013,0.0,0.019,0.0,0.019,0.019,0.006,0.0,0.0,0.0,0.013,0.006,0.0,0.006,0.013
2.28,0.27,2.72,-2.3,-1.42,0.08,0.0,0.0,0.0,0.058,0.35,-42.01,63.98,-11.69,-21.71,13.54,15.12,-77.78,77.43,13.1,-17.4,22.5,10.81,-44.74,75.06,19.69,14.59,-14.68,-3.65,-49.8,54.18,-19.37,-14.22,11.38,8.47,-80.0,78.35,4.46,-18.64,15.36,18.23,-52.2,72.0,25.73,10.71,-17.0,-0.0973,-0.4509,-0.4145,-0.6652,0.4731,-0.6309,0.2419,-1.0,0.0788,0.0825,-0.1672,-1.0,0.8468,-0.9279,-0.198,0.9364,0.3272,-1.0,0.019,0.0,0.0,0.013,0.0,0.019,0.0,0.019,0.019,0.006,0.0,0.0,0.0,0.013,0.006,0.0,0.006,0.013
2.32,0.33,2.72,1.95,1.53,-0.45,0.0,0.0,0.0,0.071,0.44,-42.1,63.28,-11.95,-20.83,12.3,14.68,-78.75,78.66,12.3,-16.52,22.41,10.9,-45.0,75.76,19.69,15.21,-14.06,-4.53,-48.3,52.68,-20.87,-12.72,12.88,9.18,-80.0,76.85,5.15,-20.14,13.86,19.73,-53.7,70.5,27.23,9.21,-18.5,-0.1296,-0.3919,-0.2497,-0.6698,0.5369,-0.5817,0.2624,-1.0,0.0787,0.1472,-0.0656,-1.0,0.7774,-1.0,-0.1687,0.8524,0.299,-1.0,0.071,0.019,0.013,0.0,0.013,0.006,0.013,0.013,0.006,0.013,0.0,0.019,0.006,0.006,0.0,0.019,0.0,0.0
2.36,0.29,2.7,-1.52,-1.39,2.51,0.0,0.0,0.0,0.071,-1.32,-42.54,62.4,-12.57,-19.6,11.43,13.54,-79.45,79.45,11.34,-16.0,21.36,11.69,-45.44,76.03,20.21,15.29,-13.89,-3.03,-46.8,51.18,-20.2,-11.22,14.38,10.68,-80.0,76.98,6.65,-21.64,12.36,21.23,-55.2,69.0,28.33,7.71,-20.0,-0.0479,-0.3858,-0.2261,-0.5772,0.3397,-0.5783,0.3341,-1.0,0.1409,0.2109,-0.0034,-1.0,0.7238,-0.831,0.0048,0.8096,0.4063,-1.0,0.071,0.019,0.013,0.0,0.013,0.006,0.013,0.013,0.006,0.013,0.0,0.019,0.006,0.006,0.0,0.019,0.0,0.0
2.4,0.29,2.7,1.25,1.19,-2.14,0.0,0.0,0.0,0.071,-2.2,-43.51,61.08,-13.45,-18.28,10.81,12.39,-79.8,80.07,10.11,-15.82,20.39,12.48,-46.23,76.03,21.09,15.29,-13.97,-1.53,-45.3,52.68,-18.7,-9.72,15.88,12.18,-80.0,78.48,8.15,-20.14,10.86,20.08,-56.7,70.5,26.83,6.21,-20.0,-0.0402,-0.3383,-0.0616,-0.5241,0.3381,-0.5568,0.4039,-1.0,0.2364,0.3317,0.1807,-0.8571,0.5736,-0.8179,0.173,0.6938,0.4568,-1.0,0.071,0.019,0.013,0.0,0.013,0.006,0.013,0.013,0.006,0.013,0.0,0.019,0.006,0.006,0.0,0.019,0.0,0.0
2.44,0.37,2.72,1.44,0.39,0.06,0.0,0.0,0.0,0.071,-3.08,-44.47,59.77,-14.59,-16.88,10.55,11.43,-79.89,80.24,8.79,-15.82,19.07,13.71,-47.37,75.59,22.15,14.68,-14.59,-0.03,-43.8,54.18,-17.2,-11.22,17.38,13.68,-80.0,79.98,9.65,-18.64,9.36,18.58,-58.2,72.0,25.33,6.67,-20.0,0.0499,-0.2894,0.0968,-0.3883,0.1712,-0.5576,0.4931,-1.0,0.3776,0.4249,0.306,-0.7625,0.431,-0.6609,0.4198,0.5656,0.5757,-1.0,0.019,0.019,0.013,0.013,0.006,0.0,0.006,0.0,0.0,0.006,0.019,0.013,0.019,0.058,0.006,0.013,0.026,0.013
2.48,0.29,2.69,-1.49,-0.57,2.49,0.0,0.0,0.0,0.071,-4.04,-45.35,58.27,-15.82,-15.47,10.72,10.63,-79.8,80.24,7.82,-16.44,17.67,15.03,-48.78,74.62,23.38,13.8,-15.47,1.47,-42.3,55.68,-15.7,-12.72,16.02,15.18,-80.0,81.48,11.15,-17.14,7.86,17.08,-56.7,73.5,23.83,8.17,-19.21,0.0609,-0.2554,0.2188,-0.2869,0.0971,-0.5762,0.5549,-1.0,0.5186,0.5338,0.4114,-0.6789,0.3181,-0.5662,0.6258,0.4133,0.7179,-0.9907,0.019,0.019,0.013,0.013,0.006,0.0,0.006,0.0,0.0,0.006,0.019,0.013,0.019,0.058,0.006,0.013,0.026,0.013
2.52,0.35,2.77,2.31,1.01,-1.88,0.0,0.0,0.0,0.071,-3.87,-45.97,56.95,-16.88,-14.15,11.25,10.2,-79.8,80.16,7.12,-17.23,16.26,16.35,-50.1,73.74,24.35,12.57,-16.61,2.0,-40.8,57.18,-14.2,-14.22,17.16,16.68,-80.0,82.98,12.65,-15.64,9.36,15.58,-55.2,75.0,22.33,9.67,-17.71,0.0573,-0.222,0.3358,-0.1966,0.0742,-0.5628,0.5856,-1.0,0.6603,0.6183,0.5631,-0.5635,0.2292,-0.5266,0.7444,0.2642,0.7931,-0.7413,0.019,0.019,0.013,0.013,0.006,0.0,0.006,0.0,0.0,0.006,0.019,0.013,0.019,0.058,0.006,0.013,0.026,0.013
2.56,0.27,2.67,-1.76,-1.19,0.83,0.0,0.0,0.0,0.071,-4.39,-46.23,55.9,-17.75,-13.01,12.3,10.2,-79.8,80.16,6.77,-17.84,14.85,17.31,-51.42,73.04,24.96,11.25,-17.58,2.42,-39.3,58.68,-12.7,-15.72,15.66,18.18,-80.0,84.48,14.15,-14.14,10.86,14.08,-53.7,76.5,20.83,11.17,-16.21,0.0691,-0.2162,0.3495,-0.1182,-0.0715,-0.6069,0.6495,-1.0,0.769,0.5731,0.6439,-0.5073,0.2344,-0.3397,0.9259,0.1604,0.971,-0.4344,0.019,0.0,0.006,0.006,0.006,0.013,0.013,0.006,0.013,0.006,0.013,0.006,0.006,0.058,0.006,0.006,0.026,0.006
2.6,0.27,2.68,1.28,0.25,-1.86,0.0,0.0,0.0,0.071,-3.16,-46.23,55.11,-18.28,-12.22,13.36,10.2,-79.8,80.6,6.77,-18.19,13.45,17.84,-52.65,72.69,25.22,10.2,-18.37,0.96,-37.8,60.18,-11.2,-17.22,14.16,19.68,-80.0,85.98,15.65,-12.64,12.36,12.58,-52.2,78.0,19.33,12.67,-14.71,0.0273,-0.1399,0.3436,-0.1011,0.0838,-0.6995,0.6287,-1.0,0.8033,0.5279,0.7776,-0.4451,0.2365,-0.3949,0.9635,0.1313,0.9214,-0.4491,0.019,0.0,0.006,0.006,0.006,0.013,0.013,0.006,0.013,0.006,0.013,0.006,0.006,0.058,0.006,0.006,0.026,0.006
2.64,0.28,2.66,-0.92,-0.4,2.31,0.0,0.0,0.0,0.071,-2.72,-45.88,54.58,-18.46,-11.69,14.41,11.07,-79.8,81.47,7.38,-18.11,12.39,18.28,-53.53,72.77,25.22,9.4,-18.9,1.63,-36.3,61.68,-9.7,-18.72,12.66,21.18,-80.0,87.48,14.71,-11.14,13.86,11.08,-50.7,79.5,17.83,14.17,-13.21,0.0467,-0.1887,0.2938,-0.0265,0.0751,-0.7539,0.6617,-1.0,0.787,0.4203,0.7429,-0.5467,0.2703,-0.3237,1.0,0.1403,0.9862,-0.3156,0.019,0.0,0.006,0.006,0.006,0.013,0.013,0.006,0.013,0.006,0.013,0.006,0.006,0.058,0.006,0.006,0.026,0.006
2.68,0.33,2.69,1.5,1.53,-0.79,0.0,0.0,0.0,0.071,-1.49,-45.0,54.4,-18.37,-11.51,15.12,12.13,-79.8,82.62,8.17,-17.84,11.6,18.19,-54.14,73.39,24.61,8.96,-18.9,0.83,-34.8,63.18,-8.2,-17.22,11.16,21.51,-80.0,88.98,13.21,-9.64,15.36,12.58,-49.2,81.0,16.33,15.67,-11.71,0.0238,-0.1683,0.2524,-0.0941,0.2039,-0.853,0.6146,-1.0,0.7042,0.308,0.7112,-0.5725,0.4057,-0.3884,0.9187,0.2549,0.8974,-0.4741,0.0,0.013,0.006,0.013,0.0,0.0,0.019,0.006,0.019,0.026,0.006,0.006,0.013,0.019,0.006,0.0,0.006,0.0
2.72,0.38,2.66,0.47,0.03,-0.75,0.0,0.0,0.0,0.071,-0.09,-43.68,54.67,-17.84,-11.51,15.47,13.54,-79.8,84.02,9.23,-16.79,11.07,17.75,-54.67,74.27,23.73,8.79,-18.63,1.39,-36.3,64.68,-6.7,-15.72,9.66,21.33,-80.0,90.48,11.71,-8.14,13.86,14.08,-49.58,82.5,14.83,17.17,-10.21,0.0396,-0.2316,0.127,-0.1212,0.2655,-0.8605,0.6095,-1.0,0.5971,0.2335,0.601,-0.7112,0.4636,-0.4469,0.87,0.373,0.884,-0.5393,0.0,0.013,0.006,0.013,0.0,0.0,0.019,0.006,0.019,0.026,0.006,0.006,0.013,0.019,0.006,0.0,0.006,0.0
2.76,0.3,2.63,-1.3,-0.68,1.75,0.0,0.0,0.0,0.071,0.18,-42.36,55.28,-16.7,-12.04,15.47,14.94,-79.8,85.43,10.63,-15.73,10.99,16.88,-54.67,75.41,22.59,8.96,-18.02,0.62,-37.8,63.18,-7.54,-14.22,8.16,19.83,-80.0,91.98,10.21,-6.64,12.36,15.58,-51.08,84.0,16.33,17.15,-8.71,0.0176,-0.2645,-0.0214,-0.2153,0.3715,-0.8701,0.5514,-1.0,0.4618,0.121,0.4676,-0.8378,0.5769,-0.5512,0.7051,0.5322,0.7664,-0.8098,0.0,0.013,0.006,0.013,0.0,0.0,0.019,0.006,0.019,0.026,0.006,0.006,0.013,0.019,0.006,0.0,0.006,0.0
2.8,0.33,2.67,0.83,0.52,-1.49,0.0,0.0,0.0,0.071,1.58,-41.04,56.25,-15.38,-12.83,14.85,16.26,-79.8,86.84,11.6,-14.33,11.25,16.08,-54.23,76.82,21.18,9.49,-16.96,0.06,-39.3,61.68,-9.04,-12.72,6.66,18.33,-80.0,93.48,8.71,-8.14,10.86,17.08,-52.58,85.5,17.83,15.65,-10.21,0.0018,-0.2879,-0.1033,-0.2998,0.545,-0.8264,0.4733,-1.0,0.3542,0.1003,0.2981,-0.9974,0.6465,-0.7449,0.5063,0.6366,0.6664,-1.0,0.006,0.006,0.013,0.013,0.013,0.006,0.013,0.006,0.019,0.013,0.0,0.006,0.006,0.0,0.013,0.006,0.013,0.013
2.84,0.31,2.65,-0.64,-0.34,1.15,0.0,0.0,0.0,0.071,0.97,-39.81,57.48,-14.06,-13.36,14.06,17.49,-79.8,88.24,12.39,-12.92,11.87,15.56,-53.44,78.22,19.86,10.37,-15.73,-0.84,-40.8,60.18,-10.54,-11.22,5.16,16.83,-80.0,91.98,7.21,-9.64,9.36,18.58,-54.08,87.0,19.33,14.15,-11.71,-0.0239,-0.3372,-0.2526,-0.4243,0.5892,-0.7892,0.422,-1.0,0.2652,0.0238,0.1357,-1.0,0.7557,-0.8429,0.3215,0.7402,0.5918,-1.0,0.006,0.006,0.013,0.013,0.013,0.006,0.013,0.006,0.019,0.013,0.0,0.006,0.006,0.0,0.013,0.006,0.013,0.013
2.88,0.3,2.62,0.19,0.46,-1.66,0.0,0.0,0.0,0.071,1.23,-38.94,58.8,-12.83,-13.71,12.92,18.46,-79.8,89.56,12.83,-11.6,11.87,15.38,-52.91,79.72,18.9,11.6,-14.41,-1.74,-42.21,58.68,-12.04,-9.72,3.66,15.33,-80.0,90.48,5.71,-11.14,7.86,20.08,-55.58,85.5,20.83,12.65,-13.21,-0.0496,-0.3128,-0.3689,-0.5306,0.6636,-0.7876,0.3681,-1.0,0.1563,0.0352,0.0301,-1.0,0.8168,-0.9816,0.1009,0.8409,0.4194,-1.0,0.006,0.006,0.013,0.013,0.013,0.006,0.013,0.006,0.019,0.013,0.0,0.006,0.006,0.0,0.013,0.006,0.013,0.013
2.92,0.33,2.62,0.37,0.07,0.97,0.0,0.0,0.0,0.071,0.53,-38.23,59.94,-11.78,-13.71,11.6,19.07,-79.8,90.7,12.92,-10.46,11.16,15.64,-52.73,81.12,18.19,12.57,-13.27,-2.05,-42.68,57.18,-13.54,-8.22,2.23,14.66,-80.0,88.98,4.21,-12.64,6.36,21.58,-57.08,84.0,22.33,11.15,-14.71,-0.0585,-0.3214,-0.493,-0.5981,0.6369,-0.7384,0.419,-1.0,0.0612,0.0166,0.0197,-1.0,0.828,-1.0,-0.002,0.8895,0.3084,-1.0,0.0,0.0,0.0,0.0,0.0,0.013,0.006,0.006,0.006,0.006,0.0,0.006,0.006,0.006,0.006,0.006,0.0,0.006
2.96,0.29,2.55,-1.07,-0.84,0.08,0.0,0.0,0.0,0.071,-0.97,-38.06,60.73,-10.81,-13.36,10.2,19.42,-79.8,91.67,12.66,-9.58,10.37,16.35,-52.82,82.44,17.75,13.36,-12.39,-1.24,-42.35,55.68,-15.04,-6.72,3.73,15.87,-80.0,87.48,2.71,-14.14,4.86,23.08,-58.58,82.5,23.83,9.65,-16.21,-0.0354,-0.3154,-0.518,-0.6064,0.6113,-0.7129,0.4534,-1.0,0.0413,0.0762,0.0228,-1.0,0.7956,-0.9819,-0.0277,0.8919,0.2704,-1.0,0.0,0.0,0.0,0.0,0.0,0.013,0.006,0.006,0.006,0.006,0.0,0.006,0.006,0.006,0.006,0.006,0.0,0.006
3.0,0.33,2.57,0.92,0.71,-0.07,0.0,0.0,0.0,0.071,-0.7,-38.06,61.26,-10.11,-12.57,8.7,19.42,-79.8,92.29,11.87,-8.96,9.32,17.23,-53.44,83.41,17.84,13.89,-11.78,-0.44,-40.85,54.18,-16.54,-5.22,5.23,17.37,-80.0,85.98,4.21,-15.64,3.36,24.58,-60.08,81.0,25.33,8.15,-17.71,-0.0127,-0.2814,-0.4714,-0.6037,0.5756,-0.6837,0.5017,-1.0,0.0504,0.15,0.133,-1.0,0.7126,-0.9435,0.0178,0.877,0.246,-1.0,0.0,0.0,0.0,0.0,0.0,0.013,0.006,0.006,0.006,0.006,0.0,0.006,0.006,0.006,0.006,0.006,0.0,0.006
3.04,0.27,2.56,-1.32,-0.83,0.78,0.0,0.0,0.0,0.071,-2.29,-38.41,61.44,-9.49,-11.43,7.38,19.42,-79.8,92.46,10.9,-8.79,7.91,18.46,-54.14,84.11,18.37,13.89,-11.51,-0.04,-39.35,52.68,-18.04,-3.72,6.73,18.87,-80.0,84.48,5.71,-14.27,1.86,23.08,-61.58,82.11,26.83,6.65,-19.21,-0.001,-0.2468,-0.4805,-0.5223,0.4945,-0.6792,0.5781,-1.0,0.0962,0.1893,0.1951,-1.0,0.6233,-0.7997,0.2013,0.7937,0.3237,-1.0,0.026,0.019,0.006,0.019,0.013,0.006,0.019,0.006,0.0,0.026,0.006,0.013,0.019,0.052,0.006,0.006,0.013,0.0
3.08,0.28,2.56,1.2,1.42,-2.41,0.0,0.0,0.0,0.071,-1.85,-39.2,61.26,-9.76,-10.11,6.42,18.63,-79.8,92.46,9.49,-8.79,6.42,19.95,-55.11,84.46,19.16,13.89,-11.6,1.04,-37.85,51.18,-16.54,-2.22,7.89,20.27,-80.0,82.98,7.21,-12.77,0.36,21.58,-63.08,83.61,25.33,5.15,-20.0,0.0296,-0.1909,-0.3451,-0.4437,0.4709,-0.6719,0.5791,-1.0,0.1981,0.3157,0.3519,-0.8796,0.4954,-0.7198,0.3745,0.6817,0.4063,-1.0,0.026,0.019,0.006,0.019,0.013,0.006,0.019,0.006,0.0,0.026,0.006,0.013,0.019,0.052,0.006,0.006,0.013,0.0
3.12,0.32,2.53,-0.15,-0.26,1.19,0.0,0.0,0.0,0.071,-1.49,-39.55,60.64,-10.46,-8.7,5.71,18.19,-79.8,92.2,8.17,-9.32,5.1,21.09,-56.43,84.46,20.21,13.18,-12.22,2.01,-36.35,49.68,-15.04,-3.72,6.39,21.77,-80.0,84.48,8.71,-11.27,-1.14,20.08,-61.58,85.11,23.83,3.65,-20.0,0.0573,-0.1398,-0.2913,-0.3278,0.3583,-0.7005,0.6464,-1.0,0.3208,0.3502,0.4591,-0.822,0.3725,-0.5847,0.5926,0.5547,0.5045,-1.0,0.026,0.019,0.006,0.019,0.013,0.006,0.019,0.006,0.0,0.026,0.006,0.013,0.019,0.052,0.006,0.006,0.013,0.0
3.16,0.3,2.52,-0.93,-0.19,0.93,0.0,0.0,0.0,0.071,-1.14,-39.73,59.68,-11.25,-7.29,5.27,18.11,-79.8,91.58,7.12,-10.02,3.69,22.06,-58.01,84.29,21.53,12.39,-13.1,2.19,-34.85,48.18,-13.54,-5.22,4.89,22.42,-78.5,85.98,10.21,-9.77,-0.34,18.58,-60.08,86.61,22.33,5.15,-18.5,0.0625,-0.1169,-0.2216,-0.213,0.3416,-0.7147,0.6406,-0.9541,0.4265,0.4394,0.5847,-0.7687,0.2947,-0.4967,0.7038,0.4567,0.636,-0.9747,0.006,0.0,0.013,0.006,0.006,0.0,0.006,0.006,0.019,0.006,0.006,0.013,0.013,0.039,0.013,0.0,0.039,0.019
3.2,0.38,2.59,1.79,0.94,-0.72,0.0,0.0,0.0,0.071,0.53,-39.73,58.45,-12.3,-6.06,5.01,18.11,-79.63,90.26,6.42,-10.55,2.29,22.59,-59.24,84.46,22.5,11.16,-14.24,3.07,-33.35,49.68,-12.04,-6.72,3.39,22.17,-77.0,87.48,11.71,-8.27,1.16,17.08,-58.58,88.11,20.83,6.65,-17.0,0.0877,-0.0917,-0.1486,-0.1431,0.3041,-0.7379,0.6333,-0.9305,0.5644,0.4443,0.7112,-0.6973,0.2491,-0.4239,0.8014,0.3337,0.7404,-0.7589,0.006,0.0,0.013,0.006,0.006,0.0,0.006,0.006,0.019,0.006,0.006,0.013,0.013,0.039,0.013,0.0,0.039,0.019
3.24,0.29,2.55,-1.14,-0.62,1.28,0.0,0.0,0.0,0.071,0.62,-39.11,57.13,-13.1,-5.1,4.92,18.81,-79.1,88.95,5.89,-10.81,1.14,22.94,-60.29,85.43,23.29,9.84,-15.47,4.15,-31.85,50.98,-10.54,-8.22,1.89,21.66,-75.5,88.98,13.21,-6.77,2.66,15.58,-57.08,89.61,19.33,8.15,-15.5,0.1185,-0.015,-0.1649,-0.0334,0.2855,-0.8182,0.6187,-0.9057,0.6887,0.403,0.7844,-0.6704,0.2414,-0.3539,0.8773,0.2726,0.875,-0.4825,0.006,0.0,0.013,0.006,0.006,0.0,0.006,0.006,0.019,0.006,0.006,0.013,0.013,0.039,0.013,0.0,0.039,0.019
3.28,0.32,2.57,1.59,1.31,-2.77,0.0,0.0,0.0,0.071,2.64,-38.06,55.72,-13.62,-4.39,4.22,19.86,-78.22,87.89,5.71,-10.81,0.35,22.94,-60.91,86.4,23.64,8.7,-16.61,5.43,-30.35,51.94,-9.04,-6.72,0.39,20.16,-74.0,90.48,14.71,-5.27,4.16,14.08,-55.58,91.11,17.83,9.65,-14.0,0.1551,0.132,-0.1536,0.0444,0.4487,-0.8736,0.5378,-0.8036,0.7444,0.4247,0.918,-0.6277,0.2193,-0.4206,0.8656,0.2459,0.8696,-0.3375,0.013,0.013,0.006,0.0,0.0,0.013,0.006,0.013,0.013,0.019,0.006,0.006,0.013,0.006,0.006,0.0,0.026,0.006
3.32,0.34,2.52,-1.21,-0.89,1.74,0.0,0.0,0.0,0.071,3.08,-36.83,54.4,-13.8,-3.96,3.34,20.65,-76.99,87.1,6.06,-10.28,-0.18,22.24,-61.35,87.63,23.64,7.82,-17.4,6.93,-28.85,50.44,-7.54,-5.22,-1.11,18.9,-72.5,91.98,13.21,-3.77,2.92,12.58,-54.08,92.61,16.33,11.15,-12.5,0.2024,0.2252,-0.2261,0.1607,0.5002,-0.9258,0.5399,-0.795,0.7313,0.3414,0.9138,-0.7304,0.2592,-0.4133,0.8446,0.2575,0.9519,-0.0927,0.013,0.013,0.006,0.0,0.0,0.013,0.006,0.013,0.013,0.019,0.006,0.006,0.013,0.006,0.006,0.0,0.026,0.006
3.36,0.32,2.55,0.15,0.6,-0.24,0.0,0.0,0.0,0.071,4.31,-35.42,53.26,-13.8,-3.96,2.29,21.18,-75.67,86.57,6.94,-9.32,-0.26,21.36,-61.17,89.12,23.12,7.21,-18.02,8.43,-27.35,48.94,-6.04,-3.72,-2.61,17.4,-71.0,93.48,11.71,-2.27,1.42,11.47,-52.58,94.11,14.83,12.65,-11.0,0.2423,0.3517,-0.28,0.222,0.6568,-0.9465,0.4788,-0.71,0.6418,0.3141,0.8955,-0.7971,0.3276,-0.4985,0.7237,0.3529,0.8782,-0.1525,0.013,0.013,0.006,0.0,0.0,0.013,0.006,0.013,0.013,0.019,0.006,0.006,0.013,0.006,0.006,0.0,0.026,0.006
3.4,0.36,2.58,1.0,0.67,-0.78,0.0,0.0,0.0,0.071,5.98,-34.01,52.03,-13.45,-3.96,0.88,21.27,-74.27,86.4,7.82,-8.17,0.0,20.21,-60.82,90.53,22.24,6.94,-18.19,9.93,-25.85,47.44,-4.54,-2.22,-4.11,16.89,-69.5,94.98,10.21,-0.77,-0.08,12.97,-54.08,95.61,15.35,14.15,-9.5,0.284,0.3992,-0.3507,0.268,0.7577,-0.9464,0.4827,-0.7302,0.5474,0.2731,0.7448,-0.9913,0.4018,-0.6095,0.6208,0.4386,0.8995,-0.1336,0.026,0.0,0.006,0.019,0.0,0.019,0.0,0.013,0.0,0.013,0.013,0.0,0.013,0.006,0.006,0.013,0.006,0.006
3.44,0.29,2.56,-0.9,-0.45,1.07,0.0,0.0,0.0,0.071,6.59,-32.61,50.71,-12.04,-3.96,-0.53,21.18,-72.86,86.4,8.88,-6.77,0.53,18.81,-60.03,91.93,21.18,6.94,-18.19,10.1,-24.35,45.94,-3.04,-0.72,-5.61,15.47,-68.0,96.48,8.71,0.73,-1.58,14.47,-55.58,97.11,16.85,15.65,-8.0,0.2887,0.4076,-0.4427,0.2501,0.8005,-0.9069,0.4421,-0.7541,0.4434,0.2225,0.6127,-1.0,0.4867,-0.7009,0.4871,0.5591,0.8328,-0.2786,0.026,0.0,0.006,0.019,0.0,0.019,0.0,0.013,0.0,0.013,0.013,0.0,0.013,0.006,0.006,0.013,0.006,0.006
3.48,0.31,2.58,0.59,0.14,-2.04,0.0,0.0,0.0,0.071,8.79,-31.2,49.39,-10.63,-3.69,-1.93,20.65,-71.46,86.84,9.58,-5.36,0.53,17.4,-58.89,93.34,19.78,7.38,-17.49,9.75,-22.85,44.44,-1.54,0.78,-7.11,13.97,-66.74,94.98,8.49,-0.77,-3.08,15.97,-57.08,95.61,18.35,14.79,-6.5,0.2787,0.3874,-0.4465,0.2086,0.8788,-0.849,0.3779,-0.7589,0.3394,0.2425,0.4324,-1.0,0.5299,-0.8641,0.3505,0.6416,0.7234,-0.5093,0.026,0.0,0.006,0.019,0.0,0.019,0.0,0.013,0.0,0.013,0.013,0.0,0.013,0.006,0.006,0.013,0.006,0.006
3.52,0.28,2.58,-0.4,-0.39,1.81,0.0,0.0,0.0,0.071,8.7,-29.79,48.16,-9.32,-2.99,-3.43,19.42,-70.05,87.54,10.02,-4.04,-0.26,16.26,-57.83,94.57,18.63,8.17,-16.61,9.15,-21.35,42.94,-0.04,2.28,-5.61,12.93,-68.24,93.48,6.99,-2.27,-4.58,17.47,-58.58,94.11,19.85,13.29,-5.0,0.2614,0.2825,-0.4797,0.13,0.8038,-0.7874,0.3695,-0.8382,0.2452,0.1747,0.2815,-1.0,0.5992,-0.9611,0.2177,0.7467,0.627,-0.7269,0.039,0.006,0.013,0.013,0.006,0.013,0.019,0.006,0.019,0.006,0.0,0.006,0.006,0.013,0.0,0.006,0.013,0.013
3.56,0.3,2.56,0.13,0.42,-1.59,0.0,0.0,0.0,0.071,10.11,-28.12,46.49,-8.35,-1.76,-4.83,18.02,-68.64,89.12,10.11,-2.72,-1.23,15.29,-56.95,95.71,17.58,9.58,-15.21,9.13,-19.85,41.44,1.46,3.78,-4.11,13.16,-69.74,91.98,7.28,-3.77,-6.08,18.97,-60.08,92.61,21.35,11.79,-6.5,0.2607,0.1795,-0.4706,0.0458,0.7391,-0.7163,0.376,-0.8958,0.164,0.2081,0.1869,-1.0,0.5955,-1.0,0.1296,0.7953,0.4826,-0.9955,0.039,0.006,0.013,0.013,0.006,0.013,0.019,0.006,0.019,0.006,0.0,0.006,0.006,0.013,0.0,0.006,0.013,0.013
3.6,0.31,2.52,-0.4,-0.36,-0.33,0.0,0.0,0.0,0.071,9.84,-26.63,45.26,-6.24,-0.44,-5.8,16.61,-67.76,90.44,9.67,-1.76,-2.37,14.77,-56.43,96.42,17.14,10.81,-13.8,8.39,-19.78,39.94,-0.04,5.28,-2.61,14.66,-71.24,90.48,5.78,-5.27,-7.58,20.47,-61.58,91.11,22.85,10.29,-8.0,0.2397,0.0949,-0.4944,-0.0658,0.6046,-0.6604,0.4448,-0.9467,0.0654,0.1349,0.124,-1.0,0.5891,-1.0,0.0501,0.862,0.3412,-1.0,0.039,0.006,0.013,0.013,0.006,0.013,0.019,0.006,0.019,0.006,0.0,0.006,0.006,0.013,0.0,0.006,0.013,0.013
3.64,0.27,2.51,-0.95,-0.44,1.42,0.0,0.0,0.0,0.071,9.4,-25.31,43.95,-4.66,0.97,-6.42,15.38,-67.15,91.58,8.7,-1.23,-3.78,14.59,-56.16,96.77,16.88,11.78,-12.39,6.89,-21.28,38.44,-1.54,3.78,-1.11,16.16,-72.74,88.98,4.71,-6.77,-9.08,21.38,-63.08,89.61,24.35,8.79,-9.5,0.1844,0.0194,-0.4887,-0.1419,0.492,-0.6459,0.4898,-0.9539,-0.0542,0.1346,0.1089,-1.0,0.6109,-1.0,0.0183,0.8578,0.2635,-1.0,0.006,0.006,0.006,0.026,0.0,0.0,0.006,0.006,0.013,0.013,0.0,0.013,0.0,0.0,0.013,0.006,0.0,0.006
3.68,0.31,2.55,1.08,0.71,0.52,0.0,0.0,0.0,0.071,9.4,-23.99,42.54,-4.22,2.29,-6.77,14.5,-66.88,92.37,7.65,-1.05,-5.19,14.77,-56.51,96.59,17.05,12.57,-11.07,5.89,-22.78,36.94,-3.04,2.28,0.39,17.66,-74.24,87.48,4.88,-8.27,-10.58,20.93,-64.58,88.11,25.85,7.29,-11.0,0.1684,-0.0467,-0.5041,-0.1954,0.3955,-0.6165,0.5557,-0.9394,-0.0861,0.1396,0.1624,-1.0,0.5981,-1.0,0.0203,0.8373,0.219,-1.0,0.006,0.006,0.006,0.026,0.0,0.0,0.006,0.006,0.013,0.013,0.0,0.013,0.0,0.0,0.013,0.006,0.0,0.006
3.72,0.24,2.5,-1.36,-0.97,-0.82,0.0,0.0,0.0,0.071,7.47,-22.94,40.96,-2.29,3.43,-6.68,13.71,-66.97,92.9,6.42,-1.05,-6.68,15.64,-57.13,95.89,17.93,13.01,-9.93,6.38,-24.28,35.44,-4.54,0.78,1.89,19.16,-75.74,85.98,5.09,-9.77,-12.08,19.43,-66.08,86.61,27.35,5.79,-12.5,0.1822,-0.0819,-0.5472,-0.2166,0.2862,-0.6171,0.6017,-0.9507,-0.0498,0.1454,0.2466,-0.9761,0.5461,-0.8823,0.0975,0.8275,0.2168,-1.0,0.006,0.006,0.006,0.026,0.0,0.0,0.006,0.006,0.013,0.013,0.0,0.013,0.0,0.0,0.013,0.006,0.0,0.006
3.76,0.28,2.5,1.66,1.54,-0.18,0.0,0.0,0.0,0.111,7.29,-22.15,39.64,-1.58,4.13,-6.33,13.45,-67.5,93.08,5.62,-1.49,-8.0,16.44,-57.83,95.19,18.72,13.01,-9.23,4.88,-25.78,33.94,-6.04,-0.72,3.39,20.56,-74.24,84.48,6.18,-8.27,-10.58,17.93,-67.58,85.88,25.85,4.29,-14.0,0.125,-0.0637,-0.3958,-0.2266,0.3099,-0.6264,0.5873,-0.8941,-0.007,0.1766,0.3678,-0.8563,0.474,-0.8265,0.2457,0.6876,0.2221,-1.0,0.111,0.0,0.013,0.006,0.0,0.019,0.006,0.013,0.0,0.006,0.019,0.013,0.013,0.019,0.013,0.019,0.013,0.006
3.8,0.28,2.44,-0.63,-0.73,0.62,0.0,0.0,0.0,0.111,6.42,-21.62,38.32,-1.85,4.66,-5.19,13.45,-68.38,92.99,5.01,-2.46,-9.32,17.49,-59.06,93.96,20.04,12.83,-8.7,5.64,-27.28,35.28,-5.2,-2.22,4.89,20.76,-73.52,82.98,6.4,-6.77,-9.08,16.43,-66.08,87.38,24.35,2.79,-15.5,0.1611,-0.0881,-0.3496,-0.1487,0.221,-0.6763,0.5933,-0.8823,0.1162,0.1828,0.4366,-0.8172,0.4581,-0.6683,0.3961,0.5946,0.358,-1.0,0.111,0.0,0.013,0.006,0.0,0.019,0.006,0.013,0.0,0.006,0.019,0.013,0.013,0.019,0.013,0.019,0.013,0.006
3.84,0.19,2.43,-1.46,-0.68,1.5,0.0,0.0,0.0,0.111,5.1,-21.45,36.91,-1.14,4.75,-4.13,13.45,-69.43,92.72,4.83,-3.52,-10.28,18.11,-60.38,92.55,21.45,12.13,-8.61,4.43,-28.78,36.78,-6.01,-3.72,5.53,19.26,-72.02,84.48,6.0,-5.27,-7.58,14.93,-64.58,88.88,22.85,1.29,-17.0,0.1266,-0.0698,-0.2729,-0.1717,0.2511,-0.6997,0.5358,-0.8333,0.2675,0.1715,0.6159,-0.6512,0.3964,-0.6043,0.5361,0.5081,0.3787,-1.0,0.111,0.0,0.013,0.006,0.0,0.019,0.006,0.013,0.0,0.006,0.019,0.013,0.013,0.019,0.013,0.019,0.013,0.006
3.88,0.23,2.48,1.57,0.29,-2.81,0.0,0.0,0.0,0.111,5.27,-21.62,35.86,-1.05,4.75,-2.72,14.59,-70.66,91.76,4.92,-4.66,-11.07,18.46,-61.79,91.23,22.59,11.25,-8.61,4.1,-27.28,38.28,-4.51,-5.22,4.03,17.76,-70.52,85.98,6.54,-3.77,-6.08,13.43,-63.08,90.38,21.35,2.79,-18.5,0.1173,-0.019,-0.1018,-0.0653,0.3441,-0.7701,0.4724,-0.7999,0.4162,0.1868,0.6715,-0.6695,0.347,-0.5531,0.6744,0.3406,0.5058,-1.0,0.0,0.019,0.006,0.019,0.019,0.006,0.006,0.006,0.019,0.006,0.019,0.0,0.006,0.013,0.006,0.006,0.039,0.026
3.92,0.13,2.39,-1.48,-1.02,1.8,0.0,0.0,0.0,0.111,3.87,-22.15,34.98,-1.85,4.13,-1.32,15.64,-71.46,90.44,5.71,-5.54,-11.43,18.46,-62.93,90.18,23.47,9.93,-9.4,4.28,-26.21,39.78,-3.01,-6.72,2.53,16.26,-71.18,87.48,5.04,-2.27,-4.58,13.35,-61.58,91.88,19.85,4.29,-17.0,0.1221,-0.022,-0.1089,-0.0659,0.2779,-0.8656,0.4011,-0.8396,0.6123,0.0713,0.758,-0.6276,0.3815,-0.412,0.7772,0.2677,0.6773,-0.7976,0.0,0.019,0.006,0.019,0.019,0.006,0.006,0.006,0.019,0.006,0.019,0.0,0.006,0.013,0.006,0.006,0.039,0.026
3.96,0.21,2.42,1.36,0.97,-1.74,0.0,0.0,0.0,0.111,4.22,-23.2,34.37,-3.08,3.25,0.09,16.44,-72.07,89.12,6.24,-6.06,-11.34,17.93,-63.72,89.47,23.91,8.61,-10.37,4.02,-24.71,41.28,-1.51,-5.22,1.03,14.76,-69.68,88.98,3.54,-0.77,-3.08,11.85,-60.08,93.38,18.35,5.79,-15.5,0.1147,0.1519,-0.0963,0.0112,0.5407,-0.9465,0.3125,-0.759,0.7563,0.0906,0.8385,-0.6098,0.2976,-0.5003,0.8158,0.2285,0.6695,-0.5999,0.0,0.019,0.006,0.019,0.019,0.006,0.006,0.006,0.019,0.006,0.019,0.0,0.006,0.013,0.006,0.006,0.039,0.026
4.0,0.24,2.38,-0.38,-0.58,0.96,0.0,0.0,0.0,0.111,4.13,-24.08,34.19,-3.6,2.02,1.14,17.14,-72.33,87.98,6.24,-6.33,-11.16,17.14,-64.25,89.03,24.17,7.29,-11.6,4.71,-23.21,42.78,-0.01,-3.72,-0.47,13.26,-71.18,90.48,2.04,0.73,-1.58,12.01,-58.58,94.88,16.85,7.29,-14.0,0.1345,0.2286,-0.1219,0.1517,0.5554,-1.0,0.3232,-0.8864,0.848,0.0143,0.825,-0.6903,0.3431,-0.4101,0.7861,0.2818,0.8461,-0.2283,0.026,0.019,0.0,0.006,0.026,0.013,0.0,0.0,0.006,0.006,0.0,0.013,0.013,0.006,0.0,0.006,0.019,0.013
4.04,0.19,2.4,-0.31,-0.01,0.93,0.0,0.0,0.0,0.111,3.96,-24.96,34.28,-3.78,0.62,1.93,17.4,-72.07,87.19,6.15,-6.24,-10.02,16.08,-64.42,88.95,23.99,6.24,-12.83,3.21,-21.71,44.28,1.49,-2.22,-1.97,11.76,-72.68,91.98,0.54,2.23,-0.08,12.56,-57.08,96.38,15.35,8.79,-12.5,0.0639,0.3228,-0.1293,0.1931,0.6833,-1.0,0.2865,-0.8783,0.8415,-0.004,0.8388,-0.7601,0.3589,-0.4536,0.7787,0.2935,0.841,-0.1247,0.026,0.019,0.0,0.006,0.026,0.013,0.0,0.0,0.006,0.006,0.0,0.013,0.013,0.006,0.0,0.006,0.019,0.013
4.08,0.22,2.46,1.22,0.78,-0.63,0.0,0.0,0.0,0.111,5.01,-25.58,34.98,-4.31,-0.62,2.29,17.4,-71.63,86.57,5.19,-5.71,-9.05,14.85,-64.07,89.38,23.29,5.45,-13.89,1.71,-20.21,45.78,2.99,-0.72,-3.47,11.14,-74.18,93.48,1.23,3.73,-1.58,14.05,-55.58,97.88,13.85,10.29,-11.0,0.0402,0.3808,-0.1374,0.247,0.8048,-1.0,0.3182,-0.9115,0.7939,0.0353,0.7143,-0.9739,0.4014,-0.5215,0.7199,0.3311,0.8896,-0.0031,0.026,0.019,0.0,0.006,0.026,0.013,0.0,0.0,0.006,0.006,0.0,0.013,0.013,0.006,0.0,0.006,0.019,0.013
4.12,0.17,2.41,-0.8,-0.48,0.45,0.0,0.0,0.0,0.111,3.96,-25.66,35.86,-4.04,-1.76,2.46,17.23,-71.63,86.4,4.22,-4.83,-7.73,13.8,-63.54,90.18,22.32,5.01,-14.68,0.37,-18.71,44.28,4.49,0.78,-4.97,12.25,-75.68,94.98,-0.06,5.23,-3.08,15.55,-55.17,99.38,15.35,11.79,-9.5,0.0106,0.3711,-0.2482,0.2215,0.8062,-1.0,0.3501,-0.9804,0.7193,-0.0016,0.6262,-1.0,0.4768,-0.5485,0.6481,0.4394,0.9004,0.012,0.006,0.0,0.013,0.013,0.019,0.006,0.013,0.013,0.0,0.019,0.006,0.006,0.006,0.006,0.006,0.013,0.006,0.006
4.16,0.18,2.41,0.56,0.94,-1.81,0.0,0.0,0.0,0.111,4.13,-25.66,37.0,-3.16,-2.55,2.2,16.17,-71.89,86.4,2.99,-3.6,-6.33,13.1,-62.49,91.23,21.09,5.01,-15.12,0.07,-17.21,42.78,5.99,2.28,-6.47,10.75,-77.03,96.48,1.44,3.73,-4.58,16.01,-56.67,100.88,16.85,13.29,-8.0,0.002,0.3524,-0.2845,0.1736,0.9011,-1.0,0.294,-0.946,0.6107,0.1039,0.5133,-1.0,0.4573,-0.6646,0.5637,0.5231,0.7824,-0.2223,0.006,0.0,0.013,0.013,0.019,0.006,0.013,0.013,0.0,0.019,0.006,0.006,0.006,0.006,0.006,0.013,0.006,0.006
4.2,0.12,2.39,-1.48,-0.92,1.96,0.0,0.0,0.0,0.111,2.29,-24.87,38.85,-1.85,-3.08,1.05,14.59,-72.86,86.84,1.49,-1.85,-4.75,12.66,-61.0,92.99,19.34,5.19,-15.12,-0.67,-15.71,41.28,4.49,3.78,-7.97,10.61,-77.9,97.98,2.94,2.23,-6.08,17.51,-58.17,102.38,18.35,14.79,-6.5,-0.0193,0.2828,-0.3505,0.1169,0.8589,-1.0,0.3032,-0.9618,0.5128,0.1197,0.3359,-1.0,0.5036,-0.706,0.446,0.6063,0.7691,-0.3803,0.006,0.0,0.013,0.013,0.019,0.006,0.013,0.013,0.0,0.019,0.006,0.006,0.006,0.006,0.006,0.013,0.006,0.006
4.24,0.09,2.39,-0.63,-0.38,2.14,0.0,0.0,0.0,0.111,1.58,-24.17,39.73,-0.88,-3.08,0.35,13.62,-73.48,87.36,0.79,-0.88,-4.04,12.57,-60.03,94.04,18.54,5.71,-15.03,-1.04,-14.86,39.78,2.99,5.28,-9.47,9.11,-76.4,99.38,4.44,0.73,-7.58,17.57,-59.67,100.88,19.85,13.29,-5.0,-0.0297,0.1844,-0.4452,0.0163,0.8474,-0.9927,0.2497,-0.886,0.4045,0.2134,0.2265,-1.0,0.5019,-0.8078,0.2924,0.6812,0.6707,-0.6765,0.026,0.013,0.006,0.013,0.0,0.019,0.006,0.019,0.019,0.0,0.006,0.0,0.019,0.019,0.019,0.006,0.013,0.006
4.28,0.12,2.43,0.73,0.25,-1.96,0.0,0.0,0.0,0.111,1.05,-23.03,40.78,0.53,-3.08,-0.97,12.39,-74.79,88.86,0.26,0.18,-3.43,13.1,-59.15,95.45,17.67,6.5,-14.24,-0.59,-16.36,38.28,1.49,6.78,-10.97,9.27,-74.9,97.88,5.94,-0.77,-9.08,18.69,-61.17,99.38,21.35,11.79,-6.5,-0.0169,0.0809,-0.5452,-0.1099,0.7656,-0.9308,0.2647,-0.8845,0.3192,0.2074,0.1322,-1.0,0.534,-0.8504,0.1226,0.7585,0.5787,-0.8948,0.026,0.013,0.006,0.013,0.0,0.019,0.006,0.019,0.019,0.0,0.006,0.0,0.019,0.019,0.019,0.006,0.013,0.006
4.32,0.09,2.4,-0.69,-0.34,1.8,0.0,0.0,0.0,0.111,-0.79,-21.62,41.66,1.67,-2.46,-2.46,11.25,-75.67,90.26,-0.09,1.14,-3.25,13.97,-58.54,96.86,17.14,7.91,-13.27,-1.44,-17.86,36.78,-0.01,8.28,-9.47,10.33,-73.51,96.38,7.05,-2.27,-10.58,18.1,-62.67,97.88,22.85,10.29,-8.0,-0.0412,-0.0372,-0.6137,-0.2404,0.6734,-0.8445,0.2952,-0.882,0.2187,0.2014,0.0959,-1.0,0.517,-0.8657,0.0283,0.8013,0.4954,-1.0,0.026,0.013,0.006,0.013,0.0,0.019,0.006,0.019,0.019,0.0,0.006,0.0,0.019,0.019,0.019,0.006,0.013,0.006
4.36,0.13,2.45,1.53,0.96,-1.59,0.0,0.0,0.0,0.111,-0.53,-20.3,42.1,2.55,-1.41,-3.87,10.37,-76.2,91.67,-0.09,1.76,-3.25,14.94,-58.01,97.91,16.79,9.14,-11.95,-0.43,-19.36,35.28,-1.51,7.66,-7.97,11.83,-72.51,94.88,8.08,-3.77,-12.08,17.42,-64.17,96.38,24.35,8.79,-9.5,-0.0123,-0.1278,-0.7162,-0.3369,0.5938,-0.7818,0.3665,-0.8639,0.1274,0.2309,0.0898,-1.0,0.4977,-0.9016,-0.0861,0.8423,0.3248,-1.0,0.039,0.006,0.0,0.006,0.006,0.013,0.006,0.013,0.019,0.019,0.0,0.019,0.013,0.006,0.006,0.013,0.006,0.006
4.4,0.09,2.4,-1.31,-1.1,1.23,0.0,0.0,0.0,0.111,-1.49,-19.16,42.28,3.16,-0.26,-5.27,9.76,-76.46,92.99,0.79,1.93,-3.78,16.17,-58.18,98.7,17.14,10.2,-10.72,0.87,-20.86,33.78,-3.01,6.16,-6.47,13.33,-74.01,93.38,6.58,-5.27,-13.58,18.4,-65.67,94.88,25.85,7.29,-11.0,0.0249,-0.1803,-0.8285,-0.3995,0.4536,-0.7366,0.4704,-0.8947,0.0182,0.1719,0.0971,-1.0,0.5258,-0.8234,-0.1431,0.9396,0.258,-1.0,0.039,0.006,0.0,0.006,0.006,0.013,0.006,0.013,0.019,0.019,0.0,0.019,0.013,0.006,0.006,0.013,0.006,0.006
4.44,0.08,2.46,0.27,0.32,1.64,0.0,0.0,0.0,0.111,-1.49,-18.46,42.19,3.34,1.14,-6.33,9.4,-76.2,94.04,1.58,1.93,-4.75,16.96,-58.45,99.23,17.84,10.9,-9.67,1.48,-22.36,32.28,-4.51,4.66,-4.97,14.83,-72.51,91.88,6.91,-6.77,-15.08,16.9,-67.17,93.38,27.35,5.79,-12.5,0.0423,-0.2272,-0.8567,-0.3978,0.4078,-0.6459,0.5374,-0.8636,-0.0401,0.1974,0.176,-1.0,0.4758,-0.826,-0.1203,0.9326,0.1644,-1.0,0.039,0.006,0.0,0.006,0.006,0.013,0.006,0.013,0.019,0.019,0.0,0.019,0.013,0.006,0.006,0.013,0.006,0.006
4.48,0.15,2.48,1.12,0.46,-3.2,0.0,0.0,0.0,0.111,-0.44,-17.84,41.48,3.34,2.46,-7.21,9.4,-75.76,94.83,2.72,1.58,-5.89,17.75,-59.15,99.23,18.72,11.43,-8.88,2.98,-23.86,30.78,-6.01,3.16,-3.47,16.33,-73.56,90.38,5.94,-8.27,-16.58,17.75,-65.67,91.88,28.85,4.29,-14.0,0.1314,-0.2107,-0.8728,-0.3504,0.2989,-0.6439,0.6144,-0.8829,-0.034,0.1698,0.2056,-1.0,0.5071,-0.7145,-0.0665,0.9527,0.2,-1.0,0.019,0.0,0.013,0.013,0.006,0.006,0.013,0.019,0.013,0.013,0.019,0.013,0.006,0.026,0.013,0.013,0.0,0.006
4.52,0.11,2.46,-0.69,-0.51,3.64,0.0,0.0,0.0,0.111,-0.26,-17.75,40.25,3.25,3.69,-7.73,9.58,-74.71,95.45,4.13,0.44,-7.47,18.11,-60.29,99.05,20.21,11.51,-8.35,4.48,-25.36,29.28,-7.51,1.66,-1.97,17.83,-72.31,88.88,4.44,-7.65,-15.08,16.25,-64.17,90.38,30.35,2.79,-15.5,0.1485,-0.1653,-0.8575,-0.3033,0.2408,-0.608,0.6315,-0.8602,-0.0113,0.1181,0.3155,-0.8382,0.4617,-0.6569,0.1002,0.9141,0.2221,-1.0,0.019,0.0,0.013,0.013,0.006,0.006,0.013,0.019,0.013,0.013,0.019,0.013,0.006,0.026,0.013,0.013,0.0,0.006
4.56,0.11,2.5,0.43,0.29,-1.46,0.0,0.0,0.0,0.111,1.76,-17.93,39.02,1.85,4.48,-7.91,10.81,-73.83,95.54,5.01,-0.7,-8.88,18.11,-61.52,97.91,21.71,11.34,-8.35,5.98,-26.86,27.78,-6.01,0.16,-0.47,19.33,-70.81,87.38,5.72,-6.15,-13.58,15.14,-62.67,88.88,29.19,1.29,-17.0,0.2311,-0.0799,-0.7731,-0.1461,0.2631,-0.6084,0.6233,-0.8215,0.0827,0.1634,0.3974,-0.7546,0.4326,-0.6331,0.192,0.834,0.2611,-1.0,0.019,0.0,0.013,0.013,0.006,0.006,0.013,0.019,0.013,0.013,0.019,0.013,0.006,0.026,0.013,0.013,0.0,0.006
4.6,0.1,2.49,-0.78,-0.58,2.09,0.0,0.0,0.0,0.111,2.02,-18.54,37.62,0.7,4.92,-7.65,11.95,-73.21,95.45,5.62,-2.11,-10.37,17.67,-62.84,96.94,23.12,10.63,-8.53,7.48,-25.36,26.28,-4.51,-1.34,1.03,20.83,-71.46,85.88,4.22,-4.65,-12.08,14.64,-61.17,90.38,27.69,-0.21,-18.5,0.2639,0.0213,-0.7181,-0.067,0.2462,-0.6092,0.6198,-0.8447,0.1821,0.0783,0.5401,-0.6366,0.4183,-0.55,0.3687,0.7584,0.3573,-1.0,0.052,0.026,0.013,0.026,0.0,0.013,0.013,0.013,0.006,0.006,0.019,0.013,0.0,0.006,0.013,0.019,0.033,0.013
4.64,0.15,2.48,0.8,0.94,-1.76,0.0,0.0,0.0,0.111,4.31,-19.6,36.21,-0.79,5.01,-6.86,13.36,-71.81,95.19,5.8,-3.43,-11.6,16.79,-63.63,95.62,24.43,9.76,-9.32,8.98,-23.86,24.78,-3.01,-2.84,2.53,19.36,-69.96,87.38,3.61,-3.15,-10.58,13.14,-59.67,91.88,26.19,-0.73,-20.0,0.3109,0.1343,-0.5799,0.0771,0.3026,-0.629,0.553,-0.807,0.3382,0.1032,0.6559,-0.5811,0.3294,-0.5354,0.5067,0.6262,0.4414,-1.0,0.052,0.026,0.013,0.026,0.0,0.013,0.013,0.013,0.006,0.006,0.019,0.013,0.0,0.006,0.013,0.019,0.033,0.013
4.68,0.2,2.42,0.53,0.17,-0.56,0.0,0.0,0.0,0.111,5.27,-20.74,34.8,-2.11,5.01,-5.71,14.77,-71.37,94.13,5.8,-4.39,-12.57,15.82,-64.25,94.31,25.75,8.44,-10.46,10.48,-22.36,23.28,-1.51,-4.34,4.03,19.88,-71.46,88.88,2.11,-1.65,-9.08,11.64,-58.17,93.38,24.69,0.77,-18.5,0.3201,0.2581,-0.5034,0.1524,0.3262,-0.6859,0.5679,-0.8463,0.4547,-0.0105,0.747,-0.5413,0.3312,-0.5023,0.6192,0.5453,0.5603,-0.7256,0.052,0.026,0.013,0.026,0.0,0.013,0.013,0.013,0.006,0.006,0.019,0.013,0.0,0.006,0.013,0.019,0.033,0.013
4.72,0.15,2.43,-0.92,-0.05,1.7,0.0,0.0,0.0,0.111,6.59,-21.8,33.4,-2.99,4.22,-4.48,16.17,-70.58,92.72,5.01,-5.19,-13.18,14.5,-64.42,93.16,26.54,7.03,-11.69,10.2,-20.86,24.78,-0.01,-5.42,2.53,18.38,-70.52,90.38,0.61,-0.15,-7.58,10.14,-56.67,94.88,23.19,2.27,-17.0,0.2915,0.3503,-0.4189,0.2936,0.3561,-0.7623,0.4984,-0.8277,0.5748,-0.0372,0.8691,-0.5606,0.287,-0.4512,0.7233,0.4485,0.6875,-0.3984,0.0,0.013,0.006,0.0,0.033,0.013,0.013,0.006,0.019,0.006,0.006,0.006,0.013,0.0,0.006,0.006,0.026,0.013
4.76,0.19,2.44,0.76,0.14,-2.39,0.0,0.0,0.0,0.111,8.44,-22.59,31.99,-4.13,3.34,-2.99,17.31,-69.96,91.49,4.13,-5.62,-13.54,13.18,-64.16,92.46,27.16,5.71,-13.1,8.7,-19.36,26.28,1.49,-3.92,1.03,16.88,-69.02,91.88,-0.89,1.35,-6.08,10.5,-55.17,96.38,21.69,3.77,-15.5,0.245,0.4954,-0.3231,0.3747,0.5502,-0.8511,0.4726,-0.769,0.6668,-0.0795,0.9246,-0.6148,0.2999,-0.4862,0.7646,0.3444,0.7573,-0.1221,0.0,0.013,0.006,0.0,0.033,0.013,0.013,0.006,0.019,0.006,0.006,0.006,0.013,0.0,0.006,0.006,0.026,0.013
4.8,0.09,2.4,-2.17,-1.55,2.7,0.0,0.0,0.0,0.111,8.61,-23.12,30.5,-4.22,2.02,-1.67,18.37,-69.96,90.53,2.9,-5.71,-13.36,11.87,-63.72,91.93,27.51,4.57,-14.41,7.2,-17.86,27.78,2.99,-2.42,-0.47,15.38,-69.38,93.38,-2.39,2.85,-4.58,11.7,-53.67,97.88,20.19,5.27,-14.0,0.2034,0.5257,-0.2662,0.4251,0.598,-0.9407,0.4356,-0.807,0.7257,-0.1245,0.9846,-0.6461,0.3342,-0.4686,0.7593,0.3246,0.8707,0.1562,0.0,0.013,0.006,0.0,0.033,0.013,0.013,0.006,0.019,0.006,0.006,0.006,0.013,0.0,0.006,0.006,0.026,0.013
4.84,0.15,2.43,1.47,1.07,-2.2,0.0,0.0,0.0,0.111,10.28,-23.38,29.18,-4.22,0.7,-0.62,19.07,-69.61,89.82,1.49,-5.45,-13.1,11.07,-62.67,91.85,27.33,3.78,-15.38,5.7,-16.36,29.28,4.49,-0.92,-1.97,13.88,-67.88,94.88,-2.5,4.35,-3.08,11.84,-55.17,99.38,18.69,6.77,-12.5,0.1392,0.5678,-0.1741,0.4374,0.8018,-1.0,0.3536,-0.7279,0.7316,-0.0715,0.96,-0.7718,0.3382,-0.5593,0.6962,0.2847,0.8335,0.1505,0.019,0.006,0.013,0.013,0.019,0.006,0.0,0.006,0.006,0.013,0.006,0.013,0.0,0.026,0.013,0.006,0.019,0.006
4.88,0.15,2.41,-0.92,-0.41,2.67,0.0,0.0,0.0,0.111,9.84,-23.38,28.04,-4.04,-0.44,0.35,19.42,-68.99,89.3,0.0,-4.66,-11.78,10.37,-61.44,92.37,26.54,3.08,-16.26,4.2,-14.86,30.78,5.99,0.58,-3.47,12.38,-68.73,96.38,-3.58,5.85,-4.58,13.34,-56.02,100.88,17.19,8.27,-11.0,0.1087,0.5223,-0.1389,0.3855,0.8197,-1.0,0.3497,-0.7951,0.7199,-0.1023,0.8896,-0.873,0.4226,-0.564,0.6571,0.3119,0.9076,0.2544,0.019,0.006,0.013,0.013,0.019,0.006,0.0,0.006,0.006,0.013,0.006,0.013,0.0,0.026,0.013,0.006,0.019,0.006
4.92,0.2,2.44,1.32,0.97,-2.33,0.0,0.0,0.0,0.111,10.2,-22.68,27.16,-3.16,-1.23,0.88,19.42,-68.38,89.38,-1.32,-3.6,-10.63,10.2,-59.94,93.16,25.58,2.9,-16.7,2.7,-13.36,32.28,7.49,2.08,-4.97,10.93,-68.11,97.88,-2.08,7.35,-6.08,14.84,-57.52,102.38,15.69,9.77,-9.5,0.0764,0.5134,-0.1593,0.3502,0.9266,-1.0,0.3123,-0.7838,0.6374,-0.0273,0.7757,-1.0,0.4508,-0.6761,0.5599,0.4293,0.8211,0.0555,0.019,0.006,0.013,0.013,0.019,0.006,0.0,0.006,0.006,0.013,0.006,0.013,0.0,0.026,0.013,0.006,0.019,0.006
4.96,0.19,2.4,-0.94,-0.88,-0.39,0.0,0.0,0.0,0.111,9.58,-21.53,26.81,-1.93,-1.67,0.88,19.42,-68.03,89.65,-2.02,-2.2,-9.32,10.2,-58.71,94.31,24.43,2.99,-16.7,2.67,-11.86,33.78,8.99,3.58,-6.47,11.15,-69.61,99.38,-0.58,8.85,-7.58,16.34,-59.02,103.88,17.19,11.27,-8.0,0.0762,0.4201,-0.1831,0.2692,0.882,-1.0,0.3187,-0.8677,0.516,-0.0068,0.6178,-1.0,0.5194,-0.7281,0.5174,0.5184,0.8152,-0.0707,0.013,0.006,0.0,0.019,0.006,0.013,0.019,0.0,0.006,0.006,0.0,0.006,0.026,0.013,0.013,0.006,0.006,0.006
5.0,0.22,2.42,0.08,0.22,2.7,0.0,0.0,0.0,0.111,8.53,-20.39,26.72,-0.62,-1.85,0.7,18.37,-68.12,89.82,-3.08,-0.79,-8.0,11.16,-57.74,95.62,22.94,3.52,-16.35,2.06,-10.36,35.28,7.49,5.08,-7.97,9.65,-71.04,97.88,0.92,7.35,-9.08,17.84,-60.52,102.38,18.69,12.42,-6.5,0.0587,0.3138,-0.2884,0.1849,0.8836,-1.0,0.2663,-0.8371,0.3799,0.0736,0.442,-1.0,0.5323,-0.8495,0.3969,0.6202,0.6804,-0.4418,0.013,0.006,0.0,0.019,0.006,0.013,0.019,0.0,0.006,0.006,0.0,0.006,0.026,0.013,0.013,0.006,0.006,0.006
5.04,0.29,2.44,1.41,1.08,-3.2,0.5,0.0,0.0,0.111,8.0,-18.9,26.81,0.79,-1.76,-0.26,17.14,-68.38,91.14,-3.25,0.53,-7.12,11.95,-57.13,97.12,21.53,4.39,-15.56,1.66,-11.86,34.73,5.99,6.58,-9.47,9.21,-72.54,96.38,2.42,5.85,-10.58,19.26,-62.02,100.88,20.19,10.92,-5.0,0.0474,0.1968,-0.3562,0.0934,0.8213,-0.9792,0.2632,-0.8924,0.3154,0.1575,0.2585,-1.0,0.5502,-0.8714,0.2788,0.7205,0.6273,-0.7034,0.013,0.006,0.0,0.019,0.006,0.013,0.019,0.0,0.006,0.006,0.0,0.006,0.026,0.013,0.013,0.006,0.006,0.006
5.08,0.2,2.39,-1.28,-0.97,1.87,1.0,0.0,0.0,0.111,5.71,-17.58,27.69,2.2,-1.14,-1.32,15.82,-69.35,92.55,-3.43,1.93,-6.5,13.27,-56.69,98.44,20.48,5.62,-14.5,1.78,-13.36,33.23,4.49,8.08,-10.89,10.26,-74.04,94.88,3.92,4.35,-12.08,18.5,-63.52,99.38,21.69,9.42,-6.5,0.0509,0.0893,-0.4514,-0.0407,0.6898,-0.8928,0.2932,-0.924,0.1962,0.1561,0.1803,-1.0,0.5285,-0.8849,0.1839,0.8063,0.5176,-0.9714,0.0,0.006,0.013,0.013,0.006,0.019,0.013,0.026,0.013,0.019,0.0,0.0,0.006,0.0,0.006,0.006,0.006,0.013
5.12,0.24,2.44,1.34,0.89,-1.88,1.5,0.0,0.0,0.111,5.01,-16.26,28.65,3.43,-0.09,-2.55,14.33,-70.31,93.78,-3.34,3.34,-6.15,14.68,-56.69,99.49,19.51,6.94,-13.18,0.3,-14.86,31.73,2.99,9.58,-9.39,11.76,-72.99,93.38,5.42,2.85,-13.58,17.0,-65.02,97.88,23.19,7.92,-8.0,0.0086,-0.0247,-0.5809,-0.1441,0.6474,-0.8334,0.3406,-0.8725,0.1051,0.1987,0.0971,-1.0,0.4826,-0.9266,0.0845,0.8341,0.3669,-1.0,0.0,0.006,0.013,0.013,0.006,0.019,0.013,0.026,0.013,0.019,0.0,0.0,0.006,0.0,0.006,0.006,0.006,0.013
5.16,0.23,2.36,-0.95,-0.83,-0.24,2.0,0.0,0.0,0.111,3.6,-15.12,29.88,4.39,1.14,-4.04,13.1,-71.54,94.83,-2.11,4.31,-6.15,16.0,-57.04,100.2,19.07,8.0,-11.78,0.83,-16.36,30.23,1.49,8.08,-7.89,13.26,-74.49,91.88,5.07,1.35,-15.08,18.21,-66.52,96.38,24.69,6.42,-9.5,0.0237,-0.1013,-0.7429,-0.2389,0.4828,-0.8369,0.4207,-0.9069,0.0218,0.1449,0.0556,-1.0,0.5203,-0.7988,0.0052,0.9299,0.3121,-1.0,0.0,0.006,0.013,0.013,0.006,0.019,0.013,0.026,0.013,0.019,0.0,0.0,0.006,0.0,0.006,0.006,0.006,0.013
5.2,0.16,2.37,-0.76,-0.55,2.81,2.5,0.0,0.0,0.111,2.02,-14.33,30.94,5.19,2.64,-5.45,12.04,-72.69,95.45,-1.41,5.1,-6.86,17.05,-57.66,100.72,18.81,8.79,-10.55,0.13,-17.86,28.73,-0.01,6.58,-6.39,14.76,-72.99,90.38,4.57,-0.15,-16.58,16.71,-67.73,94.88,26.19,4.92,-11.0,0.0037,-0.1536,-0.8774,-0.2827,0.4321,-0.7729,0.4676,-0.8373,-0.026,0.1306,0.0873,-1.0,0.4658,-0.7769,0.019,0.9283,0.2184,-1.0,0.033,0.006,0.0,0.0,0.006,0.006,0.006,0.013,0.006,0.091,0.0,0.006,0.006,0.019,0.0,0.006,0.006,0.006
5.24,0.25,2.4,1.03,0.82,-0.93,3.0,0.0,0.0,0.111,1.85,-13.8,31.73,5.54,3.87,-6.42,11.16,-73.48,95.89,-0.44,5.62,-7.73,17.75,-58.71,100.72,18.9,9.32,-9.58,1.63,-19.36,27.23,-1.51,5.08,-4.89,16.26,-71.49,88.88,4.91,-1.65,-18.08,15.93,-66.23,93.38,27.69,3.42,-12.5,0.0588,-0.1434,-0.9242,-0.253,0.3758,-0.7831,0.5061,-0.8108,0.01,0.1403,0.1291,-1.0,0.4551,-0.6689,0.0478,0.933,0.2256,-1.0,0.033,0.006,0.0,0.0,0.006,0.006,0.006,0.013,0.006,0.091,0.0,0.006,0.006,0.019,0.0,0.006,0.006,0.006
5.28,0.19,2.34,-0.82,-0.2,-0.78,3.5,0.0,0.0,0.111,0.0,-13.54,32.26,5.54,4.92,-7.21,10.63,-74.09,95.98,1.76,5.62,-8.79,18.19,-59.94,100.28,19.78,9.4,-8.79,2.8,-20.86,25.73,-3.01,3.58,-3.39,17.76,-69.99,87.38,3.41,-3.15,-19.58,15.11,-64.73,91.88,29.19,1.92,-14.0,0.08,-0.0862,-0.9538,-0.2085,0.3174,-0.8001,0.5388,-0.7999,0.0617,0.0677,0.2015,-1.0,0.4316,-0.5511,0.1899,0.9012,0.282,-1.0,0.033,0.006,0.0,0.0,0.006,0.006,0.006,0.013,0.006,0.091,0.0,0.006,0.006,0.019,0.0,0.006,0.006,0.006
5.32,0.22,2.36,0.5,0.31,0.96,4.0,0.0,0.0,0.111,0.53,-13.62,32.34,5.54,5.71,-7.73,10.55,-74.27,95.71,2.29,5.62,-10.28,18.28,-61.35,99.49,20.57,9.32,-8.35,4.3,-22.36,24.23,-3.7,2.08,-2.66,17.88,-68.49,85.88,2.77,-4.65,-20.0,13.61,-63.23,93.38,27.69,0.42,-15.5,0.149,0.0011,-0.9096,-0.1057,0.363,-0.796,0.5108,-0.746,0.1518,0.0792,0.3319,-1.0,0.3689,-0.5351,0.358,0.7909,0.3239,-1.0,0.019,0.019,0.0,0.019,0.0,0.0,0.006,0.0,0.013,0.019,0.019,0.013,0.006,0.026,0.006,0.013,0.013,0.0
5.36,0.17,2.34,-1.36,-0.9,-3.62,4.5,0.0,0.0,0.111,-0.09,-14.15,32.26,5.01,6.24,-7.82,10.55,-74.0,95.36,3.69,4.83,-11.69,17.93,-62.67,98.44,21.88,8.7,-8.35,5.8,-20.86,22.73,-2.2,0.58,-4.16,17.57,-66.99,87.38,1.27,-3.15,-20.0,13.34,-61.73,94.88,26.19,-1.04,-17.0,0.1656,0.1202,-0.8684,0.025,0.402,-0.8585,0.502,-0.7059,0.2783,0.0112,0.4349,-1.0,0.3813,-0.4292,0.5034,0.6858,0.4357,-1.0,0.019,0.019,0.0,0.019,0.0,0.0,0.006,0.0,0.013,0.019,0.019,0.013,0.006,0.026,0.006,0.013,0.013,0.0
5.4,0.19,2.35,0.86,0.79,2.98,5.0,0.0,0.0,0.111,0.62,-15.12,31.46,3.43,6.42,-7.47,11.07,-73.48,94.13,4.31,3.87,-13.1,17.05,-63.54,97.21,23.2,7.91,-8.53,7.12,-19.36,21.23,-0.7,2.08,-5.66,16.07,-65.49,88.88,-0.23,-1.65,-18.5,11.84,-60.23,96.38,24.69,0.46,-15.5,0.2036,0.2759,-0.7435,0.1134,0.5011,-0.8822,0.4521,-0.6791,0.4179,-0.0316,0.6519,-0.83,0.3345,-0.4318,0.6744,0.5436,0.5383,-0.9248,0.019,0.019,0.0,0.019,0.0,0.0,0.006,0.0,0.013,0.019,0.019,0.013,0.006,0.026,0.006,0.013,0.013,0.0
5.44,0.23,2.36,0.79,0.35,-3.54,5.5,0.0,0.0,0.111,1.67,-16.26,30.59,1.85,6.42,-6.77,12.22,-72.42,92.81,4.66,2.64,-14.5,16.08,-64.25,96.15,24.35,6.68,-9.4,8.62,-17.86,19.73,0.8,3.58,-7.16,14.74,-63.99,90.38,-1.71,-0.15,-17.0,10.5,-58.73,97.88,23.19,1.96,-14.0,0.2838,0.4247,-0.725,0.3262,0.5423,-0.9621,0.4212,-0.67,0.6103,-0.0489,0.7649,-0.8247,0.3001,-0.3732,0.7374,0.4548,0.6639,-0.6055,0.039,0.019,0.013,0.006,0.026,0.006,0.006,0.006,0.019,0.013,0.019,0.006,0.019,0.006,0.006,0.006,0.026,0.013
5.48,0.11,2.32,-2.01,-1.39,2.96,6.0,0.0,0.0,0.111,1.85,-17.31,29.27,1.58,5.89,-6.06,13.27,-71.1,91.58,4.75,1.23,-15.82,14.85,-64.51,95.45,25.22,5.36,-10.37,10.1,-16.36,18.23,2.3,5.08,-8.66,13.94,-62.78,91.88,-3.21,1.35,-15.5,9.83,-57.23,99.38,21.69,3.46,-12.5,0.2887,0.6022,-0.6362,0.4033,0.6146,-1.0,0.3982,-0.6868,0.7075,-0.1519,1.0,-0.602,0.2809,-0.2975,0.8598,0.3822,0.7568,-0.1861,0.039,0.019,0.013,0.006,0.026,0.006,0.006,0.006,0.019,0.013,0.019,0.006,0.019,0.006,0.006,0.006,0.026,0.013
5.52,0.17,2.35,1.17,0.63,-2.22,6.5,0.0,0.0,0.111,4.31,-18.19,27.86,0.18,5.01,-5.8,14.24,-69.79,90.53,4.39,0.18,-16.79,13.36,-64.25,95.1,25.75,4.22,-11.6,9.88,-14.86,19.73,3.8,6.58,-10.16,13.08,-61.28,93.38,-3.47,2.85,-14.0,9.3,-55.73,100.88,20.19,4.96,-11.0,0.2822,0.7218,-0.5076,0.5827,0.7757,-1.0,0.3737,-0.6205,0.7431,-0.0991,1.0,-0.6,0.2656,-0.328,0.8591,0.2872,0.801,-0.0011,0.039,0.019,0.013,0.006,0.026,0.006,0.006,0.006,0.019,0.013,0.019,0.006,0.019,0.006,0.006,0.006,0.026,0.013
5.56,0.15,2.38,-0.82,-0.72,5.09,7.0,0.0,0.0,0.111,4.92,-18.63,26.54,-0.62,4.48,-5.8,14.77,-68.29,89.82,3.34,-0.62,-17.49,11.95,-63.98,95.1,25.93,3.34,-12.48,10.45,-13.36,21.23,5.3,8.08,-11.66,13.54,-62.55,94.88,-4.37,4.35,-12.5,9.94,-54.23,102.38,18.69,6.46,-9.5,0.2984,0.7422,-0.4408,0.6211,0.7825,-1.0,0.3868,-0.6827,0.7985,-0.1249,1.0,-0.5591,0.284,-0.298,0.8303,0.2568,0.9282,0.2698,0.091,0.006,0.019,0.0,0.013,0.019,0.006,0.013,0.006,0.006,0.006,0.0,0.006,0.006,0.006,0.0,0.019,0.006
5.6,0.16,2.42,0.68,0.7,-2.09,7.5,0.0,0.0,0.111,6.68,-18.9,25.05,-0.26,4.13,-6.5,15.03,-66.8,89.38,2.37,-1.14,-17.75,10.9,-62.93,95.27,25.84,2.81,-13.27,9.99,-11.86,22.73,6.8,9.58,-13.16,13.12,-61.05,96.38,-2.87,5.85,-11.0,10.45,-52.73,103.88,17.19,7.96,-8.0,0.2853,0.8001,-0.4174,0.6601,0.8612,-1.0,0.3748,-0.6542,0.769,-0.0504,1.0,-0.6052,0.2987,-0.3359,0.7452,0.3035,0.8923,0.2087,0.091,0.006,0.019,0.0,0.013,0.019,0.006,0.013,0.006,0.006,0.006,0.0,0.006,0.006,0.006,0.0,0.019,0.006
5.64,0.24,2.46,1.31,0.94,-2.2,8.0,0.0,0.0,0.111,8.26,-18.9,23.73,-0.26,4.22,-7.47,15.03,-65.48,89.3,0.97,-1.23,-17.75,10.02,-61.88,96.42,25.05,2.55,-13.71,9.72,-10.36,24.23,8.3,11.08,-14.66,13.6,-60.83,97.88,-1.55,7.35,-9.5,10.2,-51.23,105.38,15.69,9.46,-6.5,0.2779,0.8286,-0.3736,0.6437,0.9013,-0.9795,0.3887,-0.6514,0.7189,-0.0443,1.0,-0.6717,0.2913,-0.3815,0.7606,0.2856,0.9144,0.2934,0.091,0.006,0.019,0.0,0.013,0.019,0.006,0.013,0.006,0.006,0.006,0.0,0.006,0.006,0.006,0.0,0.019,0.006
5.68,0.16,2.41,-1.63,-1.24,3.72,8.5,0.0,0.0,0.111,8.53,-18.19,22.76,0.0,4.39,-8.61,14.85,-64.07,89.56,-0.44,-1.14,-17.49,9.58,-60.56,97.38,24.08,2.64,-13.71,9.97,-8.86,25.73,9.8,12.58,-16.16,14.4,-59.33,99.38,-0.88,8.85,-8.0,11.2,-49.73,106.88,14.19,10.96,-5.0,0.2848,0.8445,-0.4319,0.6702,0.9025,-1.0,0.4113,-0.6081,0.6508,-0.0251,1.0,-0.7735,0.3199,-0.3895,0.6919,0.388,0.9012,0.2241,0.0,0.013,0.006,0.019,0.013,0.019,0.006,0.013,0.013,0.0,0.006,0.013,0.0,0.019,0.013,0.013,0.006,0.0
5.72,0.21,2.43,0.78,0.5,-3.19,9.0,0.0,0.0,0.111,10.28,-17.23,22.06,1.23,5.36,-10.02,14.06,-62.67,89.82,-1.41,-0.44,-16.44,9.4,-59.15,98.79,22.94,2.99,-13.36,9.73,-7.36,24.23,11.3,14.08,-17.56,14.84,-57.83,100.88,0.62,10.35,-9.5,12.26,-51.23,108.38,15.69,12.46,-3.5,0.2779,0.8444,-0.5021,0.6251,1.0,-0.9713,0.424,-0.5176,0.5457,0.0318,1.0,-0.9076,0.3503,-0.4883,0.6386,0.4729,0.7975,0.0389,0.0,0.013,0.006,0.019,0.013,0.019,0.006,0.013,0.013,0.0,0.006,0.013,0.0,0.019,0.013,0.013,0.006,0.0
5.76,0.16,2.38,-1.16,-0.6,3.19,9.5,0.0,0.0,0.111,9.93,-16.0,21.62,2.46,6.42,-11.43,13.89,-61.26,90.88,-2.02,0.53,-15.38,9.58,-57.74,100.2,21.45,3.87,-12.66,9.14,-5.86,22.73,12.8,15.58,-19.06,15.97,-56.33,102.38,-0.88,11.85,-11.0,13.76,-51.98,109.88,17.19,13.96,-2.0,0.2613,0.8569,-0.618,0.5903,0.9504,-1.0,0.4563,-0.4995,0.4401,-0.0341,0.9091,-1.0,0.4183,-0.4906,0.6308,0.5688,0.8067,-0.0588,0.0,0.013,0.006,0.019,0.013,0.019,0.006,0.013,0.013,0.0,0.006,0.013,0.0,0.019,0.013,0.013,0.006,0.0
5.8,0.29,2.48,3.02,2.3,-1.09,10.0,0.0,0.0,0.111,10.2,-14.68,21.53,3.78,7.82,-12.83,13.89,-59.85,92.37,-2.55,1.85,-14.06,10.37,-56.43,101.6,19.95,5.1,-11.51,8.74,-4.36,21.23,14.3,17.08,-20.0,15.13,-54.83,100.88,0.62,13.35,-12.5,15.26,-53.48,111.38,18.69,12.46,-0.5,0.2499,0.8333,-0.774,0.4938,0.9535,-1.0,0.4322,-0.4096,0.3126,0.0334,0.7601,-1.0,0.4701,-0.5867,0.6099,0.6576,0.6583,-0.3523,0.019,0.013,0.0,0.013,0.006,0.019,0.013,0.013,0.026,0.0,0.006,0.0,0.013,0.033,0.013,0.0,0.013,0.013
5.84,0.23,2.43,-1.07,-0.48,-1.68,10.5,0.0,0.0,0.111,10.11,-13.27,21.53,5.19,9.14,-14.24,14.06,-58.54,93.78,-2.46,3.16,-12.83,11.25,-55.2,103.01,18.9,6.42,-10.28,9.47,-2.86,19.73,13.11,18.26,-20.0,15.1,-53.33,99.38,1.66,11.85,-14.0,16.76,-54.98,112.88,20.19,10.96,1.0,0.2706,0.8074,-0.9376,0.3747,0.7865,-1.0,0.4313,-0.4361,0.1916,0.0475,0.5578,-1.0,0.5421,-0.5652,0.6059,0.7786,0.6102,-0.5564,0.019,0.013,0.0,0.013,0.006,0.019,0.013,0.013,0.026,0.0,0.006,0.0,0.013,0.033,0.013,0.0,0.013,0.013
5.88,0.26,2.37,-0.28,-0.51,2.99,11.0,0.0,0.0,0.111,8.79,-11.87,21.53,6.59,10.63,-15.73,14.77,-57.04,95.19,-2.02,4.57,-11.95,12.48,-54.23,104.41,18.02,7.82,-8.96,7.97,-1.36,18.23,11.61,16.76,-18.5,14.17,-51.83,97.88,3.16,10.35,-15.5,18.26,-56.48,114.38,21.69,9.46,-0.5,0.2081,0.7161,-1.0,0.2008,0.7559,-0.8523,0.4049,-0.3601,0.0536,0.0959,0.449,-1.0,0.5389,-0.7176,0.6125,0.8194,0.4166,-0.9006,0.019,0.013,0.0,0.013,0.006,0.019,0.013,0.013,0.026,0.0,0.006,0.0,0.013,0.033,0.013,0.0,0.013,0.013
5.92,0.28,2.42,0.57,0.69,-3.27,11.5,0.0,0.0,0.111,9.14,-10.37,21.09,8.0,12.04,-16.96,14.77,-55.72,96.5,-1.14,5.98,-11.34,13.97,-53.44,105.91,17.49,8.96,-7.56,9.39,0.14,16.73,10.11,15.26,-17.0,14.82,-50.33,96.38,4.66,8.85,-17.0,19.72,-57.98,112.94,23.19,7.96,-2.0,0.2684,0.5984,-1.0,0.1211,0.658,-0.8165,0.4235,-0.4176,-0.0097,0.1731,0.3145,-1.0,0.5633,-0.7265,0.564,0.8972,0.3529,-1.0,0.033,0.006,0.013,0.006,0.006,0.006,0.0,0.019,0.013,0.0,0.0,0.0,0.013,0.013,0.013,0.006,0.0,0.013
5.96,0.22,2.38,-0.59,-0.85,2.26,12.0,0.0,0.0,0.111,7.73,-8.96,20.3,9.23,13.36,-18.02,14.77,-54.32,97.47,0.09,7.38,-11.16,15.38,-53.0,107.31,17.31,9.84,-6.06,9.01,1.64,15.23,8.61,13.76,-15.5,16.14,-48.83,94.88,4.45,7.35,-18.5,20.19,-59.48,112.82,24.69,6.46,-3.5,0.2575,0.5434,-1.0,0.0449,0.5525,-0.7688,0.4611,-0.4331,-0.0747,0.127,0.2637,-1.0,0.5769,-0.7498,0.5626,0.898,0.3052,-1.0,0.033,0.006,0.013,0.006,0.006,0.006,0.0,0.019,0.013,0.0,0.0,0.0,0.013,0.013,0.013,0.006,0.0,0.013
6.0,0.21,2.33,-0.3,-0.27,-3.32,12.5,0.0,0.0,0.111,8.7,-6.15,17.93,10.81,15.21,-19.07,15.12,-51.42,98.79,2.64,9.23,-11.95,18.19,-53.44,110.04,18.19,10.72,-3.69,10.51,1.76,13.73,7.11,12.26,-14.0,16.63,-48.9,93.38,5.95,5.85,-20.0,20.87,-60.98,111.9,26.19,4.96,-5.0,0.3033,0.4865,-1.0,0.0382,0.53,-0.7264,0.4752,-0.4346,-0.1069,0.1992,0.2205,-1.0,0.5963,-0.7827,0.5517,0.896,0.2596,-1.0,0.013,0.0,0.006,0.0,0.0,0.006,0.006,0.0,0.0,0.013,0.0,0.006,0.006,0.013,0.006,0.013,0.006,0.006
6.04,0.19,2.29,-0.71,-0.96,3.26,13.0,0.0,0.0,0.111,8.53,-5.1,16.88,11.16,15.64,-19.07,15.56,-50.54,98.88,3.69,9.58,-12.66,18.98,-53.88,110.83,18.9,10.72,-3.08,10.86,1.52,12.23,5.61,10.76,-12.5,18.13,-49.43,91.88,4.91,4.35,-20.0,21.29,-62.48,113.4,27.69,3.46,-6.5,0.3102,0.4822,-1.0,0.0446,0.4745,-0.6874,0.5197,-0.4442,-0.0941,0.1402,0.3157,-1.0,0.6083,-0.7458,0.5759,0.8489,0.2601,-1.0,0.013,0.0,0.006,0.0,0.0,0.006,0.006,0.0,0.0,0.013,0.0,0.006,0.006,0.013,0.006,0.013,0.006,0.006
6.08,0.25,2.32,0.78,0.59,-1.92,13.5,0.0,0.0,0.111,10.11,-3.69,15.64,11.16,15.91,-18.81,16.08,-49.75,98.79,4.66,9.93,-13.62,19.86,-54.76,111.71,20.04,10.37,-2.46,12.12,2.08,10.73,4.78,9.26,-11.0,18.21,-48.48,90.38,5.31,2.85,-20.0,20.89,-62.75,114.9,26.66,1.96,-8.0,0.3463,0.4924,-1.0,0.1366,0.5234,-0.6921,0.5204,-0.4268,0.0012,0.1518,0.4091,-1.0,0.597,-0.6864,0.6223,0.7616,0.3308,-1.0,0.013,0.0,0.006,0.0,0.0,0.006,0.006,0.0,0.0,0.013,0.0,0.006,0.006,0.013,0.006,0.013,0.006,0.006
6.12,0.21,2.31,-1.56,-0.49,-0.05,14.0,0.0,0.0,0.111,10.63,-2.2,14.41,11.16,15.91,-18.02,16.7,-48.87,98.53,5.27,9.84,-15.03,20.65,-55.9,112.68,21.53,9.67,-2.29,11.85,3.58,9.23,6.28,7.76,-9.5,18.02,-47.29,88.88,3.81,4.35,-20.0,20.32,-61.25,116.4,25.16,0.46,-9.5,0.3386,0.5627,-1.0,0.2,0.5393,-0.7503,0.5149,-0.4052,0.1263,0.0402,0.5538,-1.0,0.5806,-0.5743,0.6917,0.6557,0.4376,-1.0,0.033,0.006,0.019,0.026,0.019,0.006,0.006,0.006,0.026,0.006,0.013,0.013,0.006,0.033,0.006,0.006,0.033,0.006
6.16,0.23,2.35,0.69,0.62,0.78,14.5,0.0,0.0,0.111,11.25,-0.79,13.01,10.72,15.38,-16.88,17.4,-48.34,97.82,5.8,9.32,-16.44,21.01,-57.22,113.91,22.76,8.7,-2.29,10.92,5.08,7.73,7.78,9.26,-8.0,17.15,-45.79,87.38,2.31,5.85,-18.5,18.82,-59.75,117.9,23.66,1.96,-8.0,0.3119,0.6262,-0.9441,0.2648,0.6599,-0.7923,0.4901,-0.3525,0.2504,-0.0025,0.7459,-0.8385,0.5371,-0.5338,0.7819,0.5149,0.5079,-0.788,0.033,0.006,0.019,0.026,0.019,0.006,0.006,0.006,0.026,0.006,0.013,0.013,0.006,0.033,0.006,0.006,0.033,0.006
6.2,0.25,2.39,0.95,0.81,-1.13,15.0,0.0,0.0,0.111,12.3,0.62,11.69,9.05,14.5,-15.64,17.75,-47.72,96.42,5.8,8.35,-17.75,21.09,-58.54,115.14,23.82,7.29,-2.99,12.42,6.58,6.23,9.28,10.76,-9.5,16.02,-44.98,88.88,0.81,7.35,-17.0,18.22,-58.25,119.4,22.16,3.46,-6.5,0.3861,0.6798,-0.8449,0.4204,0.7054,-0.9142,0.4576,-0.3633,0.4045,-0.0261,0.896,-0.692,0.5206,-0.3818,0.7842,0.4439,0.6456,-0.5417,0.033,0.006,0.019,0.026,0.019,0.006,0.006,0.006,0.026,0.006,0.013,0.013,0.006,0.033,0.006,0.006,0.033,0.006
6.24,0.26,2.37,-0.19,-0.42,1.96,15.5,0.0,0.0,0.111,11.78,2.11,10.28,8.44,13.45,-14.15,17.75,-46.23,95.01,5.36,7.47,-18.81,20.57,-59.68,116.54,24.43,6.06,-3.87,13.75,8.08,4.73,10.78,12.26,-11.0,15.54,-45.24,90.38,-0.69,8.85,-15.5,16.72,-56.75,120.9,20.66,4.96,-5.0,0.3929,0.7361,-0.8067,0.5184,0.7769,-0.9596,0.4441,-0.368,0.5435,-0.0707,1.0,-0.5503,0.4496,-0.2765,0.8068,0.3893,0.7487,-0.2673,0.019,0.006,0.006,0.013,0.019,0.0,0.006,0.006,0.019,0.006,0.013,0.006,0.006,0.019,0.006,0.0,0.033,0.013
6.28,0.29,2.37,0.64,0.71,-2.42,16.0,0.0,0.0,0.111,12.74,3.43,8.88,8.26,12.48,-12.83,17.75,-45.79,93.69,4.39,6.77,-19.51,19.78,-60.47,117.86,24.87,5.01,-4.92,15.12,9.58,3.72,12.28,13.76,-12.5,14.55,-46.74,91.88,-1.59,10.35,-14.0,15.68,-55.25,122.4,19.16,6.46,-3.5,0.432,0.7906,-0.7209,0.6106,0.8473,-1.0,0.4156,-0.4105,0.5938,-0.0455,1.0,-0.489,0.4481,-0.2257,0.7603,0.3929,0.7996,-0.1671,0.019,0.006,0.006,0.013,0.019,0.0,0.006,0.006,0.019,0.006,0.013,0.006,0.006,0.019,0.006,0.0,0.033,0.013
6.32,0.32,2.35,-0.4,-0.26,0.68,16.5,0.0,0.0,0.111,13.18,4.92,7.38,7.73,11.78,-11.87,16.88,-45.09,92.55,3.43,6.42,-19.86,18.72,-60.91,119.18,24.87,4.22,-5.71,13.62,11.08,5.22,13.78,15.26,-14.0,13.3,-48.24,93.38,-3.04,11.85,-12.5,14.26,-53.75,123.9,17.66,7.96,-2.0,0.3869,0.8082,-0.6702,0.6452,0.8281,-1.0,0.3799,-0.4417,0.641,-0.0869,1.0,-0.4979,0.4074,-0.1698,0.767,0.3613,0.8612,-0.0266,0.019,0.006,0.006,0.013,0.019,0.0,0.006,0.006,0.019,0.006,0.013,0.006,0.006,0.019,0.006,0.0,0.033,0.013
6.36,0.36,2.36,0.44,0.35,1.95,17.0,0.0,0.0,0.111,13.71,6.33,6.15,7.65,11.34,-11.16,15.73,-45.09,91.67,2.11,6.33,-19.86,17.4,-61.0,120.59,24.43,3.69,-6.15,13.18,12.58,6.72,15.28,16.76,-15.5,13.17,-48.2,94.88,-2.98,13.35,-11.0,14.59,-52.25,125.4,16.16,9.46,-0.5,0.3766,0.8304,-0.683,0.6742,0.8593,-1.0,0.3764,-0.4218,0.6221,-0.0852,1.0,-0.5459,0.4169,-0.1786,0.7199,0.4167,0.8543,-0.0365,0.013,0.006,0.006,0.013,0.0,0.006,0.006,0.013,0.013,0.013,0.0,0.0,0.013,0.006,0.013,0.006,0.006,0.0
6.4,0.36,2.39,0.73,0.53,-2.04,17.5,0.0,0.0,0.111,14.5,7.73,5.19,8.35,11.25,-10.72,14.77,-45.44,91.05,0.62,6.59,-19.6,16.17,-60.56,122.08,23.55,3.52,-6.24,12.74,14.08,5.22,16.78,18.26,-17.0,12.42,-47.39,96.38,-3.49,14.85,-9.5,15.28,-50.75,123.9,16.78,10.96,1.0,0.3639,0.8463,-0.7056,0.6892,0.8433,-1.0,0.3549,-0.4071,0.6187,-0.0996,1.0,-0.6648,0.4366,-0.1659,0.6811,0.4794,0.8682,-0.0819,0.013,0.006,0.006,0.013,0.0,0.006,0.006,0.013,0.013,0.013,0.0,0.0,0.013,0.006,0.013,0.006,0.006,0.0
6.44,0.34,2.38,-0.3,-0.35,1.03,18.0,0.0,0.0,0.111,13.62,9.14,4.48,9.49,11.43,-10.81,13.89,-46.23,90.79,-0.7,7.38,-18.63,15.38,-60.03,123.31,22.5,3.52,-6.06,11.24,15.58,3.72,18.28,19.76,-18.5,11.99,-45.89,97.88,-4.99,16.35,-8.0,15.38,-49.25,125.14,18.1,12.46,2.5,0.3096,0.8847,-0.7525,0.624,0.8406,-1.0,0.3427,-0.3463,0.5744,-0.1669,0.9968,-0.7482,0.4395,-0.2013,0.7075,0.5172,0.813,-0.1411,0.013,0.006,0.006,0.013,0.0,0.006,0.006,0.013,0.013,0.013,0.0,0.0,0.013,0.006,0.013,0.006,0.006,0.0
6.48,0.4,2.41,1.17,0.82,0.31,18.5,0.0,0.0,0.111,13.71,10.46,4.04,10.63,12.13,-11.25,13.1,-46.85,90.88,-2.02,8.35,-17.58,14.68,-58.97,124.28,21.09,4.13,-5.36,9.74,17.08,2.22,19.78,21.26,-20.0,11.11,-44.39,99.38,-4.72,17.85,-9.5,16.39,-47.75,124.95,19.58,13.96,4.0,0.2616,0.8966,-0.8171,0.5967,0.8634,-1.0,0.3175,-0.2633,0.5132,-0.1348,0.8747,-0.9532,0.4683,-0.2442,0.7053,0.5595,0.7777,-0.2409,0.071,0.006,0.0,0.019,0.013,0.006,0.006,0.006,0.013,0.013,0.006,0.013,0.006,0.026,0.0,0.013,0.006,0.013
6.52,0.37,2.38,-0.69,-0.2,-1.4,19.0,0.0,0.0,0.111,12.74,11.95,3.69,12.04,13.1,-12.13,12.3,-47.29,91.14,-3.25,9.76,-16.35,14.33,-57.74,124.98,19.95,4.92,-4.39,8.24,18.58,0.72,18.28,19.76,-20.0,11.04,-42.89,100.88,-6.22,16.81,-11.0,17.89,-46.25,126.28,21.08,13.71,5.5,0.2247,0.9052,-0.9252,0.49,0.786,-1.0,0.3154,-0.2267,0.423,-0.1805,0.7602,-1.0,0.5408,-0.2727,0.7209,0.647,0.7038,-0.3621,0.071,0.006,0.0,0.019,0.013,0.006,0.006,0.006,0.013,0.013,0.006,0.013,0.006,0.026,0.0,0.013,0.006,0.013
6.56,0.38,2.36,0.51,0.08,2.42,19.5,0.0,0.0,0.111,11.07,13.36,3.08,13.45,14.41,-13.18,11.69,-47.11,91.49,-4.13,11.16,-14.77,14.33,-56.43,125.33,19.07,6.33,-3.16,6.74,20.08,-0.78,16.78,18.26,-20.0,10.51,-41.39,99.38,-5.03,15.31,-12.5,19.17,-46.37,127.78,22.58,12.21,7.0,0.1614,0.892,-1.0,0.3796,0.758,-1.0,0.3002,-0.1439,0.3059,-0.1437,0.6569,-1.0,0.5477,-0.3885,0.7655,0.6754,0.5863,-0.5496,0.071,0.006,0.0,0.019,0.013,0.006,0.006,0.006,0.013,0.013,0.006,0.013,0.006,0.026,0.0,0.013,0.006,0.013
6.6,0.34,2.36,-0.37,0.28,-2.09,20.0,0.0,0.0,0.111,10.63,14.85,2.29,14.77,15.73,-14.59,11.16,-46.67,92.99,-5.01,12.39,-13.54,14.94,-55.11,126.12,18.46,7.65,-1.85,7.06,21.58,-2.28,15.28,16.76,-19.84,10.29,-39.89,97.88,-3.53,13.81,-14.0,20.6,-47.87,129.09,24.08,10.71,5.5,0.2016,0.8662,-1.0,0.303,0.6734,-0.9982,0.294,-0.131,0.2212,-0.0643,0.5097,-1.0,0.5885,-0.436,0.754,0.745,0.4996,-0.7586,0.019,0.006,0.013,0.013,0.0,0.013,0.006,0.006,0.019,0.006,0.0,0.006,0.0,0.033,0.013,0.0,0.006,0.019
6.64,0.33,2.35,-0.25,-0.55,2.33,20.5,0.0,0.0,0.111,8.35,16.26,1.23,15.91,16.79,-16.0,10.72,-45.62,94.39,-5.54,13.54,-12.57,15.91,-53.61,127.0,18.19,8.96,-0.35,6.0,21.36,-3.78,13.78,15.26,-18.34,11.79,-38.39,96.38,-2.03,12.31,-15.5,20.37,-49.37,129.73,25.58,9.21,4.0,0.1716,0.843,-1.0,0.1915,0.617,-0.8738,0.3422,-0.0948,0.0957,-0.0353,0.453,-1.0,0.582,-0.531,0.7616,0.7577,0.406,-0.9076,0.019,0.006,0.013,0.013,0.0,0.013,0.006,0.006,0.019,0.006,0.0,0.006,0.0,0.033,0.013,0.0,0.006,0.019
6.68,0.36,2.38,0.33,0.93,-1.43,21.0,0.0,0.0,0.111,8.0,17.67,-0.09,16.61,17.49,-17.31,10.55,-44.82,95.54,-5.89,14.41,-11.87,16.88,-52.21,128.06,18.19,10.02,0.97,7.5,19.86,-5.28,12.28,13.76,-16.84,12.9,-36.89,94.88,-0.53,10.81,-17.0,20.5,-50.87,128.23,27.08,7.71,2.5,0.2406,0.7905,-1.0,0.1617,0.5832,-0.7822,0.3686,-0.1137,0.0275,0.0947,0.3835,-1.0,0.5856,-0.595,0.7319,0.8078,0.3424,-1.0,0.019,0.006,0.013,0.013,0.0,0.013,0.006,0.006,0.019,0.006,0.0,0.006,0.0,0.033,0.013,0.0,0.006,0.019
6.72,0.36,2.34,-0.44,-0.49,-0.97,21.5,0.0,0.0,0.111,7.12,18.9,-1.49,17.23,18.02,-18.37,10.55,-43.07,96.42,-5.8,14.94,-11.6,18.19,-51.06,128.85,18.98,10.81,2.11,9.0,18.36,-6.78,10.78,12.26,-15.34,13.96,-35.39,93.38,0.97,9.31,-18.5,20.31,-52.37,126.73,28.35,6.21,1.0,0.2682,0.7702,-1.0,0.1432,0.5345,-0.6903,0.399,-0.125,-0.0042,0.0951,0.3804,-1.0,0.5802,-0.608,0.7088,0.8099,0.3265,-1.0,0.019,0.0,0.013,0.0,0.0,0.006,0.013,0.0,0.006,0.006,0.0,0.0,0.006,0.006,0.006,0.006,0.0,0.006
6.76,0.34,2.39,0.22,0.23,5.0,22.0,0.0,0.0,0.111,5.89,19.86,-2.81,17.4,18.19,-19.16,11.07,-41.84,97.12,-5.1,15.03,-11.6,19.16,-50.27,129.46,19.86,11.34,2.99,9.91,16.86,-8.28,9.28,10.76,-13.84,15.16,-33.89,91.88,2.47,7.81,-20.0,20.17,-53.87,127.91,27.64,4.71,-0.5,0.283,0.7527,-1.0,0.1484,0.5352,-0.6169,0.4331,-0.1385,-0.0248,0.12,0.4463,-1.0,0.5764,-0.6207,0.7402,0.7896,0.3023,-1.0,0.019,0.0,0.013,0.0,0.0,0.006,0.013,0.0,0.006,0.006,0.0,0.0,0.006,0.006,0.006,0.006,0.0,0.006
6.8,0.31,2.43,0.37,0.03,-4.64,22.5,0.0,0.0,0.111,6.42,20.65,-4.22,17.31,18.11,-19.69,12.13,-40.52,97.38,-4.04,15.03,-11.78,19.86,-49.75,129.64,21.01,11.43,3.52,11.41,16.8,-9.78,7.78,9.26,-12.34,15.89,-34.38,90.38,3.97,6.31,-20.0,20.92,-55.37,128.72,26.46,3.21,-2.0,0.3549,0.76,-1.0,0.2188,0.5537,-0.5979,0.4541,-0.1705,0.0256,0.121,0.4646,-1.0,0.5977,-0.569,0.7496,0.756,0.3482,-1.0,0.019,0.0,0.013,0.0,0.0,0.006,0.013,0.0,0.006,0.006,0.0,0.0,0.006,0.006,0.006,0.006,0.0,0.006
6.84,0.3,2.4,0.94,0.68,2.38,23.0,0.0,0.0,0.111,5.8,21.09,-5.62,17.14,17.58,-19.78,13.27,-39.11,97.38,-2.81,14.5,-13.01,20.39,-49.75,129.64,22.41,11.43,3.78,11.85,18.3,-11.28,7.62,7.76,-10.84,15.85,-34.88,88.88,2.47,7.81,-18.5,19.53,-53.89,130.22,24.96,1.71,-3.5,0.3386,0.8093,-1.0,0.2178,0.5626,-0.5705,0.4528,-0.1796,0.0815,-0.0059,0.6035,-0.9813,0.5579,-0.5253,0.8395,0.6782,0.3768,-1.0,0.033,0.0,0.013,0.019,0.019,0.006,0.006,0.026,0.006,0.019,0.019,0.006,0.0,0.0,0.006,0.013,0.019,0.0
6.88,0.32,2.43,0.65,0.17,-0.95,23.5,0.0,0.0,0.111,7.29,21.18,-7.03,15.56,16.7,-19.51,14.24,-37.79,97.03,-1.49,13.54,-13.97,20.74,-50.01,128.85,23.73,10.81,3.78,13.35,19.8,-12.78,9.12,9.26,-9.34,15.23,-36.28,87.38,0.97,9.31,-17.0,18.91,-52.39,131.72,23.46,0.21,-5.0,0.3855,0.8204,-1.0,0.3085,0.6406,-0.5795,0.4351,-0.2051,0.1936,-0.0289,0.7071,-0.8138,0.5404,-0.4523,0.9126,0.5713,0.4341,-0.8251,0.033,0.0,0.013,0.019,0.019,0.006,0.006,0.026,0.006,0.019,0.019,0.006,0.0,0.0,0.006,0.013,0.019,0.0
6.92,0.27,2.4,-1.74,-1.15,-0.5,24.0,0.0,0.0,0.111,7.56,21.01,-8.44,14.5,15.38,-18.63,14.94,-36.56,96.68,-0.09,12.3,-15.21,20.65,-50.54,129.02,24.61,9.93,3.16,13.69,21.3,-14.28,10.62,10.76,-7.84,15.13,-37.78,88.88,-0.53,10.81,-15.5,17.41,-50.89,133.22,21.96,1.71,-3.5,0.3912,0.8678,-0.9557,0.4088,0.7053,-0.5905,0.4324,-0.2402,0.301,-0.1368,0.8381,-0.6471,0.4972,-0.3465,0.9316,0.5336,0.5051,-0.6228,0.033,0.0,0.013,0.019,0.019,0.006,0.006,0.026,0.006,0.019,0.019,0.006,0.0,0.0,0.006,0.013,0.019,0.0
6.96,0.33,2.52,2.06,1.33,1.61,24.5,0.0,0.0,0.111,8.7,20.48,-9.84,13.01,14.06,-17.58,15.38,-35.77,95.45,0.88,11.34,-16.17,19.95,-51.33,129.55,25.31,8.7,2.2,14.1,22.8,-12.78,12.12,12.26,-6.34,14.94,-39.28,90.38,-2.03,12.31,-14.0,15.91,-49.39,134.72,20.46,3.21,-2.0,0.4028,0.8959,-0.8496,0.5286,0.82,-0.6229,0.4269,-0.2935,0.4077,-0.1824,0.9542,-0.5055,0.4381,-0.2882,0.9227,0.4887,0.5728,-0.427,0.0,0.006,0.006,0.0,0.019,0.013,0.0,0.006,0.013,0.006,0.013,0.006,0.006,0.0,0.0,0.006,0.039,0.013
7.0,0.27,2.5,-0.34,-0.1,-2.25,25.0,0.0,0.0,0.111,10.63,20.21,-11.16,11.6,13.01,-16.26,15.47,-35.16,93.96,1.58,10.46,-16.79,19.07,-51.68,130.43,25.75,7.38,1.14,15.6,24.3,-11.28,13.62,13.76,-4.84,14.82,-40.78,91.88,-3.53,13.81,-12.5,14.47,-47.89,136.22,18.96,4.71,-0.5,0.4553,0.9178,-0.8012,0.6916,0.8134,-0.7285,0.4235,-0.3956,0.5654,-0.2183,0.958,-0.5135,0.4134,-0.1133,0.8909,0.4725,0.7462,-0.2297,0.0,0.006,0.006,0.0,0.019,0.013,0.0,0.006,0.013,0.006,0.013,0.006,0.006,0.0,0.0,0.006,0.039,0.013
7.04,0.26,2.49,-0.47,-0.53,3.54,25.5,0.0,0.0,0.111,11.25,20.39,-12.3,11.51,12.13,-14.85,15.47,-34.89,92.81,2.11,9.93,-17.05,17.93,-51.68,131.48,25.75,6.06,0.0,14.1,25.8,-9.78,15.12,15.26,-3.34,13.62,-42.28,93.38,-5.03,15.31,-11.0,12.97,-46.39,137.72,17.46,6.21,1.0,0.4025,0.938,-0.7874,0.6828,0.8538,-0.7278,0.3893,-0.3951,0.6116,-0.31,1.0,-0.4213,0.3582,-0.0927,0.8778,0.4811,0.7372,-0.1144,0.0,0.006,0.006,0.0,0.019,0.013,0.0,0.006,0.013,0.006,0.013,0.006,0.006,0.0,0.0,0.006,0.039,0.013
7.08,0.25,2.46,-0.45,-0.32,-3.88,26.0,0.0,0.0,0.111,13.45,20.65,-13.1,10.81,11.51,-13.45,15.12,-35.24,91.85,2.2,9.76,-17.05,16.61,-51.24,132.98,25.22,5.1,-0.88,13.66,26.01,-8.28,16.62,16.76,-4.74,12.39,-43.78,94.88,-6.53,16.81,-9.5,13.45,-44.89,136.22,18.15,7.71,2.5,0.3903,0.9275,-0.7618,0.7788,0.8667,-0.8205,0.3541,-0.4105,0.6452,-0.2968,0.993,-0.5326,0.3843,-0.0566,0.8035,0.5184,0.837,-0.0673,0.006,0.006,0.006,0.006,0.013,0.019,0.006,0.0,0.013,0.013,0.006,0.013,0.006,0.006,0.013,0.0,0.019,0.013
7.12,0.23,2.45,0.07,-0.4,2.27,26.5,0.0,0.0,0.111,13.45,21.62,-13.62,10.46,11.25,-11.95,14.24,-36.04,91.23,1.93,9.84,-16.61,15.29,-50.71,134.21,24.43,4.31,-1.49,12.16,25.86,-6.78,18.12,18.26,-6.24,12.27,-45.28,96.38,-8.03,18.31,-8.0,12.72,-43.39,134.72,19.65,9.21,4.0,0.3439,0.9248,-0.818,0.7001,0.8449,-0.8495,0.3506,-0.3796,0.6466,-0.4014,1.0,-0.5222,0.3636,-0.066,0.8111,0.5629,0.7957,-0.0492,0.006,0.006,0.006,0.006,0.013,0.019,0.006,0.0,0.013,0.013,0.006,0.013,0.006,0.006,0.013,0.0,0.019,0.013
7.16,0.3,2.49,1.05,0.87,-0.78,27.0,0.0,0.0,0.111,14.85,22.68,-13.71,10.46,11.25,-10.55,13.36,-36.91,90.79,0.88,10.46,-15.47,14.33,-49.66,135.18,23.29,3.87,-1.76,11.12,25.33,-8.28,19.62,19.76,-7.74,10.95,-43.78,97.88,-9.53,19.81,-6.5,14.22,-41.89,133.22,21.15,10.71,5.5,0.3177,0.9151,-0.8663,0.7296,0.8279,-0.9372,0.3127,-0.3354,0.6253,-0.3491,0.9085,-0.6866,0.4115,-0.0711,0.7573,0.6492,0.8202,-0.1184,0.006,0.006,0.006,0.006,0.013,0.019,0.006,0.0,0.013,0.013,0.006,0.013,0.006,0.006,0.013,0.0,0.019,0.013
7.2,0.34,2.44,0.18,-0.26,-2.18,27.5,0.0,0.0,0.111,15.29,23.91,-13.62,11.16,11.69,-9.32,12.66,-38.06,90.79,0.18,11.34,-14.41,13.54,-48.6,135.7,22.24,3.78,-1.58,9.62,25.49,-9.78,21.12,18.26,-9.24,11.24,-42.28,99.38,-11.03,19.78,-5.0,15.72,-40.39,132.13,22.65,12.21,7.0,0.2354,0.918,-0.9633,0.6179,0.7815,-0.9837,0.3212,-0.3001,0.5609,-0.3934,0.8142,-0.8114,0.4665,-0.1144,0.7898,0.7145,0.7745,-0.1776,0.013,0.0,0.006,0.013,0.013,0.013,0.006,0.019,0.0,0.019,0.013,0.013,0.006,0.065,0.006,0.0,0.006,0.019
7.24,0.32,2.47,0.89,-0.22,3.52,28.0,0.0,0.0,0.111,14.77,24.79,-12.92,12.22,12.57,-8.26,11.87,-39.46,91.05,-1.23,12.66,-13.01,13.1,-47.37,136.05,21.45,3.96,-1.14,8.12,24.14,-11.28,19.62,16.76,-10.74,10.47,-40.78,100.88,-12.53,18.28,-6.5,17.22,-38.89,133.63,24.15,12.98,8.5,0.1541,0.8934,-1.0,0.5298,0.7324,-1.0,0.2992,-0.2349,0.4589,-0.3948,0.7588,-0.912,0.5047,-0.1926,0.839,0.748,0.6906,-0.2807,0.013,0.0,0.006,0.013,0.013,0.013,0.006,0.019,0.0,0.019,0.013,0.013,0.006,0.065,0.006,0.0,0.006,0.019
7.28,0.37,2.43,1.0,-0.48,-3.72,28.5,0.0,0.0,0.111,15.12,25.31,-12.04,13.45,13.71,-7.56,11.34,-40.52,91.32,-2.64,13.97,-11.51,12.92,-46.14,136.05,20.92,4.57,-0.26,6.62,23.4,-12.78,18.12,15.26,-12.24,10.96,-39.28,99.38,-12.6,16.78,-8.0,18.72,-37.39,135.13,25.65,11.88,10.0,0.0934,0.88,-1.0,0.474,0.6846,-1.0,0.3131,-0.1825,0.3954,-0.36,0.6373,-1.0,0.5724,-0.2217,0.8662,0.7709,0.6705,-0.4083,0.013,0.0,0.006,0.013,0.013,0.013,0.006,0.019,0.0,0.019,0.013,0.013,0.006,0.065,0.006,0.0,0.006,0.019
7.32,0.5,2.42,3.43,-0.07,-4.44,29.0,0.0,0.0,0.117,13.27,25.58,-11.34,14.85,14.85,-7.21,10.9,-41.31,92.64,-4.04,15.29,-10.2,13.01,-44.91,135.62,20.83,5.54,0.88,5.12,23.53,-14.28,16.62,13.76,-13.74,11.91,-37.78,97.88,-13.82,15.28,-9.5,19.97,-38.89,136.63,27.11,10.38,11.5,0.0092,0.8824,-1.0,0.3464,0.6015,-1.0,0.3404,-0.1441,0.3144,-0.395,0.6028,-1.0,0.5706,-0.2802,0.9601,0.7747,0.5695,-0.5125,0.0,0.0,0.0,0.006,0.006,0.006,0.0,0.006,0.019,0.019,0.0,0.0,0.013,0.117,0.0,0.0,0.013,0.013
7.36,0.79,2.62,8.35,4.0,2.47,29.5,0.0,0.0,0.117,13.36,25.58,-10.99,16.0,15.64,-7.21,10.72,-41.84,94.04,-5.45,16.35,-9.23,13.89,-43.51,135.18,21.01,6.86,2.2,3.62,23.44,-15.78,15.12,12.26,-15.24,12.94,-36.28,96.38,-12.32,13.78,-11.0,19.86,-40.18,138.13,26.56,8.88,12.75,0.0055,0.8806,-1.0,0.2983,0.5142,-1.0,0.3698,-0.12,0.2185,-0.3164,0.5566,-1.0,0.5674,-0.276,1.0,0.7588,0.5168,-0.6147,0.0,0.0,0.0,0.006,0.006,0.006,0.0,0.006,0.019,0.019,0.0,0.0,0.013,0.117,0.0,0.0,0.013,0.013
7.4,1.25,2.75,10.47,5.71,1.29,30.0,0.0,0.0,0.117,11.16,25.22,-10.9,16.88,16.35,-7.56,10.72,-42.1,95.27,-6.86,17.14,-8.53,14.77,-42.19,135.09,21.88,8.0,3.6,2.12,23.85,-17.28,13.62,10.76,-16.74,14.41,-34.78,94.88,-10.82,12.28,-12.5,21.36,-38.68,139.63,27.03,7.38,11.25,0.0336,0.8882,-1.0,0.2627,0.4406,-1.0,0.4118,-0.134,0.1653,-0.2734,0.4488,-1.0,0.6248,-0.2271,1.0,0.7721,0.507,-0.718,0.0,0.0,0.0,0.006,0.006,0.006,0.0,0.006,0.019,0.019,0.0,0.0,0.013,0.117,0.0,0.0,0.013,0.013
7.44,1.25,2.88,0.67,0.08,7.34,30.5,0.0,0.0,0.182,9.84,24.52,-11.16,17.49,16.52,-8.53,11.34,-41.75,96.24,-8.17,17.67,-8.17,16.0,-41.22,135.26,22.76,8.96,5.01,2.31,24.09,-18.78,12.12,9.26,-18.24,14.32,-34.71,93.38,-9.32,10.78,-14.0,20.84,-37.18,141.13,26.81,5.88,9.75,0.0661,0.8925,-1.0,0.2431,0.3015,-1.0,0.4093,-0.1765,0.144,-0.1967,0.4718,-1.0,0.5954,-0.149,1.0,0.766,0.499,-0.7762,0.052,0.013,0.013,0.006,0.0,0.013,0.013,0.006,0.013,0.013,0.0,0.0,0.026,0.182,0.052,0.019,0.0,0.013
7.48,1.18,2.82,-1.88,-0.65,-0.95,31.0,0.0,0.0,0.182,8.79,24.08,-11.87,17.67,16.52,-9.58,12.39,-41.04,96.94,-9.32,17.84,-8.17,17.31,-40.43,135.97,23.99,9.67,6.42,0.81,25.51,-20.0,10.62,7.76,-16.74,15.82,-33.21,91.88,-7.82,9.28,-15.5,19.94,-38.68,142.63,25.46,4.38,8.25,0.0171,0.9184,-1.0,0.2251,0.5223,-0.8938,0.4923,-0.1264,0.1023,-0.165,0.4715,-1.0,0.5698,-0.2743,1.0,0.7274,0.4139,-0.9213,0.052,0.013,0.013,0.006,0.0,0.013,0.013,0.006,0.013,0.013,0.0,0.0,0.026,0.182,0.052,0.019,0.0,0.013
7.52,1.36,2.82,4.19,1.29,3.7,31.5,0.0,0.0,0.182,6.68,23.99,-12.92,17.67,16.08,-10.9,13.27,-40.25,97.29,-10.02,17.75,-8.44,18.46,-39.55,136.76,25.14,10.11,7.65,2.02,25.13,-20.0,9.12,6.26,-15.24,16.64,-34.61,90.38,-6.32,8.79,-17.0,18.44,-39.32,144.13,24.15,2.88,6.75,0.0578,0.9115,-1.0,0.2536,0.545,-0.8011,0.4753,-0.1748,0.1645,-0.0902,0.6144,-1.0,0.5056,-0.2604,1.0,0.6901,0.4126,-0.9026,0.052,0.013,0.013,0.006,0.0,0.013,0.013,0.006,0.013,0.013,0.0,0.0,0.026,0.182,0.052,0.019,0.0,0.013
7.56,1.89,3.13,14.77,7.32,5.08,32.0,0.0,0.0,0.26,6.24,24.08,-14.24,17.67,15.21,-12.39,14.33,-39.02,97.38,-10.55,17.05,-9.49,19.42,-39.02,138.08,25.93,10.11,8.53,3.52,24.95,-20.0,10.62,4.76,-13.74,15.94,-36.11,88.88,-4.82,10.29,-18.5,17.17,-37.82,145.63,23.01,1.91,5.25,0.1875,0.9081,-1.0,0.3362,0.5059,-0.8126,0.4556,-0.2091,0.2219,-0.0008,0.6544,-0.9847,0.4907,-0.1052,1.0,0.6573,0.4894,-0.8639,0.039,0.006,0.013,0.026,0.026,0.006,0.013,0.0,0.0,0.0,0.026,0.013,0.006,0.26,0.111,0.006,0.013,0.006
7.6,2.61,3.4,17.34,7.94,-1.51,32.5,0.0,0.0,0.26,3.96,24.52,-15.56,16.7,14.06,-13.54,15.21,-37.71,97.12,-10.72,16.08,-10.55,20.13,-38.94,139.66,26.37,9.93,9.14,5.02,25.18,-19.04,12.12,3.26,-12.24,15.24,-37.61,90.38,-3.32,10.92,-17.0,17.94,-36.32,147.13,22.47,3.41,4.92,0.3319,0.9124,-0.9887,0.4035,0.3763,-0.8262,0.4353,-0.2959,0.3202,0.005,0.6531,-0.8047,0.5127,0.1359,1.0,0.642,0.6554,-0.7069,0.039,0.006,0.013,0.026,0.026,0.006,0.013,0.0,0.0,0.0,0.026,0.013,0.006,0.26,0.111,0.006,0.013,0.006
7.64,2.94,3.6,7.15,3.68,-1.17,33.0,0.0,0.0,0.26,3.78,24.79,-16.88,15.12,12.66,-14.33,15.82,-36.83,96.68,-10.55,14.85,-11.87,20.48,-38.67,140.8,26.63,9.14,9.49,6.52,24.52,-17.54,13.62,1.76,-10.74,14.29,-39.11,91.88,-1.82,12.42,-15.5,16.44,-34.82,148.63,22.99,4.91,6.42,0.4036,0.9005,-0.9342,0.4517,0.2653,-0.7769,0.4083,-0.3718,0.4065,-0.0085,0.7289,-0.5971,0.4211,0.3185,1.0,0.657,0.7464,-0.6249,0.039,0.006,0.013,0.026,0.026,0.006,0.013,0.0,0.0,0.0,0.026,0.013,0.006,0.26,0.111,0.006,0.013,0.006
7.68,3.12,3.63,4.28,1.2,-7.11,33.5,0.0,0.0,0.539,2.72,24.96,-18.02,14.06,11.34,-14.94,16.17,-36.12,95.89,-9.67,13.62,-13.18,20.57,-37.97,141.42,26.46,8.26,9.4,8.02,23.87,-16.04,15.12,0.26,-9.24,15.44,-40.61,93.38,-2.83,13.92,-14.0,14.94,-33.32,150.0,23.66,6.41,7.92,0.3619,0.8885,-0.8858,0.5322,0.4412,-0.6568,0.4412,-0.3881,0.4891,-0.0809,0.7668,-0.5103,0.3578,0.2938,1.0,0.6759,0.8164,-0.59,0.026,0.006,0.006,0.006,0.026,0.0,0.006,0.006,0.013,0.006,0.013,0.006,0.006,0.091,0.539,0.019,0.019,0.013
7.72,3.13,3.67,1.46,0.23,0.19,34.0,0.0,0.0,0.539,2.11,25.05,-18.9,13.27,9.93,-15.12,16.17,-35.77,94.48,-8.61,12.66,-14.24,20.13,-37.27,141.94,25.58,7.12,8.96,9.52,22.37,-14.54,16.62,0.58,-7.74,13.94,-42.11,94.88,-4.33,15.42,-12.5,13.44,-31.82,150.0,22.53,7.91,9.42,0.3955,0.823,-0.7894,0.6129,0.465,-0.6303,0.3836,-0.5022,0.6399,-0.138,0.8712,-0.3831,0.2601,0.3214,1.0,0.6438,0.9436,-0.4336,0.026,0.006,0.006,0.006,0.026,0.0,0.006,0.006,0.013,0.006,0.013,0.006,0.006,0.091,0.539,0.019,0.019,0.013
7.76,3.53,3.74,7.76,2.54,-8.47,34.5,0.0,0.0,0.539,2.37,24.26,-19.6,12.13,8.09,-14.77,16.0,-35.95,93.34,-7.12,11.69,-15.03,18.81,-36.12,142.65,24.35,6.15,8.35,11.02,20.87,-13.04,18.12,2.08,-6.24,13.79,-43.61,96.38,-5.83,16.92,-11.0,11.94,-30.32,148.5,23.15,9.41,10.92,0.4051,0.8222,-0.7905,0.7407,0.5741,-0.6712,0.3939,-0.5229,0.7492,-0.2069,0.835,-0.4544,0.2414,0.3532,0.9098,0.6614,1.0,-0.3647,0.026,0.006,0.006,0.006,0.026,0.0,0.006,0.006,0.013,0.006,0.013,0.006,0.006,0.091,0.539,0.019,0.019,0.013
7.8,3.84,3.84,9.44,3.16,-7.65,35.0,0.0,0.0,1.82,2.37,23.73,-19.78,12.04,7.12,-14.41,15.29,-36.39,92.9,-6.24,11.43,-15.38,18.11,-35.16,142.82,23.55,5.8,8.17,12.52,19.52,-11.54,19.62,0.88,-4.74,12.78,-45.11,97.88,-7.33,18.42,-9.5,10.44,-28.82,147.0,24.36,10.91,12.42,0.413,0.8095,-0.7406,0.7283,0.4705,-0.7504,0.3651,-0.6433,0.8139,-0.311,0.8355,-0.3697,0.2,0.4947,0.9406,0.6961,1.0,-0.2039,0.013,0.019,0.006,0.006,0.026,0.006,0.006,0.006,0.013,0.006,0.0,0.006,0.019,0.169,1.82,0.006,0.013,0.0
7.84,4.43,4.1,16.84,5.88,-8.91,35.5,0.0,0.0,1.82,4.13,22.68,-19.78,12.22,5.62,-13.18,14.41,-37.18,92.46,-5.27,11.34,-15.29,16.7,-33.84,142.82,22.94,5.54,8.26,12.84,19.28,-10.04,21.12,-0.25,-3.24,12.68,-46.61,99.38,-8.83,16.92,-8.0,8.94,-27.32,145.5,25.86,12.41,13.92,0.3667,0.8051,-0.7371,0.75,0.4499,-0.7973,0.3623,-0.6442,0.7713,-0.3551,0.7143,-0.474,0.2329,0.518,0.9403,0.7428,1.0,-0.2013,0.013,0.019,0.006,0.006,0.026,0.006,0.006,0.006,0.013,0.006,0.0,0.006,0.019,0.169,1.82,0.006,0.013,0.0
7.88,5.25,4.37,19.47,7.92,-7.07,36.0,0.0,0.0,1.82,4.22,21.62,-19.16,12.92,4.31,-11.95,13.62,-38.23,92.46,-4.66,11.43,-15.03,15.29,-32.34,142.82,22.59,5.54,8.79,11.58,17.78,-8.54,22.62,-1.75,-4.74,11.82,-48.11,100.88,-10.33,15.42,-6.5,10.44,-25.82,147.0,27.36,13.91,15.42,0.3309,0.7469,-0.7236,0.7046,0.3087,-0.8982,0.3377,-0.7354,0.77,-0.4084,0.5864,-0.5827,0.3172,0.5843,0.9741,0.7886,1.0,-0.2052,0.013,0.019,0.006,0.006,0.026,0.006,0.006,0.006,0.013,0.006,0.0,0.006,0.019,0.169,1.82,0.006,0.013,0.0
7.92,5.89,4.77,17.22,9.51,1.07,36.5,0.0,0.0,2.613,6.33,20.48,-18.19,13.8,2.9,-10.55,13.01,-39.46,92.64,-4.39,12.22,-14.06,13.89,-30.85,142.82,22.59,5.98,9.67,10.08,16.28,-7.04,22.58,-3.25,-6.24,10.87,-49.61,102.38,-11.83,13.92,-5.0,11.94,-24.32,148.5,28.32,15.41,16.92,0.2613,0.6961,-0.7034,0.6453,0.1753,-0.9731,0.3107,-0.7957,0.727,-0.4221,0.4712,-0.7033,0.3834,0.6343,1.0,0.8091,1.0,-0.2548,0.013,0.019,0.006,0.026,0.026,0.013,0.006,0.033,0.013,0.006,0.0,0.006,0.013,0.123,2.613,0.019,0.006,0.013
7.96,6.53,5.04,13.18,6.14,-2.41,37.0,0.0,0.0,2.613,7.38,19.25,-16.79,15.12,1.23,-8.96,12.04,-41.22,92.9,-4.39,13.18,-12.83,12.39,-29.09,142.82,23.29,6.94,10.99,8.58,14.78,-5.54,21.08,-4.75,-7.74,11.57,-51.11,103.88,-13.33,12.42,-6.5,13.44,-22.82,147.13,29.8,16.91,18.42,0.166,0.7005,-0.7438,0.5656,0.1882,-1.0,0.3307,-0.8257,0.6548,-0.4804,0.2448,-0.9439,0.5204,0.5626,0.9663,0.8514,1.0,-0.4118,0.013,0.019,0.006,0.026,0.026,0.013,0.006,0.033,0.013,0.006,0.0,0.006,0.013,0.123,2.613,0.019,0.006,0.013
8.0,6.9,5.29,9.44,5.52,0.83,37.5,0.0,0.0,2.613,8.79,18.11,-15.47,16.61,-0.09,-7.82,11.43,-42.63,94.31,-5.45,13.8,-11.43,11.43,-27.6,142.82,24.08,8.35,12.39,7.08,13.28,-4.04,19.58,-6.25,-9.24,10.07,-52.61,105.38,-14.83,10.92,-8.0,14.94,-21.32,148.63,29.36,18.41,19.92,0.0232,0.6445,-0.7123,0.4493,0.1195,-1.0,0.2721,-0.9201,0.5998,-0.5192,0.1958,-0.9997,0.5547,0.4715,1.0,0.8388,1.0,-0.5108,0.013,0.019,0.006,0.026,0.026,0.013,0.006,0.033,0.013,0.006,0.0,0.006,0.013,0.123,2.613,0.019,0.006,0.013
8.04,7.3,5.4,10.68,3.81,-4.35,38.0,0.0,0.0,2.613,9.67,16.88,-13.97,17.93,-1.49,-7.03,10.9,-44.03,95.71,-6.24,14.06,-10.11,10.9,-26.19,142.82,25.22,9.67,13.8,5.58,11.78,-2.54,18.08,-7.75,-10.74,11.57,-54.11,106.88,-16.33,9.42,-9.5,16.44,-19.82,150.0,27.96,19.91,18.42,-0.0688,0.6451,-0.7236,0.3999,0.1181,-1.0,0.3425,-0.9552,0.5176,-0.5836,0.0696,-1.0,0.6137,0.3928,1.0,0.7987,1.0,-0.6857,0.013,0.026,0.006,0.013,0.033,0.006,0.0,0.026,0.019,0.019,0.0,0.006,0.0,0.169,1.534,0.013,0.019,0.013
8.08,7.77,5.69,11.26,6.84,1.94,38.5,0.0,0.0,2.613,9.67,15.56,-12.57,19.07,-2.99,-6.5,10.46,-45.44,97.03,-7.47,14.06,-9.14,10.46,-24.87,142.82,26.37,10.81,14.68,4.08,10.28,-1.04,16.58,-9.25,-12.24,10.25,-55.61,108.2,-17.83,7.92,-11.0,17.94,-18.32,150.0,27.32,21.41,16.92,-0.1315,0.5485,-0.6923,0.3312,-0.008,-1.0,0.2929,-1.0,0.5082,-0.5562,0.0579,-1.0,0.586,0.3981,1.0,0.7805,1.0,-0.7576,0.013,0.026,0.006,0.013,0.033,0.006,0.0,0.026,0.019,0.019,0.0,0.006,0.0,0.169,1.534,0.013,0.019,0.013
8.12,8.17,5.99,10.99,6.58,1.23,39.0,0.0,0.0,2.613,10.37,14.24,-11.16,19.78,-4.39,-6.42,10.37,-46.85,98.44,-8.88,13.71,-8.35,10.46,-23.47,142.82,27.16,11.95,16.17,2.58,8.78,0.46,15.08,-10.75,-13.74,11.75,-57.11,109.7,-18.71,6.42,-12.5,19.44,-16.82,150.0,25.82,22.91,15.42,-0.1343,0.5166,-0.644,0.348,-0.0244,-1.0,0.35,-1.0,0.5336,-0.5344,-0.008,-1.0,0.5913,0.4621,1.0,0.7297,1.0,-0.7741,0.013,0.026,0.006,0.013,0.033,0.006,0.0,0.026,0.019,0.019,0.0,0.006,0.0,0.169,1.534,0.013,0.019,0.013
8.16,8.57,6.27,9.48,7.03,6.91,39.5,0.0,0.0,2.613,8.96,12.92,-9.76,20.3,-5.71,-6.59,10.37,-48.25,99.84,-10.2,12.83,-8.17,11.16,-22.06,142.82,27.6,13.45,16.96,1.08,7.28,1.96,13.58,-12.25,-15.24,12.19,-58.61,111.2,-17.71,4.92,-14.0,20.5,-15.32,150.0,26.09,24.41,13.92,-0.153,0.4957,-0.5917,0.3258,-0.0549,-1.0,0.3484,-1.0,0.5497,-0.5061,0.0119,-1.0,0.5856,0.5139,1.0,0.7453,1.0,-0.7727,0.006,0.026,0.006,0.0,0.026,0.019,0.013,0.033,0.026,0.019,0.026,0.0,0.006,0.163,2.607,0.006,0.033,0.019
8.2,8.81,6.47,6.13,5.26,6.74,40.0,0.0,0.0,2.613,8.96,11.6,-8.35,20.39,-7.12,-7.47,10.37,-49.66,101.34,-11.6,11.6,-8.09,12.04,-20.83,142.82,27.86,14.59,17.4,-0.42,5.78,3.46,12.96,-13.75,-16.74,13.69,-60.11,112.7,-16.21,3.42,-12.73,19.0,-13.82,150.0,25.39,25.91,12.42,-0.1441,0.4788,-0.5336,0.3704,-0.0546,-1.0,0.3965,-1.0,0.5907,-0.4536,0.0955,-0.9145,0.5414,0.5881,1.0,0.7253,1.0,-0.7262,0.006,0.026,0.006,0.0,0.026,0.019,0.013,0.033,0.026,0.019,0.026,0.0,0.006,0.163,2.607,0.006,0.033,0.019
8.24,9.11,6.29,7.7,-5.1,-3.88,40.5,0.0,0.0,2.613,7.73,10.2,-6.94,20.39,-8.61,-8.44,11.34,-51.06,102.66,-13.01,10.28,-8.44,13.01,-19.51,142.82,27.77,15.73,17.58,-1.92,4.28,4.96,14.46,-15.25,-18.24,15.19,-61.61,114.2,-15.24,1.92,-11.23,17.5,-12.32,150.0,25.15,27.41,11.15,-0.1502,0.4911,-0.4827,0.417,0.008,-1.0,0.4478,-1.0,0.6349,-0.4354,0.1825,-0.8192,0.4819,0.6528,1.0,0.7186,1.0,-0.6335,0.006,0.026,0.006,0.0,0.026,0.019,0.013,0.033,0.026,0.019,0.026,0.0,0.006,0.163,2.607,0.006,0.033,0.019
8.28,9.44,5.83,7.91,-12.48,-1.21,41.0,0.0,0.0,2.756,6.15,8.79,-5.54,20.21,-10.02,-9.67,12.39,-52.38,104.06,-14.24,8.88,-9.4,14.33,-18.02,142.82,27.33,16.96,17.58,-3.42,2.78,6.46,14.18,-16.75,-19.74,14.63,-63.11,115.7,-13.85,0.42,-9.73,16.0,-10.82,150.0,26.0,28.91,12.65,-0.145,0.3392,-0.4497,0.405,-0.108,-1.0,0.418,-1.0,0.6842,-0.3957,0.4156,-0.6199,0.3511,0.768,1.0,0.7428,1.0,-0.5351,0.039,0.019,0.019,0.019,0.026,0.013,0.006,0.033,0.019,0.013,0.019,0.006,0.019,0.182,2.756,0.013,0.084,0.0
8.32,9.61,5.2,4.93,-17.34,-13.43,41.5,0.0,0.0,2.756,5.27,7.29,-4.04,18.9,-11.43,-11.07,13.36,-53.79,105.47,-15.12,7.38,-10.2,15.47,-16.52,142.82,26.54,18.37,17.23,-4.0,1.28,7.96,14.27,-18.25,-20.0,16.13,-64.61,117.2,-13.6,1.92,-8.23,14.5,-9.32,150.0,26.73,30.0,14.15,-0.1142,0.2228,-0.5043,0.4077,-0.129,-1.0,0.4742,-1.0,0.7221,-0.3885,0.5499,-0.5144,0.255,0.8683,1.0,0.7638,1.0,-0.5584,0.039,0.019,0.019,0.019,0.026,0.013,0.006,0.033,0.019,0.013,0.019,0.006,0.019,0.182,2.756,0.013,0.084,0.0
8.36,10.0,4.44,8.47,-18.63,-9.73,42.0,0.0,0.0,2.756,3.25,5.98,-2.64,17.4,-12.83,-12.48,14.24,-55.11,106.88,-15.73,6.06,-10.72,16.35,-15.03,142.91,26.1,19.78,16.44,-3.86,-0.22,9.46,12.77,-19.75,-19.95,17.08,-66.11,118.7,-14.25,3.42,-6.73,13.0,-7.82,150.0,27.68,30.0,15.65,-0.1104,0.1714,-0.5185,0.3382,-0.1087,-0.9994,0.488,-1.0,0.7774,-0.4071,0.6926,-0.3398,0.1225,0.8784,1.0,0.7907,1.0,-0.5072,0.039,0.019,0.019,0.019,0.026,0.013,0.006,0.033,0.019,0.013,0.019,0.006,0.019,0.182,2.756,0.013,0.084,0.0
