t_s,roll_deg,pitch_deg,gyro_x_dps,gyro_y_dps,gyro_z_dps,height_ref_mm,vx_ref_mps,vy_ref_mps,max_cur_a,q0_deg,q1_deg,q2_deg,q3_deg,q4_deg,q5_deg,q6_deg,q7_deg,q8_deg,q9_deg,q10_deg,q11_deg,q12_deg,q13_deg,q14_deg,q15_deg,q16_deg,q17_deg,cmd0_deg,cmd1_deg,cmd2_deg,cmd3_deg,cmd4_deg,cmd5_deg,cmd6_deg,cmd7_deg,cmd8_deg,cmd9_deg,cmd10_deg,cmd11_deg,cmd12_deg,cmd13_deg,cmd14_deg,cmd15_deg,cmd16_deg,cmd17_deg,act0,act1,act2,act3,act4,act5,act6,act7,act8,act9,act10,act11,act12,act13,act14,act15,act16,act17,cur0_a,cur1_a,cur2_a,cur3_a,cur4_a,cur5_a,cur6_a,cur7_a,cur8_a,cur9_a,cur10_a,cur11_a,cur12_a,cur13_a,cur14_a,cur15_a,cur16_a,cur17_a
0.0,0.76,3.35,0.26,0.21,-1.76,0.0,0.0,0.0,0.019,-0.18,0.53,-0.18,0.26,0.35,0.0,0.09,0.09,0.35,0.0,0.26,0.09,0.18,0.09,0.09,0.09,0.53,0.18,1.06,-1.06,1.32,1.76,-1.15,1.5,1.59,-1.41,1.85,-1.5,-1.24,1.59,1.68,-1.41,-1.41,1.59,-1.06,1.68,0.3209,0.2446,-0.2582,0.3043,0.1065,-0.1446,0.807,-1.0,-0.5144,-1.0,-0.0182,0.4679,0.0742,-0.4342,-0.97,1.0,-0.1016,-0.1742,0.013,0.013,0.006,0.006,0.006,0.013,0.006,0.013,0.006,0.013,0.006,0.006,0.006,0.013,0.019,0.013,0.013,0.006
0.04,0.72,3.29,-0.72,-0.43,0.62,0.0,0.0,0.0,0.019,-0.09,0.53,-0.18,0.26,0.35,0.26,0.09,-0.26,0.44,-0.18,0.26,0.26,0.44,-0.09,-0.26,0.26,0.44,0.18,-0.44,-2.56,2.82,3.26,-2.65,3.0,3.09,-2.91,3.35,0.0,-2.74,3.09,0.18,-2.91,0.09,3.09,-2.56,3.18,-0.0424,-0.3131,-0.1299,0.9028,-0.6712,0.7163,0.1881,-1.0,-0.5733,0.0442,-0.3256,-0.5552,-0.5799,-0.4047,0.0164,0.8202,0.015,-0.4013,0.013,0.013,0.006,0.006,0.006,0.013,0.006,0.013,0.006,0.013,0.006,0.006,0.006,0.013,0.019,0.013,0.013,0.006
0.08,0.73,3.28,0.74,0.24,4.09,0.0,0.0,0.0,0.019,0.18,0.0,0.53,0.44,-0.09,1.05,0.44,-0.97,0.79,-1.23,-0.18,1.14,1.05,-0.79,-0.88,1.14,0.0,0.88,1.06,-4.06,4.32,4.76,-4.15,4.5,4.59,-4.41,4.85,-1.5,-4.24,4.59,-1.32,-4.41,1.59,4.59,-4.06,4.68,0.3273,-0.7994,0.1203,0.3808,-0.9411,0.5511,0.9525,-0.8015,-0.317,-0.6445,-0.177,-0.2962,-0.0755,-0.4154,-0.2294,0.4688,-0.0821,-0.2532,0.013,0.013,0.006,0.006,0.006,0.013,0.006,0.013,0.006,0.013,0.006,0.006,0.006,0.013,0.019,0.013,0.013,0.006
0.12,0.74,3.29,-0.05,0.31,-4.54,0.0,0.0,0.0,0.033,1.32,-0.88,1.32,1.67,-0.88,1.93,1.49,-1.85,1.41,-1.32,-1.14,2.11,1.14,-1.76,-0.97,2.02,-0.88,1.76,1.23,-5.56,5.82,6.26,-5.65,6.0,6.09,-5.91,6.35,-3.0,-5.74,6.09,-2.82,-5.91,3.09,6.09,-5.56,6.18,0.0351,-0.2229,-0.0155,0.3661,-0.4292,0.138,0.7758,-0.7568,-0.1619,-0.5848,-0.3426,-0.5151,-0.1697,-0.3806,-0.1363,0.8074,0.1573,-0.287,0.006,0.033,0.013,0.006,0.033,0.013,0.019,0.026,0.019,0.019,0.019,0.013,0.006,0.026,0.006,0.006,0.033,0.013
0.16,0.71,3.24,-0.19,-0.06,0.36,0.0,0.0,0.0,0.033,0.7,-2.02,2.46,3.16,-2.02,3.25,2.64,-3.08,2.81,-1.49,-2.29,3.34,0.97,-2.9,-0.7,3.34,-1.93,2.9,0.12,-7.06,7.32,7.76,-7.15,7.5,7.59,-7.41,7.85,-4.5,-7.24,7.59,-4.32,-7.41,4.59,7.59,-4.06,7.68,0.0034,-0.3269,-0.2394,0.4847,-0.4668,0.2219,0.5324,-1.0,-0.1527,-0.3703,0.0336,-0.3706,-0.3656,-0.5064,0.1175,0.5433,0.5507,-0.2329,0.006,0.033,0.013,0.006,0.033,0.013,0.019,0.026,0.019,0.019,0.019,0.013,0.006,0.026,0.006,0.006,0.033,0.013
0.2,0.73,3.24,1.06,0.74,0.74,0.0,0.0,0.0,0.033,1.49,-3.34,3.69,4.13,-3.25,4.48,3.87,-4.22,4.04,-2.9,-3.52,4.57,0.09,-4.22,0.0,4.48,-3.08,4.04,1.62,-8.56,8.82,9.26,-8.65,9.0,9.09,-8.91,9.35,-6.0,-8.74,6.09,-5.82,-8.91,6.09,9.09,-5.07,6.18,0.2544,-0.4112,-0.3517,0.5259,-0.4776,0.0106,0.4417,-0.9559,0.1418,-0.4643,-0.1603,-0.8507,-0.3308,-0.3518,-0.1665,0.4076,0.3624,-1.0,0.006,0.033,0.013,0.006,0.033,0.013,0.019,0.026,0.019,0.019,0.019,0.013,0.006,0.026,0.006,0.006,0.033,0.013
0.24,0.67,3.25,-0.81,-0.97,1.35,0.0,0.0,0.0,0.058,0.79,-4.48,5.01,5.01,-4.48,5.8,5.19,-5.54,5.36,-3.08,-4.75,5.71,-0.7,-5.54,1.05,5.89,-4.04,5.19,0.12,-10.06,10.32,8.37,-10.15,10.5,7.59,-10.41,10.85,-7.5,-10.24,7.59,-4.32,-10.41,7.59,10.59,-3.57,4.68,-0.1303,-0.1282,-0.2416,0.239,-0.0633,-0.132,0.1062,-0.9931,0.1658,-0.5984,0.0724,-0.496,-0.0502,-0.2074,-0.288,0.447,0.7561,-0.9093,0.026,0.026,0.006,0.006,0.033,0.006,0.013,0.026,0.019,0.058,0.019,0.006,0.013,0.019,0.013,0.013,0.026,0.006
0.28,0.58,3.24,-0.52,0.16,0.29,0.0,0.0,0.0,0.058,1.05,-5.98,6.42,6.94,-5.89,7.21,6.42,-6.86,6.77,-4.83,-6.15,6.59,-1.93,-6.94,2.37,7.29,-4.66,6.15,-1.38,-11.56,11.82,7.18,-11.65,12.0,6.09,-11.91,12.35,-9.0,-11.74,9.09,-4.71,-11.91,9.09,10.93,-2.07,3.18,-0.0929,-0.291,-0.3406,0.2052,-0.1201,-0.1932,-0.117,-0.9267,0.3252,-0.4277,0.0337,-0.6026,-0.1345,-0.2546,0.0005,0.3123,0.6038,-1.0,0.026,0.026,0.006,0.006,0.033,0.006,0.013,0.026,0.019,0.058,0.019,0.006,0.013,0.019,0.013,0.013,0.026,0.006
0.32,0.62,3.18,0.02,-0.38,-0.58,0.0,0.0,0.0,0.058,0.79,-7.29,7.82,7.47,-7.29,8.61,7.47,-8.26,8.17,-6.15,-7.56,7.29,-3.08,-8.26,3.87,8.53,-4.92,6.77,-2.88,-13.06,13.32,5.68,-13.15,13.5,4.59,-13.41,13.85,-10.5,-13.24,10.59,-3.21,-13.41,10.59,9.43,-0.57,1.68,-0.178,-0.216,-0.2097,-0.0092,0.0817,-0.3783,-0.0877,-0.9816,0.372,-0.4389,0.087,-0.4887,0.1917,-0.2916,-0.038,0.2691,0.6459,-1.0,0.026,0.026,0.006,0.006,0.033,0.006,0.013,0.026,0.019,0.058,0.019,0.006,0.013,0.019,0.013,0.013,0.026,0.006
0.36,0.57,3.16,-1.3,-0.9,2.22,0.0,0.0,0.0,0.058,-0.44,-8.61,9.14,8.17,-8.7,10.02,8.17,-9.67,9.58,-7.12,-8.96,8.35,-3.87,-9.76,5.19,9.58,-5.01,7.03,-4.38,-14.56,14.82,4.18,-14.65,15.0,3.09,-14.91,15.35,-9.38,-14.74,12.09,-1.71,-14.91,12.09,10.93,0.93,0.18,-0.1437,-0.2633,-0.2115,-0.0789,0.0131,-0.359,-0.1949,-1.0,0.4438,-0.268,0.129,-0.4209,0.1229,-0.2723,0.1575,0.335,0.5954,-1.0,0.026,0.019,0.006,0.0,0.033,0.019,0.0,0.026,0.019,0.0,0.026,0.006,0.006,0.026,0.013,0.006,0.0,0.006
0.4,0.63,3.15,1.59,1.13,-1.76,0.0,0.0,0.0,0.058,-0.44,-10.2,10.55,8.79,-10.11,11.51,8.61,-11.07,10.99,-9.05,-10.37,9.58,-4.57,-11.07,6.68,10.28,-4.66,7.03,-4.53,-16.06,16.32,2.68,-16.15,16.5,1.59,-16.41,16.85,-7.88,-16.24,13.59,-0.21,-16.41,13.59,12.27,1.87,-1.32,-0.1294,-0.2446,-0.1438,-0.0666,0.0846,-0.3769,-0.1162,-1.0,0.4301,-0.1394,0.1323,-0.4221,0.1682,-0.3462,0.1247,0.3506,0.4886,-1.0,0.026,0.019,0.006,0.0,0.033,0.019,0.0,0.026,0.019,0.0,0.026,0.006,0.006,0.026,0.013,0.006,0.0,0.006
0.44,0.54,3.13,-1.5,-0.93,1.45,0.0,0.0,0.0,0.058,-2.81,-11.51,11.95,8.79,-11.51,12.92,8.7,-12.48,12.3,-9.05,-11.78,10.81,-4.66,-12.57,8.09,10.9,-3.96,6.5,-4.01,-17.56,17.82,1.18,-17.65,18.0,0.09,-17.91,18.35,-6.38,-15.71,15.09,1.29,-17.91,15.09,13.77,3.37,-2.82,-0.1147,-0.2077,-0.0681,-0.1074,-0.0364,-0.3979,-0.0318,-1.0,0.4034,-0.0909,0.1689,-0.4336,0.2014,-0.2159,0.2094,0.4517,0.5454,-1.0,0.026,0.019,0.006,0.0,0.033,0.019,0.0,0.026,0.019,0.0,0.026,0.006,0.006,0.026,0.013,0.006,0.0,0.006
0.48,0.49,3.15,0.53,0.43,1.45,0.0,0.0,0.0,0.104,-3.08,-13.01,13.45,8.79,-12.92,14.33,8.7,-13.97,13.71,-10.2,-13.1,12.13,-4.57,-13.97,9.49,11.69,-2.72,5.71,-2.51,-19.06,19.32,-0.32,-18.22,19.5,1.21,-19.41,19.85,-4.88,-14.38,16.59,1.64,-19.41,16.59,15.27,1.87,-4.32,-0.0531,-0.1608,-0.0788,-0.0899,0.1233,-0.3531,0.0345,-1.0,0.359,0.0322,0.193,-0.3673,0.0468,-0.4023,0.2602,0.4562,0.3692,-1.0,0.104,0.026,0.006,0.026,0.033,0.019,0.019,0.026,0.019,0.013,0.013,0.013,0.013,0.026,0.006,0.013,0.006,0.013
0.52,0.52,3.1,-0.53,-0.71,-5.15,0.0,0.0,0.0,0.104,-3.87,-14.33,14.85,8.35,-14.33,15.73,7.91,-15.29,15.21,-10.37,-14.15,13.62,-3.78,-15.38,10.9,12.83,-1.49,4.66,-1.88,-20.56,20.82,-0.97,-19.72,21.0,2.71,-20.91,21.35,-3.38,-15.75,18.09,3.14,-20.91,18.09,16.77,0.37,-5.82,-0.0538,-0.1537,0.0395,-0.0276,-0.0083,-0.3595,0.0952,-1.0,0.3294,0.124,0.1682,-0.4465,0.1301,-0.2873,0.2411,0.508,0.2899,-1.0,0.104,0.026,0.006,0.026,0.033,0.019,0.019,0.026,0.019,0.013,0.013,0.013,0.013,0.026,0.006,0.013,0.006,0.013
0.56,0.48,3.03,-0.84,-0.87,5.4,0.0,0.0,0.0,0.104,-4.83,-15.73,16.26,6.94,-15.64,17.05,6.77,-16.79,16.61,-10.28,-15.03,14.94,-2.9,-16.79,12.39,13.97,-0.26,3.34,-3.38,-22.06,22.32,-2.47,-21.22,22.5,4.21,-22.41,22.85,-1.88,-14.25,19.59,2.04,-22.41,19.59,15.95,-1.13,-7.32,-0.109,-0.1522,0.042,-0.1445,0.0519,-0.2931,0.2619,-1.0,0.1801,0.1135,0.2228,-0.3537,0.0584,-0.3614,0.4387,0.4557,0.2849,-1.0,0.104,0.026,0.006,0.026,0.033,0.019,0.019,0.026,0.019,0.013,0.013,0.013,0.013,0.026,0.006,0.013,0.006,0.013
0.6,0.58,3.09,1.95,1.49,-0.95,0.0,0.0,0.0,0.104,-4.13,-17.23,17.67,5.62,-16.96,18.54,5.62,-18.19,18.02,-9.67,-15.47,16.26,-1.76,-18.19,13.71,15.12,0.62,1.85,-1.88,-23.56,23.82,-0.97,-22.72,24.0,5.71,-23.91,24.35,-0.38,-15.75,19.3,0.54,-23.91,21.09,16.14,-2.63,-8.82,0.0025,-0.2292,0.0772,0.0711,-0.024,-0.2923,0.2384,-1.0,0.3109,0.3434,0.1082,-0.5376,0.0041,-0.4003,0.2765,0.4611,0.1285,-1.0,0.0,0.026,0.013,0.013,0.033,0.013,0.006,0.026,0.019,0.006,0.006,0.0,0.013,0.026,0.006,0.006,0.0,0.013
0.64,0.46,3.04,-2.21,-1.08,-0.27,0.0,0.0,0.0,0.104,-4.04,-18.54,19.07,4.22,-18.37,19.95,4.66,-19.6,19.42,-8.7,-15.64,17.58,-0.35,-19.6,15.21,15.91,1.32,0.53,-2.89,-25.06,25.32,-2.13,-24.22,25.5,7.21,-25.41,25.85,1.12,-17.25,20.8,2.04,-25.41,22.59,17.64,-4.13,-10.32,-0.0824,-0.2245,0.111,-0.0609,-0.0631,-0.3217,0.4161,-1.0,0.1766,0.1494,0.0941,-0.4107,0.2186,-0.2627,0.3562,0.5276,0.3097,-0.9132,0.0,0.026,0.013,0.013,0.033,0.013,0.006,0.026,0.019,0.006,0.006,0.0,0.013,0.026,0.006,0.006,0.0,0.013
0.68,0.46,3.03,0.63,0.35,1.75,0.0,0.0,0.0,0.104,-3.34,-20.04,20.48,2.72,-19.78,21.36,4.04,-21.01,20.83,-7.56,-15.64,18.63,0.53,-21.01,16.61,16.61,1.58,-0.88,-4.39,-26.56,26.82,-0.63,-22.72,27.0,8.71,-26.91,27.35,2.62,-18.75,19.3,0.54,-26.91,24.09,16.14,-5.63,-11.82,-0.1268,-0.3032,0.0436,-0.0131,0.1077,-0.2724,0.3468,-1.0,0.2688,0.3472,0.0538,-0.539,-0.0062,-0.5334,0.3867,0.4486,0.1832,-1.0,0.0,0.026,0.013,0.013,0.033,0.013,0.006,0.026,0.019,0.006,0.006,0.0,0.013,0.026,0.006,0.006,0.0,0.013
0.72,0.51,3.05,0.89,0.57,-2.53,0.0,0.0,0.0,0.104,-2.64,-21.45,21.97,1.32,-21.09,22.85,3.69,-22.41,22.24,-6.15,-16.0,19.69,1.32,-22.41,18.02,17.14,1.58,-2.37,-2.89,-28.06,28.32,0.87,-24.22,28.5,10.21,-28.41,28.85,4.12,-20.25,18.07,2.04,-28.41,25.59,17.64,-7.13,-10.32,-0.0428,-0.4001,0.1468,0.058,0.0005,-0.35,0.3493,-1.0,0.3223,0.2875,-0.0091,-0.5521,0.2463,-0.3799,0.2042,0.5638,0.2638,-0.8636,0.0,0.033,0.006,0.006,0.026,0.006,0.0,0.026,0.019,0.006,0.019,0.006,0.0,0.026,0.013,0.0,0.019,0.013
0.76,0.43,2.98,-1.45,-0.81,0.7,0.0,0.0,0.0,0.104,-3.25,-22.85,23.29,0.44,-22.24,24.26,3.69,-23.82,23.64,-4.66,-16.7,20.3,1.76,-23.82,19.51,17.49,1.23,-3.78,-4.39,-29.56,29.82,-0.63,-23.34,30.0,11.71,-29.91,30.35,5.62,-21.75,19.57,3.54,-29.91,27.09,19.14,-5.63,-8.82,-0.1615,-0.4292,0.1092,-0.0952,0.0302,-0.3626,0.4006,-1.0,0.3103,0.1698,0.0212,-0.4644,0.2831,-0.3903,0.3437,0.5699,0.3931,-0.7158,0.0,0.033,0.006,0.006,0.026,0.006,0.0,0.026,0.019,0.006,0.019,0.006,0.0,0.026,0.013,0.0,0.019,0.013
0.8,0.5,2.99,1.48,0.91,-0.54,0.0,0.0,0.0,0.104,-2.72,-24.26,24.79,-0.53,-23.03,25.66,3.69,-25.31,25.05,-3.25,-17.75,20.74,2.11,-25.31,20.92,17.58,0.53,-5.19,-2.89,-31.06,31.32,0.7,-21.84,31.5,11.39,-31.41,31.85,7.12,-20.25,21.07,5.04,-31.41,28.59,20.1,-4.28,-7.32,-0.0768,-0.4637,0.1534,0.02,0.0788,-0.3742,0.3253,-1.0,0.4354,0.3213,0.1174,-0.4264,0.1977,-0.4836,0.2987,0.5742,0.3768,-0.7005,0.0,0.033,0.006,0.006,0.026,0.006,0.0,0.026,0.019,0.006,0.019,0.006,0.0,0.026,0.013,0.0,0.019,0.013
0.84,0.43,2.95,-1.38,-0.66,0.77,0.0,0.0,0.0,0.104,-3.69,-25.66,26.28,-0.88,-23.55,27.07,4.75,-26.72,26.46,-1.85,-18.81,20.92,2.72,-26.72,22.32,18.19,-0.62,-6.42,-1.39,-32.56,32.82,2.2,-23.34,30.0,12.89,-32.91,33.35,5.62,-18.75,22.57,6.54,-32.91,30.09,21.6,-2.78,-5.82,-0.0212,-0.4805,0.1959,0.0713,-0.0789,-0.4288,0.4064,-1.0,0.4981,0.1447,0.1973,-0.3956,0.3133,-0.2611,0.2938,0.631,0.5766,-0.4618,0.052,0.019,0.013,0.0,0.0,0.006,0.013,0.026,0.013,0.006,0.013,0.006,0.006,0.026,0.013,0.013,0.026,0.006
0.88,0.45,2.99,1.35,1.03,-1.53,0.0,0.0,0.0,0.104,-2.81,-27.16,27.6,-1.05,-23.73,28.39,5.89,-28.04,27.95,-0.53,-19.69,21.36,3.6,-28.12,23.73,19.07,-1.67,-7.38,-2.6,-34.06,34.32,0.7,-23.96,28.5,13.25,-34.41,34.85,5.53,-17.25,24.07,8.04,-34.41,31.59,20.1,-1.28,-4.32,-0.0742,-0.4366,0.1967,0.0125,0.0188,-0.4978,0.3786,-1.0,0.5579,0.158,0.3214,-0.3053,0.2305,-0.2991,0.4513,0.5419,0.6791,-0.4139,0.052,0.019,0.013,0.0,0.0,0.006,0.013,0.026,0.013,0.006,0.013,0.006,0.006,0.026,0.013,0.013,0.026,0.006
0.92,0.45,2.93,-0.63,-0.89,-1.07,0.0,0.0,0.0,0.104,-2.11,-28.48,29.0,-1.05,-23.73,29.44,7.29,-29.53,29.27,0.97,-20.3,21.97,4.83,-29.53,25.14,20.04,-2.72,-8.09,-1.1,-35.56,35.82,2.2,-25.46,27.0,12.92,-35.91,36.35,4.88,-15.75,25.57,7.48,-34.41,33.09,18.6,0.22,-2.82,-0.0014,-0.462,0.1119,0.0721,-0.1083,-0.5763,0.3692,-1.0,0.6608,0.1396,0.3401,-0.4213,0.2137,-0.1711,0.509,0.4862,0.8033,-0.3566,0.052,0.019,0.013,0.0,0.0,0.006,0.013,0.026,0.013,0.006,0.013,0.006,0.006,0.026,0.013,0.013,0.026,0.006
0.96,0.4,2.9,-0.45,-0.23,3.58,0.0,0.0,0.0,0.104,-2.11,-29.88,30.41,-0.79,-23.73,30.06,8.7,-30.94,30.67,2.29,-20.57,22.94,6.06,-30.94,26.54,20.83,-3.34,-8.53,-2.6,-37.06,37.32,0.7,-23.96,25.5,11.42,-37.41,37.85,3.38,-14.25,27.07,7.93,-35.28,34.59,17.1,1.72,-1.32,-0.099,-0.4488,0.0018,-0.069,0.0295,-0.6818,0.3077,-1.0,0.6278,0.078,0.4012,-0.3941,0.2264,-0.1869,0.5201,0.486,0.798,-0.4752,0.0,0.026,0.006,0.013,0.013,0.006,0.006,0.033,0.019,0.013,0.0,0.013,0.006,0.019,0.006,0.006,0.013,0.0
1.0,0.43,2.91,0.86,0.65,-2.45,0.0,0.0,0.0,0.104,-0.79,-31.38,31.9,0.62,-23.73,30.5,9.93,-32.43,32.17,3.34,-20.57,24.08,7.03,-32.34,28.04,21.09,-3.69,-8.53,-3.13,-38.56,38.82,-0.8,-22.46,24.0,9.92,-38.91,39.35,4.88,-12.75,25.57,9.19,-34.43,36.09,17.4,3.22,0.18,-0.0894,-0.4574,-0.0108,-0.0629,0.0591,-0.7264,0.2062,-1.0,0.6205,0.2069,0.3074,-0.5685,0.2625,-0.1714,0.5032,0.497,0.7212,-0.6559,0.0,0.026,0.006,0.013,0.013,0.006,0.006,0.033,0.019,0.013,0.0,0.013,0.006,0.019,0.006,0.006,0.013,0.0
1.04,0.35,2.88,-1.88,-1.1,1.94,0.0,0.0,0.0,0.104,-1.41,-32.78,33.31,1.41,-23.73,30.41,11.07,-33.84,33.57,4.13,-20.04,25.31,7.73,-33.49,29.53,21.18,-3.78,-8.17,-4.63,-40.06,40.32,-2.3,-20.96,22.5,8.42,-40.41,40.85,3.38,-11.25,24.07,10.69,-32.93,37.59,18.56,4.72,1.67,-0.1866,-0.4666,-0.0176,-0.2378,0.0784,-0.7523,0.2187,-1.0,0.5055,0.0956,0.2627,-0.6515,0.4074,-0.1386,0.5293,0.5303,0.7447,-0.745,0.0,0.026,0.006,0.013,0.013,0.006,0.006,0.033,0.019,0.013,0.0,0.013,0.006,0.019,0.006,0.006,0.013,0.0
1.08,0.39,2.91,1.2,0.84,-0.3,0.0,0.0,0.0,0.104,-1.67,-34.19,34.72,1.41,-23.55,30.06,11.87,-35.16,34.98,4.57,-19.07,26.19,8.7,-34.28,30.85,20.57,-3.43,-7.38,-6.13,-41.56,41.82,-3.8,-19.46,21.0,6.92,-41.91,42.35,4.88,-12.75,22.57,12.19,-34.43,39.09,18.57,6.22,0.17,-0.2113,-0.4619,-0.0354,-0.2853,0.2226,-0.754,0.1407,-0.9731,0.456,0.2333,0.1776,-0.82,0.3741,-0.3197,0.5017,0.5306,0.5797,-1.0,0.045,0.019,0.013,0.0,0.013,0.013,0.006,0.026,0.013,0.006,0.006,0.0,0.013,0.006,0.013,0.006,0.006,0.013
1.12,0.43,2.88,0.21,-0.11,-1.96,0.0,0.0,0.0,0.104,-2.02,-35.6,36.12,1.32,-22.76,29.09,12.39,-36.65,36.39,4.83,-18.02,26.72,9.93,-34.8,32.34,19.69,-2.81,-6.33,-5.61,-43.06,43.32,-5.3,-17.96,19.5,6.7,-43.41,43.85,6.38,-14.25,21.07,13.69,-35.93,40.59,20.07,4.72,-1.33,-0.1602,-0.4942,-0.0554,-0.3538,0.1621,-0.726,0.1914,-1.0,0.391,0.2238,0.1137,-0.8821,0.4619,-0.3159,0.3724,0.6821,0.5169,-1.0,0.045,0.019,0.013,0.0,0.013,0.013,0.006,0.026,0.013,0.006,0.006,0.0,0.013,0.006,0.013,0.006,0.006,0.013
1.16,0.37,2.8,-1.11,-0.56,2.49,0.0,0.0,0.0,0.104,-3.69,-37.0,37.53,0.88,-21.62,28.04,12.48,-38.06,37.79,4.83,-16.61,26.98,11.07,-35.24,33.75,19.07,-1.67,-5.01,-6.46,-44.56,44.82,-6.8,-16.46,18.0,8.2,-44.91,45.35,7.68,-15.75,19.57,14.08,-37.43,42.09,21.57,3.22,-2.83,-0.1846,-0.496,-0.137,-0.4371,0.1814,-0.6715,0.2726,-1.0,0.2822,0.2195,0.1239,-0.8595,0.4023,-0.4219,0.3903,0.7792,0.3617,-1.0,0.045,0.019,0.013,0.0,0.013,0.013,0.006,0.026,0.013,0.006,0.006,0.0,0.013,0.006,0.013,0.006,0.006,0.013
1.2,0.46,2.86,1.83,1.18,-1.97,0.0,0.0,0.0,0.104,-3.96,-38.5,38.94,-0.09,-20.3,26.63,12.48,-39.46,39.2,5.54,-15.56,26.81,12.22,-35.86,35.16,18.54,-0.35,-3.78,-4.96,-46.06,46.32,-8.3,-17.24,16.5,9.7,-46.41,46.85,9.18,-17.25,18.07,12.89,-38.93,43.59,23.07,1.72,-4.33,-0.1113,-0.4609,-0.1607,-0.3923,0.141,-0.6648,0.3355,-1.0,0.1936,0.3103,0.0742,-0.9244,0.3682,-0.4692,0.3085,0.8513,0.1724,-1.0,0.019,0.019,0.006,0.013,0.006,0.013,0.019,0.026,0.019,0.006,0.0,0.0,0.013,0.019,0.006,0.0,0.013,0.006
1.24,0.39,2.81,-1.47,-0.68,1.13,0.0,0.0,0.0,0.104,-5.89,-39.81,40.34,-1.14,-18.98,25.22,12.04,-40.87,40.61,6.33,-14.68,26.1,13.1,-36.83,36.65,18.54,0.88,-2.81,-3.46,-47.56,44.82,-9.8,-18.74,15.0,11.2,-47.91,48.35,8.23,-18.75,16.57,13.09,-40.43,45.09,24.57,0.22,-5.83,-0.0554,-0.4429,-0.2567,-0.4323,0.0148,-0.5991,0.4844,-1.0,0.0815,0.2352,0.0819,-0.8224,0.374,-0.3926,0.3283,0.9493,0.147,-1.0,0.019,0.019,0.006,0.013,0.006,0.013,0.019,0.026,0.019,0.006,0.0,0.0,0.013,0.019,0.006,0.0,0.013,0.006
1.28,0.4,2.86,1.6,1.07,-0.61,0.0,0.0,0.0,0.104,-5.98,-41.22,41.75,-2.64,-18.02,23.82,10.99,-42.28,42.01,7.29,-14.06,25.31,13.62,-37.88,38.06,19.16,1.85,-2.02,-1.96,-47.58,43.32,-11.3,-20.24,16.5,12.7,-49.41,49.85,9.73,-18.55,15.07,11.59,-41.93,46.59,26.07,-1.28,-7.33,-0.0231,-0.4105,-0.2764,-0.38,0.0289,-0.5348,0.5179,-1.0,0.0978,0.3644,0.1172,-0.7527,0.226,-0.475,0.3291,0.9022,0.032,-1.0,0.019,0.019,0.006,0.013,0.006,0.013,0.019,0.026,0.019,0.006,0.0,0.0,0.013,0.019,0.006,0.0,0.013,0.006
1.32,0.4,2.78,-0.91,-1.13,-0.57,0.0,0.0,0.0,0.104,-6.42,-42.54,42.89,-3.96,-17.23,22.41,10.28,-43.77,43.42,8.09,-13.89,24.08,13.8,-39.2,39.38,20.04,2.55,-1.67,-0.46,-46.51,42.7,-11.1,-21.74,18.0,14.2,-50.91,51.35,11.23,-18.3,13.57,10.09,-43.43,48.09,27.57,-2.78,-8.83,0.0645,-0.3912,-0.2624,-0.317,-0.0976,-0.4985,0.595,-1.0,0.1138,0.3596,0.1217,-0.6866,0.2702,-0.3557,0.3233,0.8941,0.0823,-1.0,0.026,0.033,0.006,0.019,0.0,0.019,0.006,0.026,0.019,0.026,0.006,0.013,0.0,0.019,0.006,0.013,0.0,0.0
1.36,0.33,2.75,-1.28,-0.35,2.76,0.0,0.0,0.0,0.104,-6.59,-43.86,43.77,-5.45,-16.79,21.01,9.93,-45.18,44.91,9.14,-13.89,22.68,13.71,-40.52,40.87,21.09,2.99,-1.58,0.75,-46.71,44.2,-11.59,-23.24,19.5,15.7,-52.41,52.85,12.73,-16.8,15.07,8.59,-44.93,49.59,27.4,-4.28,-10.33,0.0215,-0.3947,-0.2205,-0.3312,-0.0419,-0.4319,0.5942,-1.0,0.1752,0.4179,0.2404,-0.5387,0.1935,-0.3964,0.3918,0.7827,0.0831,-1.0,0.026,0.033,0.006,0.019,0.0,0.019,0.006,0.026,0.019,0.026,0.006,0.013,0.0,0.019,0.006,0.013,0.0,0.0
1.4,0.42,2.81,1.6,0.74,-1.68,0.0,0.0,0.0,0.104,-5.36,-44.91,44.38,-6.77,-16.79,19.78,9.93,-46.58,46.23,10.2,-14.41,21.18,13.01,-41.66,42.28,22.41,2.99,-1.93,2.25,-45.41,45.7,-10.09,-24.74,21.0,17.2,-53.91,54.35,14.23,-15.3,16.57,7.09,-45.42,51.09,25.9,-5.78,-11.83,0.1104,-0.371,-0.1122,-0.2261,-0.0468,-0.4112,0.5919,-0.987,0.291,0.4886,0.2747,-0.4746,0.2008,-0.3712,0.3927,0.6685,0.0851,-1.0,0.026,0.033,0.006,0.019,0.0,0.019,0.006,0.026,0.019,0.026,0.006,0.013,0.0,0.019,0.006,0.013,0.0,0.0
1.44,0.34,2.79,-0.72,-0.39,1.85,0.0,0.0,0.0,0.104,-5.54,-45.7,44.82,-8.17,-16.79,18.98,9.93,-47.99,47.64,11.51,-15.21,19.86,12.13,-42.98,43.68,23.82,2.72,-2.72,3.75,-44.97,47.2,-8.59,-26.24,22.5,18.7,-55.41,55.85,15.73,-13.8,18.07,8.17,-43.92,52.59,24.4,-7.28,-13.33,0.1288,-0.3631,-0.0101,-0.236,-0.0559,-0.377,0.5805,-1.0,0.3793,0.4546,0.3562,-0.3338,0.2333,-0.3188,0.4654,0.5765,0.2695,-1.0,0.071,0.013,0.006,0.006,0.026,0.006,0.019,0.019,0.013,0.026,0.006,0.006,0.019,0.026,0.006,0.013,0.019,0.019
1.48,0.39,2.79,1.37,1.07,-1.91,0.0,0.0,0.0,0.104,-3.69,-46.32,45.44,-9.23,-17.4,18.37,10.9,-49.39,49.13,12.74,-15.56,18.54,10.99,-43.86,45.09,24.7,2.2,-3.69,5.25,-44.57,48.7,-7.09,-24.74,24.0,17.26,-56.91,57.35,17.23,-12.3,19.57,6.67,-45.42,54.09,22.9,-8.78,-14.83,0.1558,-0.3558,0.0493,-0.1624,0.0134,-0.3599,0.4933,-0.9366,0.5332,0.5431,0.4448,-0.2868,0.1497,-0.4102,0.4627,0.4286,0.2931,-1.0,0.071,0.013,0.006,0.006,0.026,0.006,0.019,0.019,0.013,0.026,0.006,0.006,0.019,0.026,0.006,0.013,0.019,0.019
1.52,0.4,2.75,-0.69,-0.51,-0.27,0.0,0.0,0.0,0.104,-2.64,-46.41,46.32,-10.02,-18.37,18.11,12.13,-50.8,50.54,13.97,-15.73,17.67,9.67,-44.56,46.58,25.4,1.05,-5.01,6.23,-44.97,50.2,-6.47,-23.24,25.5,16.56,-58.41,58.85,15.73,-10.8,21.07,7.78,-46.01,55.59,21.4,-7.28,-16.33,0.1779,-0.363,0.0557,-0.1848,0.1001,-0.3981,0.4731,-0.9614,0.6087,0.4351,0.4706,-0.27,0.2223,-0.3821,0.4312,0.402,0.4054,-1.0,0.071,0.013,0.006,0.006,0.026,0.006,0.019,0.019,0.013,0.026,0.006,0.006,0.019,0.026,0.006,0.013,0.019,0.019
1.56,0.4,2.78,0.66,0.65,1.32,0.0,0.0,0.0,0.104,-1.14,-46.41,47.37,-10.55,-19.6,18.28,13.36,-52.12,51.94,15.21,-15.56,17.05,8.53,-45.09,47.99,25.75,-0.18,-6.42,4.73,-46.47,51.7,-6.71,-21.74,27.0,15.06,-59.91,60.35,15.75,-9.3,22.57,7.82,-47.51,57.09,19.9,-5.78,-16.47,0.1085,-0.4323,0.0932,-0.1918,0.2498,-0.4078,0.3261,-0.9066,0.6926,0.45,0.463,-0.3392,0.2233,-0.4718,0.3776,0.3529,0.5171,-0.9585,0.0,0.006,0.013,0.0,0.026,0.006,0.013,0.052,0.019,0.026,0.006,0.0,0.006,0.033,0.013,0.006,0.033,0.013
1.6,0.41,2.82,0.92,0.87,-1.44,0.0,0.0,0.0,0.104,0.7,-46.05,48.6,-10.81,-20.74,18.9,14.5,-53.53,53.35,15.91,-15.03,16.7,7.56,-45.79,49.39,25.75,-1.58,-7.82,3.23,-47.97,53.2,-8.21,-20.24,25.5,13.56,-61.41,61.85,14.25,-7.8,24.07,9.32,-49.01,58.59,18.4,-4.28,-14.97,0.0675,-0.5367,0.0742,-0.2461,0.3023,-0.5013,0.252,-0.912,0.7782,0.3722,0.4135,-0.4233,0.3982,-0.4721,0.2711,0.3648,0.6408,-0.8239,0.0,0.006,0.013,0.0,0.026,0.006,0.013,0.052,0.019,0.026,0.006,0.0,0.006,0.033,0.013,0.006,0.033,0.013
1.64,0.38,2.73,-1.31,-1.03,0.9,0.0,0.0,0.0,0.104,1.23,-45.88,49.83,-10.55,-21.71,19.86,15.29,-54.93,54.76,16.52,-14.06,16.88,7.03,-46.67,50.89,25.31,-2.81,-9.14,1.73,-49.47,54.7,-9.71,-18.74,24.0,12.06,-62.91,63.35,12.75,-6.3,22.57,10.82,-50.51,60.09,16.9,-2.78,-13.47,-0.0629,-0.595,0.0318,-0.3685,0.4037,-0.5995,0.1848,-0.9229,0.7842,0.2727,0.387,-0.4996,0.5042,-0.4868,0.2734,0.3928,0.7429,-0.77,0.0,0.006,0.013,0.0,0.026,0.006,0.013,0.052,0.019,0.026,0.006,0.0,0.006,0.033,0.013,0.006,0.033,0.013
1.68,0.39,2.76,0.06,-0.22,0.53,0.0,0.0,0.0,0.104,3.16,-45.88,51.15,-10.28,-22.32,21.09,15.91,-56.25,56.16,16.79,-12.83,17.31,6.77,-47.72,52.29,24.43,-3.87,-10.55,0.23,-50.97,56.2,-11.21,-17.24,22.5,10.56,-64.41,64.85,11.25,-5.93,21.07,12.32,-52.01,61.59,15.4,-1.28,-11.97,-0.1583,-0.6441,0.0439,-0.3975,0.5023,-0.7105,0.1073,-0.8824,0.7585,0.2891,0.3467,-0.6525,0.5678,-0.5496,0.2276,0.4382,0.7108,-0.8051,0.013,0.019,0.0,0.006,0.013,0.0,0.019,0.033,0.019,0.013,0.0,0.0,0.013,0.026,0.013,0.019,0.0,0.006
1.72,0.03,2.57,-2.37,-1.22,2.13,0.0,0.0,0.0,0.104,3.52,-48.87,55.2,-10.55,-21.97,23.82,15.29,-61.52,61.26,14.59,-8.0,20.57,9.05,-51.06,57.48,19.69,-5.19,-13.18,-1.27,-52.47,57.7,-12.71,-15.74,21.0,9.06,-65.91,66.35,9.75,-7.43,19.57,13.82,-51.72,63.09,16.9,0.22,-10.47,-0.2515,-0.6899,-0.0128,-0.4513,0.5001,-0.8144,0.1448,-0.9323,0.7008,0.2033,0.2504,-0.8318,0.7047,-0.4858,0.2256,0.5246,0.7663,-0.6971,0.006,0.013,0.0,0.006,0.006,0.006,0.006,0.019,0.013,0.013,0.0,0.0,0.013,0.039,0.013,0.013,0.006,0.006
1.76,0.09,2.62,0.91,0.45,-1.19,0.0,0.0,0.0,0.104,3.6,-49.83,55.72,-11.16,-20.92,23.73,14.06,-62.75,62.49,13.36,-7.03,20.83,10.28,-51.33,58.89,18.37,-4.75,-13.1,-2.77,-53.97,59.2,-14.21,-14.24,19.5,8.46,-67.41,67.85,9.27,-7.63,18.07,15.32,-53.22,64.59,18.4,1.72,-9.94,-0.3422,-0.5689,-0.0179,-0.5218,0.6378,-0.9124,0.2417,-0.8365,0.5644,0.2648,0.3158,-0.9247,0.6678,-0.6116,0.3058,0.6305,0.5561,-0.8817,0.006,0.013,0.0,0.006,0.006,0.006,0.006,0.019,0.013,0.013,0.0,0.0,0.013,0.039,0.013,0.013,0.006,0.006
1.8,0.09,2.63,-0.39,-0.38,1.43,0.0,0.0,0.0,0.104,2.29,-50.71,56.43,-11.43,-19.6,23.29,12.66,-64.07,63.81,11.95,-6.42,21.01,11.69,-51.42,60.29,17.23,-3.96,-12.66,-4.27,-54.23,60.7,-15.71,-12.74,18.0,9.96,-68.91,69.35,10.77,-6.13,16.57,16.82,-54.72,66.09,19.9,3.22,-8.44,-0.2194,-0.5314,-0.0383,-0.4496,0.5322,-0.8772,0.4189,-0.95,0.5125,0.3636,0.3723,-0.9576,0.5463,-0.5877,0.3581,0.7253,0.543,-0.8271,0.006,0.013,0.0,0.006,0.006,0.006,0.006,0.019,0.013,0.013,0.0,0.0,0.013,0.039,0.013,0.013,0.006,0.006
1.84,0.07,2.63,-0.14,-0.22,0.93,0.0,0.0,0.0,0.104,0.97,-51.86,57.3,-12.3,-18.28,22.32,11.34,-65.48,65.21,10.81,-6.15,20.39,13.1,-51.5,61.79,16.35,-2.72,-11.78,-5.77,-52.73,60.06,-15.79,-11.24,16.5,11.46,-70.41,70.85,12.27,-4.63,15.07,15.32,-56.22,67.59,21.4,1.72,-9.94,-0.1937,-0.4349,-0.0581,-0.4512,0.4829,-0.8824,0.531,-0.9274,0.4219,0.3992,0.4259,-0.9429,0.4208,-0.6051,0.352,0.7782,0.3809,-1.0,0.019,0.013,0.006,0.019,0.006,0.013,0.013,0.026,0.019,0.006,0.006,0.0,0.006,0.058,0.006,0.006,0.006,0.006
1.88,0.09,2.66,1.45,0.87,-1.39,0.0,0.0,0.0,0.104,0.18,-52.82,58.36,-13.27,-16.79,21.27,10.28,-66.97,66.62,10.02,-6.06,19.42,14.41,-52.56,63.19,15.73,-1.41,-10.9,-4.34,-51.23,58.56,-15.57,-9.74,15.0,12.96,-71.91,72.35,13.77,-3.13,13.57,13.82,-57.72,69.09,22.9,0.22,-11.44,-0.1239,-0.4038,-0.0979,-0.4449,0.4435,-0.8102,0.6494,-0.9502,0.3771,0.4586,0.5015,-0.8328,0.2998,-0.6094,0.3558,0.828,0.2713,-1.0,0.019,0.013,0.006,0.019,0.006,0.013,0.013,0.026,0.019,0.006,0.006,0.0,0.006,0.058,0.006,0.006,0.006,0.006
1.92,0.05,2.62,-1.37,-0.93,1.06,0.0,0.0,0.0,0.104,-2.11,-53.44,59.15,-14.33,-15.38,19.86,9.49,-68.29,68.03,9.49,-5.45,18.46,15.38,-53.7,64.6,15.64,-0.26,-10.2,-2.84,-49.73,57.06,-14.81,-8.24,13.5,14.46,-73.41,73.85,15.27,-1.63,12.07,12.32,-56.22,70.59,24.4,-1.28,-12.94,-0.0804,-0.3566,-0.1425,-0.4233,0.3279,-0.7937,0.7397,-0.9622,0.3506,0.446,0.5436,-0.7439,0.235,-0.498,0.4008,0.8552,0.1904,-1.0,0.019,0.013,0.006,0.019,0.006,0.013,0.013,0.026,0.019,0.006,0.006,0.0,0.006,0.058,0.006,0.006,0.006,0.006
1.96,0.09,2.61,0.9,0.55,-1.28,0.0,0.0,0.0,0.104,-2.29,-53.79,59.68,-14.94,-13.97,18.46,8.96,-69.79,69.43,9.23,-4.75,17.05,16.08,-54.67,66.01,15.73,0.62,-9.76,-1.87,-48.23,55.56,-13.77,-6.74,12.0,15.96,-73.65,75.35,16.77,-0.13,10.57,10.82,-54.72,72.09,25.9,-2.78,-14.44,-0.0536,-0.3007,-0.1396,-0.3933,0.3636,-0.7762,0.7638,-0.8845,0.3055,0.5335,0.5569,-0.7177,0.1583,-0.5212,0.4166,0.806,0.1107,-1.0,0.033,0.0,0.0,0.006,0.006,0.013,0.0,0.019,0.013,0.006,0.006,0.013,0.006,0.026,0.019,0.013,0.0,0.0
2.0,0.07,2.62,-0.66,-0.57,1.26,0.0,0.0,0.0,0.104,-3.78,-53.7,59.85,-15.47,-12.57,17.05,8.88,-71.02,70.84,9.32,-3.69,15.64,16.52,-55.63,67.41,16.61,1.23,-9.76,-0.37,-46.73,54.06,-13.03,-8.24,10.5,17.46,-73.1,76.85,17.66,1.37,9.07,9.32,-53.22,73.59,27.4,-4.28,-15.94,-0.0082,-0.3245,-0.1573,-0.3722,0.275,-0.7538,0.786,-0.8745,0.2892,0.5045,0.5559,-0.693,0.2065,-0.4363,0.4181,0.7912,0.1634,-1.0,0.033,0.0,0.0,0.006,0.006,0.013,0.0,0.019,0.013,0.006,0.006,0.013,0.006,0.026,0.019,0.013,0.0,0.0
2.04,0.04,2.61,0.16,0.64,-1.38,0.0,0.0,0.0,0.104,-4.04,-53.44,59.77,-15.56,-11.25,15.56,8.88,-72.16,72.25,10.2,-2.37,14.24,16.52,-55.99,68.82,17.4,1.49,-10.02,0.57,-45.23,52.56,-13.13,-8.74,9.0,18.96,-71.6,78.35,19.16,2.87,7.57,7.82,-51.9,75.09,25.9,-5.78,-17.44,0.0162,-0.33,-0.1583,-0.3752,0.2957,-0.7543,0.7536,-0.7823,0.2914,0.5481,0.5437,-0.7023,0.1899,-0.4891,0.439,0.6865,0.1632,-1.0,0.033,0.0,0.0,0.006,0.006,0.013,0.0,0.019,0.013,0.006,0.006,0.013,0.006,0.026,0.019,0.013,0.0,0.0
2.08,0.11,2.62,1.31,0.55,0.17,0.0,0.0,0.0,0.104,-4.13,-52.47,59.06,-15.38,-10.02,14.15,9.32,-72.86,73.65,11.07,-1.05,12.74,16.0,-56.16,70.31,18.72,1.49,-10.81,2.07,-43.73,51.06,-12.47,-7.73,7.5,20.46,-70.1,79.85,18.06,3.45,6.07,8.74,-53.4,76.59,24.4,-7.28,-18.94,0.0752,-0.3394,-0.1863,-0.3563,0.314,-0.7595,0.7352,-0.7412,0.2799,0.516,0.5174,-0.7329,0.2497,-0.5336,0.3988,0.6551,0.226,-1.0,0.006,0.006,0.019,0.013,0.006,0.019,0.013,0.013,0.026,0.019,0.0,0.006,0.013,0.0,0.006,0.013,0.019,0.013
2.12,0.07,2.59,-1.23,-0.74,0.3,0.0,0.0,0.0,0.104,-4.22,-51.5,58.1,-14.77,-9.14,12.74,10.46,-73.39,75.06,12.3,0.35,11.43,15.21,-55.9,71.72,20.13,1.05,-11.78,3.57,-45.23,49.56,-11.64,-9.23,6.0,21.96,-68.6,81.35,17.62,2.26,4.57,10.24,-54.9,78.09,22.9,-7.85,-20.0,0.1271,-0.3955,-0.2071,-0.3326,0.2818,-0.7436,0.6609,-0.7006,0.2668,0.5033,0.4957,-0.7773,0.3065,-0.5659,0.3576,0.598,0.3118,-1.0,0.006,0.006,0.019,0.013,0.006,0.019,0.013,0.013,0.026,0.019,0.0,0.006,0.013,0.0,0.006,0.013,0.019,0.013
2.16,0.11,2.6,0.65,0.39,-1.19,0.0,0.0,0.0,0.104,-2.9,-50.45,56.95,-13.8,-8.44,11.34,11.78,-73.39,76.46,13.71,1.49,9.93,14.24,-55.37,73.21,21.62,0.26,-13.01,4.61,-46.73,49.0,-11.91,-7.73,4.8,20.46,-67.1,82.85,16.18,2.55,3.07,11.74,-56.4,79.59,21.4,-6.35,-20.0,0.1318,-0.409,-0.1883,-0.3402,0.3907,-0.7082,0.5795,-0.6013,0.2671,0.4622,0.501,-0.8162,0.3483,-0.6944,0.3195,0.5058,0.3498,-1.0,0.006,0.006,0.019,0.013,0.006,0.019,0.013,0.013,0.026,0.019,0.0,0.006,0.013,0.0,0.006,0.013,0.019,0.013
2.2,0.06,2.57,-1.32,-0.81,1.66,0.0,0.0,0.0,0.104,-2.9,-48.43,55.46,-12.48,-8.0,9.93,13.18,-73.12,77.87,15.03,2.37,8.53,13.1,-55.2,74.53,22.68,-0.88,-14.41,5.68,-48.23,50.15,-10.61,-6.23,5.82,18.96,-65.6,84.35,14.68,2.9,1.57,13.24,-57.9,81.09,19.9,-4.85,-18.5,0.1623,-0.452,-0.1747,-0.3032,0.3989,-0.6963,0.5087,-0.5787,0.293,0.4009,0.5072,-0.8572,0.4484,-0.7124,0.3038,0.4439,0.4969,-0.982,0.065,0.0,0.013,0.0,0.006,0.013,0.013,0.013,0.019,0.013,0.0,0.013,0.006,0.006,0.013,0.013,0.026,0.013
2.24,0.1,2.58,0.94,1.05,-1.77,0.0,0.0,0.0,0.104,-0.88,-47.72,54.05,-12.04,-7.65,8.53,14.59,-72.42,79.37,15.91,2.99,7.12,12.3,-55.02,76.03,23.38,-2.11,-15.73,5.04,-49.73,51.65,-9.78,-4.73,7.32,17.46,-64.1,85.85,13.98,4.4,0.07,14.74,-59.4,82.59,18.4,-3.35,-17.0,0.1441,-0.4521,-0.1291,-0.2793,0.5228,-0.6742,0.39,-0.4963,0.3157,0.3995,0.5568,-0.8824,0.4721,-0.7983,0.2594,0.3479,0.5636,-0.8637,0.065,0.0,0.013,0.0,0.006,0.013,0.013,0.013,0.019,0.013,0.0,0.013,0.006,0.006,0.013,0.013,0.026,0.013
2.28,0.11,2.55,-0.53,-0.72,1.49,0.0,0.0,0.0,0.104,0.18,-47.11,52.82,-11.69,-7.12,7.38,15.91,-71.37,80.68,16.61,3.34,5.71,11.78,-55.46,77.43,23.82,-3.16,-16.79,5.42,-48.35,53.15,-8.86,-3.23,7.26,15.96,-62.6,87.35,12.48,5.9,-1.43,16.24,-60.9,84.09,16.9,-1.85,-15.5,0.1549,-0.4245,-0.136,-0.2531,0.5416,-0.6793,0.4156,-0.5319,0.3729,0.3095,0.6347,-0.8315,0.5275,-0.7528,0.249,0.3691,0.652,-0.6772,0.065,0.0,0.013,0.0,0.006,0.013,0.013,0.013,0.019,0.013,0.0,0.013,0.006,0.006,0.013,0.013,0.026,0.013
2.32,0.11,2.59,0.76,0.69,0.74,0.0,0.0,0.0,0.104,1.49,-46.23,51.86,-10.11,-6.33,6.59,17.05,-69.96,82.09,16.96,3.96,4.31,11.78,-55.99,78.84,23.91,-3.87,-17.58,5.19,-46.85,53.02,-7.36,-1.73,5.76,14.89,-61.1,88.85,10.98,7.4,-1.1,17.37,-62.4,85.59,15.4,-0.35,-14.0,0.1482,-0.332,-0.1409,-0.1916,0.618,-0.7124,0.4254,-0.5328,0.379,0.3058,0.7184,-0.7776,0.4964,-0.7609,0.2774,0.4105,0.6048,-0.6758,0.0,0.0,0.006,0.0,0.013,0.006,0.006,0.013,0.013,0.006,0.0,0.013,0.006,0.058,0.013,0.013,0.019,0.006
2.36,0.12,2.58,-0.03,0.32,-4.26,0.0,0.0,0.0,0.104,3.16,-46.23,50.98,-9.4,-5.19,6.06,17.84,-68.64,83.5,16.96,4.75,2.9,11.95,-57.04,80.33,23.64,-4.39,-18.11,5.03,-45.35,52.89,-5.86,-0.23,4.26,16.39,-59.6,90.35,9.92,8.9,-2.6,17.82,-63.9,87.09,14.74,1.15,-12.5,0.1438,-0.2591,-0.1424,-0.1424,0.6241,-0.7826,0.4902,-0.5959,0.3295,0.2836,0.6978,-0.8618,0.5091,-0.7327,0.3267,0.4213,0.6227,-0.5938,0.0,0.0,0.006,0.0,0.013,0.006,0.006,0.013,0.013,0.006,0.0,0.013,0.006,0.058,0.013,0.013,0.019,0.006
2.4,0.07,2.54,-1.05,-1.02,4.81,0.0,0.0,0.0,0.104,3.6,-46.23,50.54,-8.96,-4.04,5.62,18.46,-67.15,84.99,16.7,5.89,1.41,12.83,-58.27,81.74,22.76,-4.57,-18.28,4.13,-43.85,51.39,-5.31,1.27,2.76,17.89,-60.97,90.05,8.42,10.4,-3.85,16.32,-63.77,88.59,16.24,2.65,-11.0,0.118,-0.1934,-0.1903,-0.1517,0.609,-0.8035,0.5949,-0.654,0.2947,0.228,0.7599,-0.81,0.4623,-0.7049,0.4076,0.4951,0.5558,-0.6027,0.0,0.0,0.006,0.0,0.013,0.006,0.006,0.013,0.013,0.006,0.0,0.013,0.006,0.058,0.013,0.013,0.019,0.006
2.44,0.14,2.58,0.84,0.71,-3.34,0.0,0.0,0.0,0.104,5.01,-46.23,50.45,-7.65,-2.64,5.01,18.54,-65.74,86.31,15.91,7.12,0.0,13.8,-59.85,83.14,21.8,-4.48,-18.19,4.6,-42.35,49.89,-3.81,2.77,1.26,19.39,-61.94,88.55,9.92,11.9,-5.35,14.82,-65.05,90.09,17.74,1.15,-9.5,0.1313,-0.1447,-0.2681,-0.0848,0.6596,-0.8617,0.6745,-0.6717,0.239,0.3137,0.6879,-0.9009,0.4068,-0.7281,0.4206,0.5906,0.4201,-0.7404,0.006,0.006,0.0,0.0,0.006,0.019,0.006,0.013,0.013,0.013,0.006,0.013,0.013,0.026,0.013,0.019,0.006,0.013
2.48,0.11,2.53,-1.27,-0.55,0.69,0.0,0.0,0.0,0.104,4.57,-46.05,50.45,-5.98,-1.23,4.04,18.63,-64.42,87.54,14.77,8.44,-1.32,14.85,-61.35,84.55,20.48,-3.87,-17.31,3.53,-40.85,48.39,-4.68,4.27,-0.24,20.89,-63.44,87.05,9.27,10.94,-6.85,13.83,-63.55,91.59,19.24,-0.35,-8.0,0.1008,-0.1362,-0.2982,-0.1338,0.5799,-0.8797,0.7624,-0.7944,0.1837,0.2647,0.6535,-0.9284,0.3951,-0.6268,0.4729,0.6623,0.4203,-0.7236,0.006,0.006,0.0,0.0,0.006,0.019,0.006,0.013,0.013,0.013,0.006,0.013,0.013,0.026,0.013,0.019,0.006,0.013
2.52,0.15,2.53,1.18,0.71,-0.86,0.0,0.0,0.0,0.104,5.27,-45.35,50.45,-5.8,0.18,2.81,18.9,-63.37,88.51,13.45,9.67,-2.81,15.56,-62.67,86.04,19.34,-3.08,-16.44,2.41,-39.35,46.89,-5.77,5.77,-1.74,22.39,-64.94,85.55,10.77,9.44,-8.35,12.33,-62.05,93.09,20.74,-1.85,-9.5,0.069,-0.0927,-0.372,-0.165,0.6229,-0.8991,0.7831,-0.7475,0.1246,0.3275,0.6109,-0.977,0.3199,-0.6734,0.4986,0.6818,0.244,-0.9976,0.006,0.006,0.0,0.0,0.006,0.019,0.006,0.013,0.013,0.013,0.006,0.013,0.013,0.026,0.013,0.019,0.006,0.013
2.56,0.18,2.49,-0.74,-0.43,-0.25,0.0,0.0,0.0,0.104,4.66,-44.21,50.01,-4.75,1.58,1.41,19.51,-62.67,89.21,12.13,10.63,-4.22,15.91,-63.72,87.36,18.54,-2.02,-15.21,3.91,-37.85,45.39,-7.09,6.61,-3.24,23.89,-66.44,84.05,12.22,7.94,-9.85,10.83,-60.55,94.59,22.24,-3.35,-11.0,0.1322,-0.1314,-0.496,-0.2025,0.5747,-0.8748,0.8104,-0.8027,0.1245,0.3491,0.5775,-0.9822,0.2835,-0.6331,0.43,0.7707,0.2101,-1.0,0.0,0.006,0.013,0.0,0.006,0.013,0.019,0.006,0.006,0.006,0.0,0.013,0.006,0.013,0.006,0.006,0.006,0.006
2.6,0.12,2.41,-1.32,-0.15,-0.57,0.0,0.0,0.0,0.104,3.6,-43.07,49.04,-3.78,2.99,-0.09,20.39,-62.14,89.56,11.25,11.34,-5.62,16.0,-64.42,88.86,18.02,-1.23,-13.8,4.67,-36.35,43.89,-8.59,6.53,-4.74,25.39,-66.92,82.55,12.76,7.52,-11.35,9.33,-60.84,96.09,23.74,-4.85,-12.5,0.1333,-0.1012,-0.5301,-0.2591,0.5732,-0.8433,0.7547,-0.7622,0.1009,0.3645,0.5912,-0.9263,0.238,-0.6516,0.3768,0.7885,0.0704,-1.0,0.0,0.006,0.013,0.0,0.006,0.013,0.019,0.006,0.006,0.006,0.0,0.013,0.006,0.013,0.006,0.006,0.006,0.006
2.64,0.2,2.45,1.89,1.26,-0.08,0.0,0.0,0.0,0.104,4.13,-41.66,47.99,-3.96,4.22,-1.41,21.62,-62.14,89.56,10.55,11.6,-6.94,15.64,-64.78,90.35,17.84,-0.7,-12.83,6.17,-34.85,42.39,-8.52,6.67,-5.04,25.38,-65.42,81.05,14.26,9.02,-10.56,7.83,-61.71,94.59,25.24,-6.35,-14.0,0.2029,-0.0705,-0.5329,-0.2435,0.5759,-0.824,0.7253,-0.7316,0.0933,0.4164,0.6188,-0.8889,0.2229,-0.6674,0.3367,0.7929,0.0335,-1.0,0.0,0.006,0.013,0.0,0.006,0.013,0.019,0.006,0.006,0.006,0.0,0.013,0.006,0.013,0.006,0.006,0.006,0.006
2.68,0.13,2.36,-2.37,-1.52,-0.07,0.0,0.0,0.0,0.104,3.78,-40.25,46.58,-4.22,5.27,-2.64,22.76,-62.31,89.38,10.11,11.6,-8.35,14.77,-64.78,91.67,18.02,-0.62,-11.95,7.67,-33.35,40.89,-7.4,5.17,-3.54,23.88,-63.92,79.55,14.42,9.76,-9.06,7.68,-60.21,93.09,26.74,-7.85,-15.5,0.2959,-0.0617,-0.6281,-0.2116,0.4918,-0.8034,0.6785,-0.7004,0.1479,0.4119,0.632,-0.8683,0.2194,-0.613,0.301,0.8188,0.0792,-1.0,0.013,0.013,0.013,0.013,0.006,0.0,0.019,0.019,0.019,0.0,0.013,0.006,0.019,0.006,0.0,0.013,0.006,0.006
2.72,0.19,2.37,1.35,0.9,-1.57,0.0,0.0,0.0,0.104,5.19,-38.85,45.18,-5.01,5.98,-3.78,23.82,-63.19,89.03,10.11,11.43,-9.32,13.62,-64.42,92.9,18.81,-0.7,-11.43,9.17,-31.85,39.39,-6.8,6.67,-2.04,22.38,-62.42,81.05,14.85,11.26,-7.56,6.18,-61.71,91.59,27.17,-9.35,-17.0,0.3176,0.0166,-0.6073,-0.1944,0.6076,-0.7295,0.5773,-0.5728,0.2209,0.4243,0.7537,-0.7602,0.1475,-0.7145,0.2769,0.7763,0.0512,-1.0,0.013,0.013,0.013,0.013,0.006,0.0,0.019,0.019,0.019,0.0,0.013,0.006,0.019,0.006,0.0,0.013,0.006,0.006
2.76,0.21,2.36,-0.12,-0.06,1.09,0.0,0.0,0.0,0.104,6.06,-37.35,43.86,-5.89,6.42,-4.48,24.52,-63.54,87.71,10.55,10.63,-10.02,12.39,-63.54,93.69,19.78,-1.32,-11.34,10.67,-30.35,37.89,-5.3,6.32,-0.54,20.88,-60.92,82.55,13.86,12.76,-6.06,5.45,-61.25,90.09,25.84,-10.85,-18.5,0.4009,0.053,-0.6585,-0.0911,0.5694,-0.7612,0.4963,-0.5294,0.3227,0.3961,0.7713,-0.8159,0.1557,-0.6591,0.2597,0.7384,0.1919,-1.0,0.013,0.013,0.013,0.013,0.006,0.0,0.019,0.019,0.019,0.0,0.013,0.006,0.019,0.006,0.0,0.013,0.006,0.006
2.8,0.14,2.34,-0.95,-0.24,-0.3,0.0,0.0,0.0,0.104,7.29,-35.95,42.36,-6.59,6.42,-4.92,24.96,-63.72,86.4,11.43,10.28,-10.46,10.9,-62.58,94.31,21.01,-2.2,-11.43,12.17,-28.85,36.39,-3.8,7.82,0.96,19.38,-59.42,84.05,12.36,14.26,-4.56,5.07,-62.75,88.59,24.34,-9.54,-20.0,0.4101,0.1745,-0.6842,-0.0458,0.6916,-0.7415,0.3807,-0.4221,0.4386,0.3397,0.8814,-0.7768,0.1449,-0.7326,0.2643,0.6777,0.281,-1.0,0.006,0.006,0.013,0.006,0.0,0.006,0.0,0.0,0.026,0.013,0.0,0.006,0.013,0.0,0.0,0.006,0.039,0.013
2.84,0.21,2.38,1.56,0.74,-0.55,0.0,0.0,0.0,0.104,8.88,-34.45,40.96,-7.03,6.42,-4.83,24.96,-63.28,85.17,12.13,10.2,-10.37,9.49,-61.96,94.39,22.32,-3.43,-12.13,13.67,-27.35,34.89,-2.3,9.32,-0.43,17.88,-57.92,85.55,10.86,15.76,-6.06,4.89,-64.25,88.61,22.84,-8.04,-18.5,0.4185,0.265,-0.6499,0.057,0.8283,-0.7698,0.2844,-0.3644,0.5351,0.2888,0.9338,-0.8416,0.1398,-0.8205,0.2778,0.5792,0.3833,-0.7981,0.006,0.006,0.013,0.006,0.0,0.006,0.0,0.0,0.026,0.013,0.0,0.006,0.013,0.0,0.0,0.006,0.039,0.013
2.88,0.12,2.35,-2.06,-1.01,1.18,0.0,0.0,0.0,0.104,10.2,-33.13,39.55,-7.12,6.77,-4.48,24.96,-62.84,84.11,12.74,10.46,-10.02,8.09,-61.52,94.31,23.29,-4.75,-13.1,13.79,-25.85,33.39,-0.8,10.82,-1.93,16.38,-56.42,87.05,9.36,17.26,-7.56,6.39,-65.75,88.36,21.34,-6.54,-17.0,0.394,0.3125,-0.6631,0.1603,0.8096,-0.8867,0.2641,-0.3993,0.5534,0.1772,0.9392,-0.9492,0.2638,-0.7496,0.2748,0.5424,0.5799,-0.5021,0.006,0.006,0.013,0.006,0.0,0.006,0.0,0.0,0.026,0.013,0.0,0.006,0.013,0.0,0.0,0.006,0.039,0.013
2.92,0.15,2.38,1.53,0.89,-1.45,0.0,0.0,0.0,0.104,11.51,-31.73,38.14,-7.12,7.56,-3.52,24.35,-61.7,83.41,12.83,11.07,-9.14,6.86,-61.61,93.43,23.91,-5.89,-14.24,12.29,-24.35,31.89,0.7,12.32,-3.43,14.88,-54.92,88.55,7.86,18.76,-9.06,7.89,-67.25,89.86,19.84,-5.04,-15.5,0.3,0.3884,-0.6742,0.2013,0.9018,-0.9462,0.2632,-0.3389,0.5259,0.0571,0.9701,-1.0,0.3196,-0.7943,0.3043,0.4988,0.6023,-0.3517,0.0,0.006,0.013,0.019,0.006,0.006,0.013,0.006,0.013,0.0,0.006,0.0,0.006,0.006,0.006,0.006,0.019,0.006
2.96,0.12,2.39,-1.05,-0.86,1.7,0.0,0.0,0.0,0.104,12.48,-30.32,36.74,-6.33,8.53,-2.72,23.12,-60.38,83.06,12.66,12.13,-8.26,5.98,-61.96,92.55,24.26,-6.77,-15.29,10.79,-22.85,30.39,2.2,13.82,-4.93,13.38,-53.42,90.05,6.36,20.26,-10.56,9.39,-65.75,91.36,19.06,-3.54,-14.0,0.2575,0.3885,-0.7122,0.2693,0.7862,-1.0,0.3107,-0.4346,0.4667,-0.0241,0.8955,-1.0,0.4205,-0.6904,0.3343,0.5446,0.7366,-0.1162,0.0,0.006,0.013,0.019,0.006,0.006,0.013,0.006,0.013,0.0,0.006,0.0,0.006,0.006,0.006,0.006,0.019,0.006
3.0,0.11,2.35,-0.39,-0.22,-1.45,0.0,0.0,0.0,0.104,13.18,-28.92,35.24,-5.01,9.84,-2.29,21.8,-58.89,83.06,11.87,13.36,-7.82,5.36,-62.75,91.41,24.17,-7.38,-16.08,9.29,-21.35,28.89,3.7,15.32,-6.43,11.88,-51.92,91.55,4.86,18.89,-12.06,10.89,-64.97,92.86,19.67,-2.04,-12.5,0.1476,0.3949,-0.7523,0.2755,0.777,-1.0,0.325,-0.4169,0.3398,-0.0332,0.7979,-1.0,0.4594,-0.7267,0.356,0.5619,0.6662,-0.2012,0.0,0.006,0.013,0.019,0.006,0.006,0.013,0.006,0.013,0.0,0.006,0.0,0.006,0.006,0.006,0.006,0.019,0.006
3.04,0.16,2.35,0.41,-0.15,0.65,0.0,0.0,0.0,0.104,13.62,-27.42,33.84,-3.52,11.16,-2.2,20.39,-57.57,83.23,10.99,14.77,-7.82,5.01,-63.63,90.62,23.64,-7.65,-16.61,7.79,-19.85,27.39,5.2,13.82,-7.93,12.63,-50.48,90.05,3.36,17.39,-13.56,12.39,-63.47,94.36,20.12,-0.54,-11.0,0.0818,0.3258,-0.7237,0.2507,0.6908,-1.0,0.361,-0.4633,0.2341,-0.0006,0.7275,-1.0,0.4802,-0.6895,0.3907,0.5749,0.6558,-0.1973,0.0,0.006,0.006,0.013,0.006,0.006,0.013,0.013,0.006,0.019,0.0,0.013,0.0,0.013,0.0,0.006,0.0,0.0
3.08,0.12,2.32,-0.44,-0.09,0.29,0.0,0.0,0.0,0.104,13.54,-26.02,32.43,-2.55,12.48,-2.46,18.98,-56.16,83.5,9.67,16.08,-7.91,5.01,-64.42,90.18,22.76,-7.56,-16.7,6.29,-18.35,25.89,6.7,12.32,-9.43,13.68,-50.6,88.55,1.86,15.89,-15.06,13.89,-61.97,95.86,21.06,0.96,-9.5,0.0582,0.2485,-0.7514,0.2089,0.6087,-1.0,0.3909,-0.4654,0.1439,0.0288,0.6248,-1.0,0.4923,-0.6614,0.3926,0.6017,0.5768,-0.3461,0.0,0.006,0.006,0.013,0.006,0.006,0.013,0.013,0.006,0.019,0.0,0.013,0.0,0.013,0.0,0.006,0.0,0.0
3.12,0.13,2.37,0.69,0.27,1.56,0.0,0.0,0.0,0.104,13.27,-24.61,31.03,-1.23,13.54,-3.34,17.58,-54.76,84.55,8.26,17.05,-8.96,5.62,-64.78,90.18,21.8,-7.21,-16.52,4.79,-16.85,24.39,5.2,10.82,-10.93,14.66,-50.2,87.05,3.36,14.39,-16.56,15.39,-63.47,97.36,22.56,-0.54,-8.0,0.0499,0.218,-0.7401,0.1228,0.6152,-1.0,0.4188,-0.4581,0.0848,0.1071,0.5747,-1.0,0.4455,-0.706,0.3811,0.6532,0.4404,-0.5259,0.0,0.006,0.006,0.013,0.006,0.006,0.013,0.013,0.006,0.019,0.0,0.013,0.0,0.013,0.0,0.006,0.0,0.0
3.16,0.11,2.32,-1.19,-0.7,-0.81,0.0,0.0,0.0,0.104,12.13,-23.2,29.62,0.53,14.24,-4.22,16.26,-53.35,85.87,6.86,17.84,-9.93,6.59,-64.78,90.44,21.09,-6.42,-15.82,3.37,-17.16,22.89,3.7,9.32,-12.43,16.16,-51.7,85.55,4.86,12.89,-18.06,13.89,-64.97,95.86,23.94,-2.04,-6.5,0.0964,0.1425,-0.6818,0.0797,0.5953,-0.9623,0.4762,-0.5066,0.0253,0.2039,0.5747,-1.0,0.3935,-0.7293,0.3439,0.684,0.3478,-0.64,0.006,0.006,0.013,0.013,0.006,0.026,0.006,0.006,0.013,0.006,0.0,0.026,0.013,0.0,0.006,0.006,0.006,0.006
3.2,0.11,2.36,0.65,0.57,0.87,0.0,0.0,0.0,0.104,11.43,-21.8,28.21,1.67,14.77,-5.62,15.29,-52.03,86.84,5.54,18.37,-11.16,7.65,-64.6,91.32,20.74,-5.27,-14.85,3.33,-18.66,21.39,2.2,9.72,-10.93,17.66,-53.2,84.05,6.36,11.39,-19.56,12.39,-66.47,94.36,23.36,-3.54,-8.0,0.095,0.0658,-0.5921,-0.0193,0.6313,-0.8574,0.5375,-0.5214,-0.0415,0.2586,0.5873,-1.0,0.3212,-0.8089,0.3115,0.6675,0.1836,-0.8889,0.006,0.006,0.013,0.013,0.006,0.026,0.006,0.006,0.013,0.006,0.0,0.026,0.013,0.0,0.006,0.006,0.006,0.006
3.24,0.1,2.3,-0.91,-0.58,-1.18,0.0,0.0,0.0,0.104,9.76,-20.21,26.63,2.9,14.85,-7.21,14.41,-51.15,87.63,4.39,18.37,-12.83,9.23,-65.04,92.37,20.74,-3.96,-13.45,4.83,-20.16,19.89,0.7,8.22,-9.43,19.16,-54.7,82.55,7.86,9.89,-20.0,10.89,-67.97,92.86,24.14,-5.04,-9.5,0.1723,-0.0266,-0.5675,-0.0722,0.5924,-0.7889,0.5803,-0.5753,-0.0397,0.3408,0.5585,-1.0,0.2712,-0.8303,0.2316,0.6897,0.0907,-1.0,0.006,0.006,0.013,0.013,0.006,0.026,0.006,0.006,0.013,0.006,0.0,0.026,0.013,0.0,0.006,0.006,0.006,0.006
3.28,0.1,2.29,0.32,0.25,2.06,0.0,0.0,0.0,0.104,8.17,-19.25,25.31,3.6,14.85,-8.26,14.06,-50.54,87.89,3.78,18.28,-13.97,10.28,-65.65,93.25,21.36,-3.16,-12.39,6.01,-21.66,21.39,-0.8,9.19,-7.93,20.59,-56.2,81.05,9.36,11.39,-20.0,9.39,-69.47,91.36,23.57,-6.54,-11.0,0.1718,-0.0876,-0.5067,-0.1553,0.6217,-0.688,0.5882,-0.6,-0.021,0.399,0.664,-1.0,0.1869,-0.8463,0.1867,0.6733,-0.0475,-1.0,0.019,0.006,0.006,0.0,0.026,0.006,0.0,0.0,0.0,0.006,0.019,0.013,0.006,0.026,0.0,0.006,0.0,0.006
3.32,0.11,2.32,0.5,0.61,-1.86,0.0,0.0,0.0,0.104,7.65,-18.37,23.99,4.04,14.15,-9.32,13.97,-50.36,87.98,3.43,17.58,-15.38,11.16,-66.71,93.87,22.06,-2.55,-11.34,7.51,-23.16,22.89,-2.3,7.93,-6.43,21.03,-57.7,79.55,10.86,11.08,-18.5,7.89,-67.97,89.86,22.39,-8.04,-12.5,0.2537,-0.1061,-0.4473,-0.1364,0.5987,-0.6901,0.6008,-0.6294,0.0086,0.4559,0.656,-0.9448,0.1894,-0.772,0.1786,0.6398,-0.0708,-1.0,0.019,0.006,0.006,0.0,0.026,0.006,0.0,0.0,0.0,0.006,0.019,0.013,0.006,0.026,0.0,0.006,0.0,0.006
3.36,0.06,2.27,-1.31,-0.82,1.56,0.0,0.0,0.0,0.104,5.8,-17.75,22.85,4.22,13.18,-10.02,13.97,-50.36,87.71,3.43,16.61,-16.79,11.87,-67.76,94.31,22.85,-2.29,-10.46,8.57,-24.66,24.39,-3.8,9.43,-4.93,19.88,-58.97,78.05,12.36,12.58,-17.0,6.39,-66.47,88.36,20.89,-9.54,-14.0,0.2448,-0.0746,-0.394,-0.1569,0.6498,-0.6383,0.5681,-0.6176,0.0888,0.4365,0.7509,-0.7873,0.1523,-0.7286,0.2186,0.5815,-0.0633,-1.0,0.019,0.006,0.006,0.0,0.026,0.006,0.0,0.0,0.0,0.006,0.019,0.013,0.006,0.026,0.0,0.006,0.0,0.006
3.4,0.11,2.32,1.11,0.77,0.25,0.0,0.0,0.0,0.104,5.62,-17.67,22.06,4.22,12.04,-10.37,14.59,-50.98,87.45,3.69,15.38,-17.84,12.22,-68.64,94.31,23.29,-2.29,-9.93,10.07,-26.16,25.89,-2.94,10.93,-3.43,18.38,-57.47,79.55,13.86,14.08,-15.5,4.89,-65.25,86.86,19.39,-11.04,-15.5,0.29,-0.0472,-0.3153,-0.0839,0.7387,-0.6232,0.4833,-0.5834,0.219,0.4935,0.8303,-0.6806,0.0993,-0.7318,0.2301,0.5094,-0.0619,-1.0,0.033,0.0,0.006,0.019,0.013,0.006,0.013,0.006,0.019,0.013,0.013,0.006,0.006,0.006,0.019,0.006,0.013,0.0
3.44,0.06,2.29,-1.46,-0.47,-2.36,0.0,0.0,0.0,0.104,5.19,-17.67,21.53,3.96,11.07,-10.28,15.82,-52.12,86.13,4.83,14.33,-18.63,12.22,-69.08,93.6,23.29,-2.64,-9.84,10.65,-24.66,27.39,-1.78,12.43,-1.93,16.88,-58.39,81.05,13.78,15.58,-14.0,4.56,-63.75,87.33,17.89,-12.54,-17.0,0.3042,0.0103,-0.3026,-0.0509,0.7518,-0.6671,0.4341,-0.6071,0.3325,0.3937,0.859,-0.6331,0.1304,-0.6204,0.2627,0.4935,0.0503,-1.0,0.033,0.0,0.006,0.019,0.013,0.006,0.013,0.006,0.019,0.013,0.013,0.006,0.006,0.006,0.019,0.006,0.013,0.0
3.48,0.05,2.28,0.4,-0.16,4.25,0.0,0.0,0.0,0.104,4.66,-18.02,21.36,2.64,10.46,-10.02,16.79,-53.17,84.81,5.71,13.62,-19.07,11.6,-69.35,92.81,22.94,-3.34,-9.84,9.54,-23.16,28.89,-0.3,13.93,-0.43,15.38,-56.89,82.55,12.28,17.08,-12.5,3.06,-62.4,88.83,16.39,-14.04,-18.5,0.2725,0.1039,-0.3138,-0.0087,0.8949,-0.6745,0.3067,-0.5337,0.4961,0.2799,0.9611,-0.5952,0.0435,-0.68,0.3592,0.4349,0.0954,-0.9872,0.033,0.0,0.006,0.019,0.013,0.006,0.013,0.006,0.019,0.013,0.013,0.006,0.006,0.006,0.019,0.006,0.013,0.0
3.52,0.08,2.33,0.7,0.59,-2.67,0.0,0.0,0.0,0.104,5.89,-18.98,21.36,0.97,9.93,-8.96,17.49,-54.4,83.58,7.12,13.1,-19.16,10.72,-68.99,91.67,22.06,-4.39,-10.63,11.04,-21.66,28.77,1.2,15.43,-1.93,13.88,-55.39,84.05,10.78,18.58,-11.0,2.87,-60.9,90.33,17.44,-12.54,-17.0,0.3253,0.176,-0.4262,0.1475,0.9104,-0.7995,0.236,-0.5322,0.6334,0.2044,0.9393,-0.7013,0.0819,-0.6101,0.3262,0.4983,0.2492,-0.7487,0.006,0.019,0.019,0.006,0.0,0.013,0.006,0.013,0.013,0.013,0.006,0.006,0.013,0.0,0.006,0.013,0.033,0.006
3.56,0.03,2.26,-1.28,-0.92,1.2,0.0,0.0,0.0,0.104,5.8,-19.95,21.97,0.7,9.93,-7.91,17.93,-55.37,82.62,8.35,13.01,-18.9,9.67,-68.38,90.53,21.09,-5.8,-11.51,9.54,-20.16,27.27,2.7,16.93,-3.43,12.38,-56.5,85.55,9.28,20.08,-9.5,4.05,-59.4,91.83,18.94,-11.04,-15.5,0.2719,0.3271,-0.4945,0.1981,0.952,-0.901,0.2643,-0.5727,0.6861,-0.0951,1.0,-0.6743,0.1158,-0.5767,0.4096,0.5817,0.3853,-0.3862,0.006,0.019,0.019,0.006,0.0,0.013,0.006,0.013,0.013,0.013,0.006,0.006,0.013,0.0,0.006,0.013,0.033,0.006
3.6,0.1,2.27,1.3,1.29,-1.12,0.0,0.0,0.0,0.104,7.47,-20.74,23.03,0.26,10.02,-6.59,17.93,-56.07,81.91,9.4,13.1,-18.02,8.26,-67.32,89.74,19.78,-7.21,-12.74,8.04,-18.66,25.77,4.2,18.43,-4.93,10.88,-55.0,87.05,7.78,21.58,-9.52,4.98,-58.09,93.33,20.44,-9.54,-14.0,0.2023,0.3937,-0.5661,0.3981,0.9929,-1.0,0.2374,-0.5309,0.6754,-0.1718,1.0,-0.8767,0.1424,-0.6016,0.4433,0.604,0.5188,-0.1299,0.006,0.019,0.019,0.006,0.0,0.013,0.006,0.013,0.013,0.013,0.006,0.006,0.013,0.0,0.006,0.013,0.033,0.006
3.64,0.09,2.19,-0.74,-0.65,0.61,0.0,0.0,0.0,0.104,8.26,-21.18,24.08,-0.79,10.81,-5.36,17.93,-56.51,81.56,10.11,13.8,-16.96,6.94,-66.09,89.21,18.98,-8.35,-13.71,6.54,-17.16,24.27,5.7,19.93,-6.43,10.58,-55.98,88.55,6.28,23.08,-11.02,6.48,-56.59,94.83,21.94,-8.04,-12.5,0.1632,0.4067,-0.724,0.4417,0.9314,-1.0,0.3024,-0.5634,0.6446,-0.3944,0.947,-1.0,0.2786,-0.5289,0.4208,0.6684,0.6972,0.1729,0.033,0.0,0.0,0.013,0.006,0.006,0.026,0.006,0.0,0.006,0.006,0.006,0.013,0.019,0.006,0.006,0.019,0.0
3.68,0.08,2.24,-0.3,0.26,0.66,0.0,0.0,0.0,0.104,8.7,-21.36,24.87,-0.35,11.95,-4.48,17.31,-56.6,81.56,10.55,14.77,-15.73,5.98,-64.78,89.21,18.28,-9.4,-14.5,5.04,-15.66,22.77,7.2,21.43,-7.93,9.92,-54.48,90.05,4.78,24.25,-12.52,7.98,-57.49,96.33,23.44,-6.54,-11.0,0.1115,0.4202,-0.8716,0.4318,0.888,-1.0,0.2835,-0.5141,0.5597,-0.4436,0.8955,-1.0,0.3166,-0.5907,0.3893,0.7599,0.6523,0.1093,0.033,0.0,0.0,0.013,0.006,0.006,0.026,0.006,0.0,0.006,0.006,0.006,0.013,0.019,0.006,0.006,0.019,0.0
3.72,0.16,2.27,1.26,0.68,-2.69,0.0,0.0,0.0,0.104,9.76,-21.36,25.4,0.26,13.18,-3.78,16.08,-56.16,81.74,10.63,16.0,-14.33,5.36,-63.46,89.3,18.02,-10.02,-15.12,3.58,-14.16,21.27,8.7,19.93,-9.43,9.57,-52.98,91.55,3.28,22.75,-14.02,9.48,-58.21,95.39,24.94,-5.04,-9.5,0.1022,0.4221,-0.9386,0.4393,0.8169,-1.0,0.2733,-0.5035,0.4602,-0.3968,0.7506,-1.0,0.3783,-0.6038,0.3575,0.8105,0.7036,0.0776,0.033,0.0,0.0,0.013,0.006,0.006,0.026,0.006,0.0,0.006,0.006,0.006,0.013,0.019,0.006,0.006,0.019,0.0
3.76,0.09,2.22,-1.59,-0.78,2.52,0.0,0.0,0.0,0.104,8.88,-20.74,25.58,1.14,14.59,-3.6,14.77,-55.63,82.0,10.37,17.4,-13.27,4.92,-62.05,90.18,18.02,-10.46,-15.21,2.64,-12.66,19.77,10.2,18.43,-10.93,9.71,-52.53,93.05,1.78,21.25,-15.52,10.98,-59.01,94.66,26.44,-3.54,-8.0,0.0755,0.3843,-1.0,0.3629,0.6559,-1.0,0.2774,-0.5005,0.3377,-0.3748,0.6493,-1.0,0.4434,-0.6184,0.3489,0.8568,0.6695,-0.0804,0.0,0.006,0.0,0.013,0.013,0.0,0.013,0.019,0.033,0.006,0.006,0.0,0.006,0.019,0.0,0.019,0.006,0.006
3.8,0.15,2.24,0.83,0.8,-1.79,0.0,0.0,0.0,0.104,8.96,-19.78,25.58,2.29,15.91,-3.69,13.36,-54.67,83.14,9.32,18.72,-12.48,4.83,-60.82,91.14,18.72,-10.46,-15.12,3.08,-11.16,18.27,9.89,16.93,-12.43,8.82,-51.03,91.55,0.28,19.75,-17.02,12.48,-60.51,93.16,27.94,-2.04,-6.5,0.0881,0.3404,-1.0,0.2826,0.6271,-1.0,0.2521,-0.3974,0.2103,-0.1881,0.5374,-1.0,0.4442,-0.7454,0.3079,0.8653,0.5547,-0.3719,0.0,0.006,0.0,0.013,0.013,0.0,0.013,0.019,0.033,0.006,0.006,0.0,0.006,0.019,0.0,0.019,0.006,0.006
3.84,0.14,2.18,-1.08,-0.51,-0.47,0.0,0.0,0.0,0.104,8.17,-18.54,24.96,3.6,16.96,-4.31,12.04,-53.44,84.73,8.35,19.78,-12.04,5.19,-59.85,92.2,19.6,-10.2,-14.41,3.35,-11.4,16.77,8.39,15.43,-13.93,10.32,-49.53,90.05,-1.22,18.25,-18.52,13.98,-62.01,91.66,29.44,-0.54,-5.0,0.0957,0.2472,-1.0,0.1475,0.4633,-1.0,0.3087,-0.4174,0.0815,-0.1035,0.4708,-1.0,0.5051,-0.7398,0.2725,0.8668,0.5047,-0.5716,0.0,0.006,0.0,0.013,0.013,0.0,0.013,0.019,0.033,0.006,0.006,0.0,0.006,0.019,0.0,0.019,0.006,0.006
3.88,0.17,2.18,0.27,-0.0,2.27,0.0,0.0,0.0,0.104,6.68,-17.14,23.99,5.01,17.75,-5.27,10.9,-52.12,86.04,7.03,20.65,-12.04,6.15,-59.15,93.08,20.83,-9.58,-13.45,2.87,-12.9,15.27,6.89,13.93,-15.43,11.82,-48.03,88.55,0.28,16.75,-20.0,15.48,-63.51,90.16,29.15,-2.04,-6.5,0.0821,0.1509,-1.0,-0.0029,0.4495,-0.9531,0.3508,-0.3465,-0.053,0.0594,0.4234,-1.0,0.4632,-0.8631,0.2329,0.833,0.3114,-0.9308,0.026,0.006,0.019,0.006,0.0,0.013,0.006,0.013,0.019,0.013,0.0,0.013,0.013,0.013,0.0,0.013,0.013,0.019
3.92,0.23,2.2,1.06,0.69,-2.39,0.0,0.0,0.0,0.104,6.15,-15.91,22.85,6.15,18.28,-6.42,10.02,-50.8,87.36,5.62,21.09,-12.13,7.21,-58.8,93.6,22.15,-8.44,-12.22,4.37,-14.4,13.77,5.39,12.43,-13.93,13.32,-48.0,87.05,1.78,15.25,-20.0,15.62,-65.01,88.66,29.03,-3.54,-8.0,0.1248,0.0145,-1.0,-0.1082,0.4048,-0.8275,0.409,-0.4182,-0.1134,0.2215,0.3874,-1.0,0.4464,-0.8749,0.0984,0.8295,0.208,-1.0,0.026,0.006,0.019,0.006,0.0,0.013,0.006,0.013,0.019,0.013,0.0,0.013,0.013,0.013,0.0,0.013,0.013,0.019
3.96,0.14,2.17,-1.57,-0.81,1.71,0.0,0.0,0.0,0.104,4.04,-14.68,21.45,7.12,18.37,-7.82,9.32,-49.39,88.33,4.22,21.18,-13.1,8.53,-58.89,93.69,23.64,-7.12,-10.9,3.77,-15.9,12.27,3.89,10.93,-12.43,14.82,-49.5,85.55,3.28,13.75,-20.0,14.21,-66.51,87.16,28.96,-5.04,-9.5,0.1076,-0.0635,-0.9819,-0.2327,0.3424,-0.7157,0.4912,-0.4989,-0.1872,0.2481,0.425,-1.0,0.406,-0.8599,0.0185,0.8274,0.035,-1.0,0.026,0.006,0.019,0.006,0.0,0.013,0.006,0.013,0.019,0.013,0.0,0.013,0.013,0.013,0.0,0.013,0.013,0.019
4.0,0.21,2.24,2.16,1.66,-0.98,0.0,0.0,0.0,0.104,3.96,-13.97,20.04,7.65,18.37,-9.23,9.05,-48.87,89.03,3.16,21.18,-14.06,9.93,-59.24,93.43,24.96,-5.89,-9.76,3.77,-17.4,10.77,2.39,9.43,-10.93,16.32,-51.0,84.05,4.78,12.25,-20.0,12.71,-68.01,85.66,27.46,-6.54,-11.0,0.1077,-0.1298,-0.8449,-0.2577,0.4355,-0.6106,0.5433,-0.5353,-0.2314,0.3798,0.4948,-1.0,0.3272,-0.898,0.002,0.7407,-0.1341,-1.0,0.033,0.006,0.019,0.006,0.019,0.013,0.006,0.006,0.006,0.006,0.019,0.019,0.013,0.006,0.006,0.019,0.0,0.006
4.04,0.18,2.18,-1.33,-0.77,-1.71,0.0,0.0,0.0,0.104,3.16,-13.27,18.63,7.91,17.84,-10.46,9.05,-48.25,89.47,2.37,20.48,-15.38,11.16,-59.77,92.64,26.28,-4.92,-8.96,5.27,-18.9,9.27,0.89,7.93,-9.43,17.82,-52.5,82.55,6.28,10.75,-20.0,11.23,-66.51,84.16,25.96,-8.04,-12.5,0.1529,-0.1797,-0.747,-0.2549,0.3498,-0.6021,0.5983,-0.6099,-0.2148,0.3492,0.5147,-1.0,0.3208,-0.735,0.0258,0.701,-0.1297,-1.0,0.033,0.006,0.019,0.006,0.019,0.013,0.006,0.006,0.006,0.006,0.019,0.019,0.013,0.006,0.006,0.019,0.0,0.006
4.08,0.13,2.18,-0.4,-0.51,4.12,0.0,0.0,0.0,0.104,2.72,-13.18,17.23,7.91,16.88,-11.43,9.05,-47.99,89.56,1.93,19.6,-16.79,12.22,-60.91,91.76,27.25,-4.13,-8.35,3.77,-20.4,10.77,-0.61,6.43,-7.93,19.32,-54.0,81.05,7.78,12.12,-18.5,9.73,-67.39,82.66,24.46,-9.54,-14.0,0.0953,-0.159,-0.6147,-0.2792,0.4917,-0.5112,0.5685,-0.531,-0.1513,0.3665,0.6749,-0.8701,0.2155,-0.7708,0.1542,0.584,-0.2179,-1.0,0.033,0.006,0.019,0.006,0.019,0.013,0.006,0.006,0.006,0.006,0.019,0.019,0.013,0.006,0.006,0.019,0.0,0.006
4.12,0.21,2.22,1.12,0.62,-2.71,0.0,0.0,0.0,0.104,3.6,-13.18,15.82,7.91,15.73,-12.04,10.2,-48.16,89.38,1.76,18.28,-18.02,12.92,-62.05,90.44,28.04,-3.78,-8.09,5.27,-21.9,12.27,-2.11,6.84,-6.43,19.2,-54.38,79.55,9.28,13.62,-17.0,8.23,-65.89,82.8,22.96,-11.04,-15.5,0.1545,-0.1369,-0.472,-0.1538,0.5789,-0.5348,0.5486,-0.5342,-0.0419,0.394,0.7095,-0.7718,0.2006,-0.688,0.2094,0.5048,-0.2032,-1.0,0.006,0.033,0.013,0.026,0.033,0.006,0.013,0.019,0.013,0.006,0.019,0.006,0.0,0.019,0.019,0.006,0.006,0.0
4.16,0.12,2.15,-1.24,-0.24,1.24,0.0,0.0,0.0,0.104,3.52,-13.71,14.5,6.86,14.24,-12.3,11.34,-48.87,89.21,2.2,16.96,-18.98,13.36,-63.46,89.03,28.39,-3.78,-8.09,4.81,-23.4,13.77,-3.61,7.72,-4.93,17.7,-54.77,78.05,9.79,15.12,-15.5,6.73,-64.39,84.3,21.46,-12.54,-17.0,0.1373,-0.0626,-0.3472,-0.1474,0.5949,-0.5377,0.4857,-0.5413,0.0786,0.2796,0.8312,-0.6282,0.1806,-0.5673,0.3525,0.4232,-0.104,-1.0,0.006,0.033,0.013,0.026,0.033,0.006,0.013,0.019,0.013,0.006,0.019,0.006,0.0,0.019,0.019,0.006,0.006,0.0
4.2,0.18,2.23,1.76,1.36,-0.83,0.0,0.0,0.0,0.104,4.83,-14.59,13.36,5.27,12.92,-12.04,12.74,-49.66,88.07,2.99,15.82,-19.6,13.36,-64.51,87.63,28.48,-3.96,-8.7,4.94,-23.34,15.27,-2.11,9.22,-3.43,16.2,-53.27,79.55,9.78,16.62,-14.0,5.23,-62.89,85.8,19.96,-14.04,-18.5,0.141,0.0302,-0.2811,-0.0146,0.8008,-0.5423,0.3922,-0.4236,0.2588,0.2793,0.9156,-0.5773,0.0634,-0.6167,0.4474,0.3267,-0.086,-1.0,0.006,0.033,0.013,0.026,0.033,0.006,0.013,0.019,0.013,0.006,0.019,0.006,0.0,0.019,0.019,0.006,0.006,0.0
4.24,0.18,2.19,-0.63,-0.38,-1.44,0.0,0.0,0.0,0.104,5.27,-15.73,12.57,4.22,11.6,-11.78,14.06,-50.8,86.66,3.87,14.94,-19.95,12.92,-65.21,86.4,28.04,-4.66,-9.58,6.44,-21.84,16.77,-0.61,10.72,-1.93,14.7,-51.77,81.05,8.28,18.12,-12.5,3.73,-61.39,87.3,18.46,-15.54,-17.0,0.1935,0.1301,-0.28,0.094,0.8039,-0.6563,0.3454,-0.4799,0.4338,0.1114,0.9627,-0.537,0.0975,-0.4889,0.4708,0.3535,0.0861,-0.6917,0.019,0.026,0.006,0.026,0.019,0.013,0.006,0.019,0.026,0.019,0.013,0.006,0.013,0.006,0.006,0.006,0.033,0.019
4.28,0.15,2.18,0.3,0.17,2.74,0.0,0.0,0.0,0.104,5.1,-17.14,12.13,2.81,10.46,-10.63,15.12,-51.86,85.25,5.19,14.33,-19.69,12.13,-65.74,85.34,27.07,-5.62,-10.81,5.02,-20.34,18.27,0.89,12.22,-0.43,13.2,-50.27,82.55,6.78,19.62,-11.0,2.23,-59.89,88.8,16.96,-15.0,-15.5,0.1433,0.3004,-0.2685,0.222,0.9823,-0.7494,0.2598,-0.4203,0.5621,-0.0008,1.0,-0.5487,0.0402,-0.5147,0.5546,0.3431,0.1819,-0.3944,0.019,0.026,0.006,0.026,0.019,0.013,0.006,0.019,0.026,0.019,0.013,0.006,0.013,0.006,0.006,0.006,0.033,0.019
4.32,0.22,2.23,0.82,0.4,-0.01,0.0,0.0,0.0,0.104,6.5,-18.54,11.95,0.97,9.76,-9.49,15.91,-52.38,84.02,6.33,14.06,-19.42,11.07,-65.65,84.73,26.02,-6.94,-12.13,5.81,-18.84,19.77,2.39,13.72,-1.93,11.7,-51.77,84.05,5.28,21.12,-9.5,3.73,-58.39,90.3,15.53,-13.5,-14.0,0.1661,0.3704,-0.3196,0.4181,0.9986,-0.9435,0.2507,-0.5003,0.6437,-0.1117,1.0,-0.6464,0.1303,-0.4534,0.4918,0.4437,0.3735,-0.0374,0.019,0.026,0.006,0.026,0.019,0.013,0.006,0.019,0.026,0.019,0.013,0.006,0.013,0.006,0.006,0.006,0.033,0.019
4.36,0.14,2.18,-1.43,-0.93,-0.49,0.0,0.0,0.0,0.104,5.98,-19.6,11.95,0.88,9.23,-8.09,16.44,-52.91,82.97,7.29,14.06,-18.37,9.76,-65.39,84.38,24.7,-8.35,-13.27,5.33,-17.34,21.27,3.89,15.22,-3.43,10.8,-53.27,85.55,3.78,22.62,-8.0,5.23,-56.89,91.8,17.03,-12.0,-12.5,0.1524,0.4218,-0.4387,0.4848,0.9854,-1.0,0.3086,-0.5838,0.6664,-0.3021,1.0,-0.7193,0.1746,-0.4383,0.4939,0.5357,0.5246,0.2129,0.006,0.013,0.013,0.026,0.006,0.006,0.0,0.013,0.013,0.006,0.006,0.013,0.013,0.013,0.006,0.006,0.033,0.006
4.4,0.19,2.19,1.37,0.85,-0.55,0.0,0.0,0.0,0.104,6.06,-20.48,12.74,0.26,9.05,-6.68,16.61,-53.0,82.18,7.73,14.5,-17.31,8.35,-64.69,84.46,23.2,-9.67,-14.24,4.55,-15.84,22.77,5.39,16.72,-4.93,9.3,-54.77,87.05,2.28,24.12,-9.5,6.62,-55.39,93.3,18.53,-10.5,-11.0,0.1299,0.4579,-0.4491,0.547,1.0,-1.0,0.2619,-0.6,0.6454,-0.3135,1.0,-0.8843,0.1891,-0.5215,0.4312,0.5948,0.5821,0.2576,0.006,0.013,0.013,0.026,0.006,0.006,0.0,0.013,0.013,0.006,0.006,0.013,0.013,0.013,0.006,0.006,0.033,0.006
4.44,0.17,2.17,-0.88,-1.03,2.74,0.0,0.0,0.0,0.104,5.36,-21.09,13.8,-0.88,9.05,-5.36,16.52,-53.0,81.65,8.09,15.47,-15.82,7.12,-63.54,84.99,21.8,-10.72,-14.85,5.02,-14.34,21.27,6.89,18.22,-6.43,10.8,-56.27,88.55,0.78,25.62,-11.0,8.12,-53.89,94.8,20.03,-9.0,-9.5,0.1434,0.4146,-0.6097,0.574,0.9395,-1.0,0.327,-0.6889,0.6099,-0.4109,0.9643,-1.0,0.2834,-0.4755,0.3785,0.6909,0.7262,0.3224,0.006,0.013,0.013,0.026,0.006,0.006,0.0,0.013,0.013,0.006,0.006,0.013,0.013,0.013,0.006,0.006,0.033,0.006
4.48,0.11,2.17,-1.11,-0.59,-1.5,0.0,0.0,0.0,0.104,4.57,-21.27,15.03,-0.18,9.67,-4.48,16.17,-53.61,81.56,8.0,16.61,-14.41,6.24,-62.31,85.96,20.48,-11.51,-15.21,5.52,-12.84,19.77,8.39,19.72,-7.93,10.06,-57.77,90.05,-0.72,24.12,-12.5,9.62,-55.39,93.3,21.53,-7.5,-8.0,0.1578,0.424,-0.7282,0.5135,0.9573,-1.0,0.2875,-0.6557,0.5557,-0.3795,0.8236,-1.0,0.2987,-0.5876,0.2959,0.8067,0.6484,0.066,0.006,0.0,0.006,0.006,0.006,0.0,0.013,0.033,0.0,0.013,0.013,0.006,0.006,0.019,0.006,0.006,0.013,0.0
4.52,0.22,2.19,1.85,0.74,-0.37,0.0,0.0,0.0,0.104,4.83,-21.18,16.44,0.44,10.63,-3.87,14.85,-54.4,81.56,7.38,18.02,-13.18,5.62,-61.0,87.01,19.6,-12.04,-15.21,4.45,-11.34,18.27,9.89,21.22,-9.43,8.56,-59.27,91.55,-2.22,22.62,-14.0,11.12,-56.89,91.8,23.03,-6.0,-6.5,0.1271,0.3805,-0.7747,0.4447,0.8549,-1.0,0.2284,-0.6581,0.4766,-0.3214,0.7172,-1.0,0.3539,-0.6088,0.2641,0.8702,0.661,-0.0768,0.006,0.0,0.006,0.006,0.006,0.0,0.013,0.033,0.0,0.013,0.013,0.006,0.006,0.019,0.006,0.006,0.013,0.0
4.56,0.11,2.16,-1.24,-0.34,0.75,0.0,0.0,0.0,0.104,4.57,-20.74,17.58,0.62,11.87,-3.69,13.62,-55.46,82.0,6.42,19.34,-12.13,5.27,-59.68,88.42,18.98,-12.22,-14.77,2.96,-9.84,16.77,11.39,19.72,-10.93,7.42,-58.58,93.05,-3.72,21.12,-15.5,12.62,-56.74,90.3,24.53,-4.5,-5.0,0.0846,0.278,-0.9451,0.3671,0.6609,-1.0,0.2119,-0.6105,0.3997,-0.2806,0.5727,-1.0,0.4179,-0.577,0.2469,0.9075,0.6597,-0.3003,0.006,0.0,0.006,0.006,0.006,0.0,0.013,0.033,0.0,0.013,0.013,0.006,0.006,0.019,0.006,0.006,0.013,0.0
4.6,0.15,2.25,1.56,1.28,-0.91,0.0,0.0,0.0,0.104,4.48,-19.86,18.54,1.85,13.27,-3.78,12.3,-56.69,82.71,5.27,20.57,-11.51,5.27,-58.62,89.74,18.63,-12.13,-13.89,1.82,-11.34,15.27,9.89,18.22,-12.43,6.07,-57.08,91.99,-5.22,19.62,-17.0,13.51,-58.24,88.8,26.03,-3.0,-3.5,0.0519,0.2429,-1.0,0.2037,0.6439,-1.0,0.1735,-0.4518,0.3175,-0.1586,0.5025,-1.0,0.386,-0.7046,0.202,0.9217,0.4817,-0.6452,0.019,0.006,0.0,0.0,0.006,0.013,0.013,0.013,0.026,0.013,0.006,0.006,0.019,0.019,0.006,0.006,0.006,0.013
4.64,0.12,2.2,-0.71,-0.35,-2.55,0.0,0.0,0.0,0.104,3.96,-18.72,19.07,3.87,14.68,-4.22,10.9,-57.57,84.2,3.78,21.36,-11.07,5.89,-57.83,90.7,18.63,-11.6,-12.83,1.28,-12.84,13.77,8.39,16.72,-13.93,7.02,-55.58,90.49,-3.72,18.12,-18.5,15.01,-59.74,87.3,27.53,-1.5,-3.0,0.0367,0.1282,-1.0,0.1007,0.4952,-1.0,0.2005,-0.4675,0.2362,-0.0999,0.4167,-1.0,0.4394,-0.657,0.1438,0.947,0.4744,-0.8,0.019,0.006,0.0,0.0,0.006,0.013,0.013,0.013,0.026,0.013,0.006,0.006,0.019,0.019,0.006,0.006,0.006,0.013
4.68,0.07,2.16,-0.43,0.04,3.22,0.0,0.0,0.0,0.104,2.37,-17.31,19.42,4.22,15.82,-5.27,9.49,-58.01,85.52,2.37,22.06,-11.07,6.77,-57.3,91.32,19.16,-10.72,-11.43,-0.22,-14.34,12.27,6.89,15.22,-15.43,8.52,-54.08,88.99,-2.22,16.62,-20.0,13.88,-61.24,85.8,29.03,-3.0,-4.5,-0.0702,0.0051,-1.0,-0.0938,0.4307,-1.0,0.2548,-0.382,0.0958,-0.0283,0.4283,-1.0,0.3967,-0.7363,0.1401,0.8788,0.2954,-1.0,0.019,0.006,0.0,0.0,0.006,0.013,0.013,0.013,0.026,0.013,0.006,0.006,0.019,0.019,0.006,0.006,0.006,0.013
4.72,0.21,2.22,1.28,0.74,-2.19,0.0,0.0,0.0,0.104,2.29,-16.08,19.42,5.8,16.79,-6.33,8.35,-58.27,86.92,0.97,22.41,-11.69,7.82,-57.13,91.58,20.13,-9.4,-10.02,-0.29,-15.84,10.77,5.39,13.72,-13.93,10.02,-52.58,87.49,-0.72,15.12,-20.0,12.55,-62.74,84.3,30.53,-4.5,-6.0,-0.0082,-0.1253,-1.0,-0.1977,0.4113,-0.8936,0.3639,-0.3851,0.0336,0.1347,0.4075,-1.0,0.3587,-0.7699,0.0255,0.8842,0.1508,-1.0,0.039,0.006,0.013,0.0,0.0,0.019,0.006,0.006,0.013,0.013,0.006,0.013,0.013,0.006,0.006,0.019,0.006,0.0
4.76,0.08,2.17,-2.26,-0.62,-0.91,0.0,0.0,0.0,0.104,0.44,-14.94,19.07,7.03,17.49,-7.65,7.47,-58.01,87.98,-0.18,22.32,-12.57,9.32,-57.39,91.67,21.27,-8.09,-8.79,-1.22,-17.34,9.27,3.89,12.22,-12.43,11.52,-51.49,85.99,0.78,13.62,-20.0,13.52,-63.03,82.8,30.95,-6.0,-7.5,-0.035,-0.2159,-1.0,-0.318,0.2878,-0.8103,0.4713,-0.4817,-0.0733,0.1037,0.4499,-1.0,0.3863,-0.6914,-0.0353,0.8842,0.0569,-1.0,0.039,0.006,0.013,0.0,0.0,0.019,0.006,0.006,0.013,0.013,0.006,0.013,0.013,0.006,0.006,0.019,0.006,0.0
4.8,0.14,2.24,2.02,0.63,4.4,0.0,0.0,0.0,0.104,-0.09,-14.24,18.11,7.38,17.84,-9.14,6.94,-57.48,88.77,-1.23,21.97,-13.54,10.63,-58.01,90.88,22.59,-6.86,-7.73,-1.71,-18.84,7.77,2.39,10.72,-10.93,13.02,-49.99,84.49,2.28,12.12,-20.0,12.02,-64.53,81.3,29.45,-7.5,-9.0,-0.0489,-0.2453,-0.9917,-0.3565,0.3824,-0.6991,0.5344,-0.4469,-0.1196,0.2137,0.5428,-1.0,0.2754,-0.7716,0.0357,0.7743,-0.1129,-1.0,0.039,0.006,0.013,0.0,0.0,0.019,0.006,0.006,0.013,0.013,0.006,0.013,0.013,0.006,0.006,0.019,0.006,0.0
4.84,0.16,2.22,-0.65,-0.53,-6.26,0.0,0.0,0.0,0.104,-0.62,-13.62,17.05,7.91,17.93,-10.37,6.68,-56.69,89.21,-1.85,21.01,-14.94,11.78,-58.8,90.09,24.08,-5.89,-6.86,-0.21,-20.34,6.27,0.89,9.22,-9.43,14.52,-51.49,82.99,3.78,10.62,-20.0,11.17,-63.03,79.8,27.95,-9.0,-10.5,0.0643,-0.2508,-0.9128,-0.2897,0.3317,-0.6839,0.5654,-0.5178,-0.1091,0.2805,0.5588,-1.0,0.3191,-0.6068,-0.0028,0.7784,-0.1092,-1.0,0.0,0.006,0.013,0.0,0.013,0.006,0.0,0.006,0.006,0.006,0.019,0.013,0.006,0.019,0.019,0.006,0.006,0.0
4.88,0.11,2.17,-0.66,-0.8,5.4,0.0,0.0,0.0,0.104,-1.85,-13.54,15.64,7.91,17.75,-11.34,6.68,-55.2,89.38,-2.11,19.95,-16.44,12.57,-59.94,88.95,25.31,-5.19,-6.33,0.85,-21.84,4.77,-0.61,7.72,-7.93,16.02,-52.99,81.49,5.28,12.12,-18.5,9.67,-61.53,80.4,26.45,-10.5,-12.0,0.0241,-0.1882,-0.7355,-0.3224,0.3948,-0.5824,0.5794,-0.5133,-0.0823,0.2337,0.759,-0.7634,0.2248,-0.6148,0.1812,0.6615,-0.1522,-1.0,0.0,0.006,0.013,0.0,0.013,0.006,0.0,0.006,0.006,0.006,0.019,0.013,0.006,0.019,0.019,0.006,0.006,0.0
4.92,0.24,2.23,1.73,1.33,-3.38,0.0,0.0,0.0,0.104,-1.23,-13.62,14.24,7.73,16.96,-11.95,6.68,-53.88,89.38,-2.11,18.54,-17.67,13.18,-61.0,87.63,26.37,-4.75,-6.24,2.35,-23.34,6.27,-2.11,6.22,-6.43,17.52,-51.49,79.99,6.78,13.62,-17.0,8.17,-60.03,81.9,24.95,-12.0,-13.5,0.1472,-0.1289,-0.6319,-0.0998,0.4729,-0.5961,0.5709,-0.4779,0.0093,0.353,0.7721,-0.7575,0.1751,-0.592,0.2381,0.5727,-0.1548,-1.0,0.0,0.006,0.013,0.0,0.013,0.006,0.0,0.006,0.006,0.006,0.019,0.013,0.006,0.019,0.019,0.006,0.006,0.0
4.96,0.18,2.23,-1.27,-0.55,0.29,0.0,0.0,0.0,0.104,-1.67,-14.24,12.83,7.29,15.91,-12.3,8.0,-52.82,89.03,-1.41,17.23,-18.72,13.36,-61.96,86.13,27.16,-4.75,-6.33,3.85,-24.84,7.77,-2.89,4.72,-4.93,19.02,-52.99,78.49,8.28,15.12,-15.5,7.71,-58.53,83.4,23.45,-13.5,-15.0,0.1713,-0.0158,-0.4903,-0.0825,0.496,-0.5943,0.5927,-0.5681,0.0629,0.2373,0.8757,-0.6056,0.2201,-0.4861,0.3442,0.5366,-0.0229,-1.0,0.058,0.019,0.019,0.026,0.019,0.0,0.006,0.006,0.026,0.0,0.019,0.0,0.006,0.013,0.013,0.006,0.019,0.013
5.0,0.19,2.31,1.62,0.83,0.7,0.0,0.0,0.0,0.104,-0.62,-15.21,11.51,5.62,14.59,-12.13,9.14,-51.86,88.33,-0.53,16.0,-19.42,13.27,-62.58,84.73,27.6,-5.01,-7.03,5.35,-23.34,9.27,-1.39,6.22,-3.43,17.52,-52.28,79.99,8.45,16.62,-14.0,6.21,-57.29,84.9,21.95,-15.0,-16.5,0.2004,0.08,-0.4009,0.0729,0.6654,-0.559,0.4986,-0.496,0.2054,0.2415,0.9333,-0.6196,0.0854,-0.5871,0.4827,0.4052,-0.0198,-1.0,0.058,0.019,0.019,0.026,0.019,0.0,0.006,0.006,0.026,0.0,0.019,0.0,0.006,0.013,0.013,0.006,0.019,0.013
5.04,0.25,2.3,0.73,0.58,-1.94,0.5,0.0,0.0,0.104,0.44,-16.35,10.2,4.48,13.27,-11.78,10.55,-51.77,86.92,0.53,15.12,-19.86,12.48,-62.93,83.85,27.69,-5.62,-8.0,6.85,-21.84,10.77,0.11,7.72,-1.93,17.77,-53.78,81.49,6.95,18.12,-12.5,4.71,-55.79,86.4,20.45,-16.47,-15.0,0.2783,0.1948,-0.3732,0.2114,0.7202,-0.6302,0.5077,-0.564,0.3304,0.1117,0.9716,-0.5918,0.1291,-0.5073,0.5135,0.4146,0.1552,-0.6607,0.058,0.019,0.019,0.026,0.019,0.0,0.006,0.006,0.026,0.0,0.019,0.0,0.006,0.013,0.013,0.006,0.019,0.013
5.08,0.16,2.23,-1.56,-1.05,1.77,1.0,0.0,0.0,0.104,0.97,-17.75,9.23,3.08,11.78,-10.72,11.95,-51.59,85.52,1.93,14.41,-19.86,11.6,-62.67,83.06,27.33,-6.59,-9.14,8.35,-20.34,12.27,1.61,9.22,-0.43,16.27,-54.41,82.99,5.45,19.62,-11.0,3.21,-54.29,87.9,18.95,-14.97,-13.5,0.2782,0.3625,-0.3349,0.3614,0.8343,-0.7114,0.4153,-0.5347,0.475,-0.0251,1.0,-0.6021,0.0736,-0.5068,0.6134,0.3677,0.2764,-0.3598,0.033,0.019,0.006,0.006,0.019,0.013,0.013,0.019,0.013,0.006,0.013,0.006,0.019,0.013,0.0,0.006,0.039,0.013
5.12,0.28,2.28,2.04,1.07,-1.71,1.5,0.0,0.0,0.104,3.43,-19.07,8.53,1.58,10.55,-9.58,13.27,-52.12,84.29,3.25,14.06,-19.6,10.37,-62.14,82.79,26.46,-7.91,-10.55,9.26,-18.84,13.77,3.11,10.72,-1.93,14.77,-53.25,84.49,3.95,21.12,-9.5,3.61,-55.77,89.4,17.45,-13.47,-12.0,0.2647,0.4682,-0.3377,0.5189,1.0,-0.8228,0.3633,-0.5137,0.5593,-0.1186,1.0,-0.634,0.1031,-0.5595,0.559,0.4014,0.3852,-0.0654,0.033,0.019,0.006,0.006,0.019,0.013,0.013,0.019,0.013,0.006,0.013,0.006,0.019,0.013,0.0,0.006,0.039,0.013
5.16,0.18,2.21,-1.88,-1.1,1.94,2.0,0.0,0.0,0.104,3.78,-19.95,8.09,1.14,9.58,-8.17,14.33,-52.65,83.23,4.22,14.06,-18.63,9.05,-61.26,82.79,25.49,-9.4,-11.69,8.88,-17.34,15.27,4.61,12.22,-3.43,13.27,-54.75,85.99,2.45,22.62,-8.0,5.11,-54.27,90.9,16.56,-11.97,-10.5,0.2538,0.4665,-0.4166,0.633,0.9511,-0.9877,0.3559,-0.61,0.6446,-0.3045,1.0,-0.7385,0.1625,-0.4575,0.5039,0.473,0.6193,0.2576,0.033,0.019,0.006,0.006,0.019,0.013,0.013,0.019,0.013,0.006,0.013,0.006,0.019,0.013,0.0,0.006,0.039,0.013
5.2,0.24,2.27,1.86,2.1,-3.21,2.5,0.0,0.0,0.104,5.8,-20.83,8.0,0.79,8.79,-6.77,15.21,-53.26,82.44,4.92,14.41,-17.67,7.56,-60.21,83.14,24.08,-10.63,-12.48,7.38,-15.84,16.77,6.11,13.72,-4.93,11.77,-54.87,87.49,0.95,24.12,-7.76,6.52,-55.77,92.4,17.89,-10.47,-9.0,0.1944,0.506,-0.4461,0.6288,1.0,-1.0,0.2822,-0.5431,0.6522,-0.3475,1.0,-0.856,0.1862,-0.5597,0.415,0.511,0.6317,0.2553,0.019,0.006,0.006,0.0,0.006,0.006,0.0,0.019,0.006,0.006,0.006,0.013,0.0,0.026,0.006,0.013,0.019,0.006
5.24,0.27,2.22,-0.92,-0.71,0.45,3.0,0.0,0.0,0.104,7.03,-21.18,8.26,-0.18,8.35,-5.45,15.73,-53.88,82.0,5.27,15.29,-16.35,6.59,-58.89,84.2,22.76,-11.6,-13.1,6.3,-14.34,17.83,7.61,15.22,-6.43,10.86,-56.37,88.99,-0.55,25.62,-9.26,8.02,-54.27,93.9,19.39,-8.97,-7.5,0.1799,0.4891,-0.5549,0.636,1.0,-1.0,0.3102,-0.6143,0.6567,-0.4686,1.0,-1.0,0.25,-0.512,0.3894,0.5891,0.7624,0.349,0.019,0.006,0.006,0.0,0.006,0.006,0.0,0.019,0.006,0.006,0.006,0.013,0.0,0.026,0.006,0.013,0.019,0.006
5.28,0.24,2.22,-0.05,-0.41,4.68,3.5,0.0,0.0,0.104,7.38,-21.18,9.14,0.35,8.35,-4.57,15.91,-54.49,81.91,5.45,16.35,-14.94,5.8,-57.66,85.25,21.36,-12.3,-13.27,4.8,-12.84,16.33,9.11,16.72,-7.93,9.36,-55.28,90.49,-2.05,27.12,-10.76,9.5,-55.77,92.4,20.89,-7.47,-6.0,0.1365,0.4689,-0.6607,0.5914,1.0,-1.0,0.2641,-0.5505,0.6143,-0.4677,0.984,-1.0,0.2714,-0.6032,0.3185,0.6889,0.7023,0.1592,0.019,0.006,0.006,0.0,0.006,0.006,0.0,0.019,0.006,0.006,0.006,0.013,0.0,0.026,0.006,0.013,0.019,0.006
5.32,0.29,2.29,1.63,1.28,-5.08,4.0,0.0,0.0,0.104,8.88,-21.09,10.2,0.97,8.35,-3.87,15.82,-55.11,82.0,4.92,17.67,-13.54,5.36,-56.51,86.66,20.3,-12.74,-13.01,4.02,-11.34,14.83,10.61,18.22,-9.43,7.86,-54.28,91.99,-3.55,25.62,-12.26,11.0,-57.27,90.9,22.39,-5.97,-4.5,0.115,0.4307,-0.7701,0.5547,1.0,-1.0,0.2195,-0.5323,0.5617,-0.4065,0.8064,-1.0,0.3525,-0.5985,0.2873,0.7629,0.7114,0.0023,0.013,0.0,0.013,0.019,0.013,0.0,0.019,0.019,0.013,0.006,0.0,0.0,0.006,0.026,0.006,0.006,0.006,0.006
5.36,0.24,2.24,-1.01,-0.78,2.79,4.5,0.0,0.0,0.104,8.53,-20.39,11.43,1.93,9.05,-3.69,15.47,-55.37,82.35,3.96,19.07,-12.39,5.19,-55.63,88.07,19.51,-12.83,-12.57,2.52,-9.84,13.33,12.11,19.72,-10.93,6.71,-54.32,93.49,-5.05,24.12,-13.76,12.5,-58.63,92.4,23.89,-4.47,-3.0,0.0478,0.4097,-0.817,0.4104,0.9692,-1.0,0.1918,-0.5331,0.5166,-0.3931,0.7221,-1.0,0.3998,-0.6114,0.3345,0.7863,0.6724,-0.1995,0.013,0.0,0.013,0.019,0.013,0.0,0.019,0.019,0.013,0.006,0.0,0.0,0.006,0.026,0.006,0.006,0.006,0.006
5.4,0.29,2.27,1.12,0.82,-1.21,5.0,0.0,0.0,0.104,8.61,-19.42,12.66,3.08,10.2,-3.6,14.33,-55.2,83.32,2.99,20.57,-11.6,5.45,-55.02,89.3,19.07,-12.57,-11.6,1.02,-8.34,11.83,11.78,21.22,-12.43,5.44,-52.82,94.99,-6.55,22.62,-15.26,14.0,-60.13,93.02,25.39,-2.97,-1.5,-0.017,0.3526,-0.9184,0.3366,0.9201,-1.0,0.1554,-0.4435,0.4134,-0.2243,0.6121,-1.0,0.4273,-0.6677,0.3297,0.7963,0.5713,-0.4739,0.013,0.0,0.013,0.019,0.013,0.0,0.019,0.019,0.013,0.006,0.0,0.0,0.006,0.026,0.006,0.006,0.006,0.006
5.44,0.27,2.27,-0.34,-0.06,-0.46,5.5,0.0,0.0,0.104,8.09,-18.11,13.62,4.48,11.43,-4.13,13.01,-54.76,84.81,1.58,21.8,-10.99,6.24,-54.76,90.7,18.98,-12.04,-10.46,-0.48,-9.48,10.33,10.28,19.72,-13.93,6.94,-51.32,93.49,-6.06,21.12,-16.76,15.5,-59.49,94.52,26.89,-1.47,-0.0,-0.0208,0.2821,-1.0,0.2001,0.737,-1.0,0.2253,-0.4594,0.2938,-0.1732,0.5129,-1.0,0.4751,-0.627,0.348,0.826,0.509,-0.7194,0.0,0.006,0.0,0.013,0.0,0.013,0.019,0.013,0.026,0.019,0.006,0.006,0.006,0.006,0.013,0.013,0.013,0.019
5.48,0.29,2.23,-0.21,-0.53,2.82,6.0,0.0,0.0,0.104,6.86,-16.7,14.15,5.89,12.83,-5.19,11.69,-54.05,86.22,0.18,22.68,-10.9,7.21,-55.02,91.93,19.07,-11.07,-9.14,-1.98,-10.98,8.83,8.78,18.22,-15.43,8.44,-49.82,91.99,-4.56,19.62,-18.26,14.77,-60.99,96.02,27.99,-2.97,-1.5,-0.0661,0.2152,-1.0,0.0618,0.6671,-1.0,0.2853,-0.3808,0.1557,-0.0221,0.4616,-1.0,0.4219,-0.6843,0.3793,0.7999,0.3605,-1.0,0.0,0.006,0.0,0.013,0.0,0.013,0.019,0.013,0.026,0.019,0.006,0.006,0.006,0.006,0.013,0.013,0.013,0.019
5.52,0.35,2.25,1.09,0.83,-3.16,6.5,0.0,0.0,0.104,6.59,-15.38,14.5,7.21,14.24,-6.24,10.28,-52.65,87.63,-1.23,23.47,-10.99,8.35,-55.37,93.16,20.04,-9.67,-7.73,-0.5,-12.48,7.33,7.28,16.72,-16.93,9.94,-48.32,90.49,-3.06,18.12,-19.76,13.33,-60.32,94.52,28.68,-4.47,-3.0,-0.0144,0.1115,-1.0,-0.0246,0.567,-0.994,0.3873,-0.386,0.0814,0.1041,0.4586,-1.0,0.3808,-0.6421,0.3309,0.8194,0.2586,-1.0,0.0,0.006,0.0,0.013,0.0,0.013,0.019,0.013,0.026,0.019,0.006,0.006,0.006,0.006,0.013,0.013,0.013,0.019
5.56,0.26,2.26,-1.43,-0.87,1.82,7.0,0.0,0.0,0.104,4.22,-14.06,14.59,8.35,15.47,-7.65,9.23,-51.06,88.95,-2.46,23.82,-11.87,9.84,-56.07,94.31,21.09,-8.35,-6.33,0.46,-13.98,5.83,5.78,15.22,-15.43,11.44,-47.18,88.99,-1.56,16.62,-20.0,12.36,-58.82,96.02,28.1,-5.97,-4.5,0.013,0.0993,-1.0,-0.123,0.4608,-0.9224,0.5143,-0.4033,-0.0245,0.1203,0.4751,-1.0,0.3533,-0.6026,0.3714,0.8029,0.1351,-1.0,0.006,0.006,0.013,0.006,0.006,0.013,0.013,0.0,0.019,0.006,0.0,0.013,0.013,0.019,0.006,0.006,0.013,0.006
5.6,0.3,2.31,1.73,1.28,0.12,7.5,0.0,0.0,0.104,3.16,-13.01,14.06,9.14,16.52,-9.05,8.26,-49.92,90.0,-3.52,23.82,-12.74,11.07,-57.13,95.19,22.32,-7.03,-5.1,1.96,-15.48,4.33,4.28,13.72,-13.93,12.94,-46.36,87.49,-0.06,15.12,-20.0,10.86,-58.58,97.52,27.0,-7.47,-6.0,0.0685,0.0916,-1.0,-0.1204,0.485,-0.8294,0.5865,-0.3884,-0.0868,0.2681,0.5572,-1.0,0.2878,-0.6105,0.4118,0.7714,0.0352,-1.0,0.006,0.006,0.013,0.006,0.006,0.013,0.013,0.0,0.019,0.006,0.0,0.013,0.013,0.019,0.006,0.006,0.013,0.006
5.64,0.28,2.29,-0.59,-0.42,-2.64,8.0,0.0,0.0,0.104,2.29,-12.13,13.18,9.67,17.31,-10.46,7.65,-48.78,90.79,-4.13,23.73,-13.97,12.04,-57.83,95.89,23.82,-6.06,-4.22,3.46,-16.98,2.83,2.78,12.22,-12.43,14.44,-47.86,85.99,1.44,13.62,-20.0,9.36,-57.08,99.02,26.37,-8.97,-7.5,0.1772,0.1106,-1.0,-0.0682,0.3959,-0.8176,0.64,-0.4244,-0.0705,0.2849,0.6192,-1.0,0.2601,-0.4569,0.4358,0.7534,0.0489,-1.0,0.006,0.006,0.013,0.006,0.006,0.013,0.013,0.0,0.019,0.006,0.0,0.013,0.013,0.019,0.006,0.006,0.013,0.006
5.68,0.22,2.23,-1.05,-0.85,3.32,8.5,0.0,0.0,0.104,0.88,-11.6,12.13,9.84,17.75,-11.78,7.47,-47.55,91.32,-4.48,22.76,-15.47,12.74,-58.36,96.94,24.96,-5.27,-3.6,4.96,-15.48,1.33,1.28,10.72,-10.93,15.94,-46.36,84.49,2.94,15.12,-20.0,7.86,-55.58,100.52,24.87,-10.47,-9.0,0.1896,0.2008,-0.9806,-0.0521,0.4684,-0.7395,0.6121,-0.3173,-0.0348,0.2854,0.7396,-1.0,0.1859,-0.4717,0.5479,0.6561,0.0184,-1.0,0.006,0.006,0.013,0.0,0.0,0.006,0.0,0.013,0.0,0.006,0.026,0.013,0.006,0.013,0.013,0.019,0.0,0.006
5.72,0.3,2.28,1.15,0.84,-2.15,9.0,0.0,0.0,0.104,1.23,-11.51,10.81,9.84,17.84,-12.74,7.47,-47.2,91.49,-4.57,21.8,-16.88,13.1,-58.54,98.17,25.84,-4.83,-3.25,6.46,-13.98,-0.17,2.4,9.22,-9.43,17.44,-44.86,82.99,4.44,16.62,-18.5,6.36,-54.08,102.02,23.37,-11.97,-10.5,0.3046,0.2902,-0.8926,0.0686,0.5546,-0.7239,0.601,-0.2754,0.0558,0.326,0.9023,-0.8264,0.1701,-0.432,0.563,0.6352,0.0574,-1.0,0.006,0.006,0.013,0.0,0.0,0.006,0.0,0.013,0.0,0.006,0.026,0.013,0.006,0.013,0.013,0.019,0.0,0.006
5.76,0.22,2.24,-1.55,-0.96,1.67,9.5,0.0,0.0,0.104,0.18,-11.51,9.4,9.76,17.84,-13.45,7.47,-46.14,91.41,-3.87,20.48,-18.11,13.18,-58.27,99.32,26.46,-4.75,-3.34,7.96,-12.48,-1.67,3.9,7.72,-7.93,18.94,-43.36,81.49,5.94,18.12,-17.0,4.86,-52.58,103.52,21.87,-13.47,-12.0,0.3673,0.4141,-0.7937,0.1806,0.5828,-0.7609,0.5749,-0.2424,0.1932,0.2276,1.0,-0.7105,0.1055,-0.3683,0.6277,0.5733,0.1776,-1.0,0.006,0.006,0.013,0.0,0.0,0.006,0.0,0.013,0.0,0.006,0.026,0.013,0.006,0.013,0.013,0.019,0.0,0.006
5.8,0.27,2.33,1.86,1.26,1.4,10.0,0.0,0.0,0.104,0.7,-11.95,8.0,8.35,17.23,-13.8,8.79,-45.44,91.14,-2.81,19.25,-18.98,12.66,-57.74,100.63,26.72,-4.92,-3.78,9.46,-10.98,-0.17,5.4,9.22,-6.43,18.08,-41.86,82.99,7.05,19.62,-15.5,3.36,-51.08,105.02,20.37,-12.41,-10.5,0.4233,0.536,-0.7392,0.291,0.7297,-0.7439,0.5166,-0.1875,0.3055,0.2014,1.0,-0.5903,0.061,-0.4414,0.63,0.5419,0.2289,-0.7937,0.0,0.006,0.013,0.0,0.026,0.0,0.013,0.026,0.026,0.006,0.013,0.013,0.0,0.013,0.013,0.006,0.026,0.013
5.84,0.26,2.28,-0.01,0.04,-2.64,10.5,0.0,0.0,0.104,1.76,-12.22,6.5,6.94,16.26,-13.8,9.93,-44.38,90.35,-2.2,18.19,-19.6,11.78,-56.95,102.04,26.72,-5.54,-4.75,10.96,-9.48,-0.03,6.9,10.72,-4.93,16.66,-40.36,84.49,5.55,21.12,-14.0,3.34,-49.58,106.52,21.34,-10.91,-9.0,0.5388,0.6248,-0.7651,0.4462,0.7252,-0.7756,0.476,-0.2778,0.4088,0.1217,1.0,-0.4987,0.0954,-0.3695,0.5704,0.6096,0.368,-0.5298,0.0,0.006,0.013,0.0,0.026,0.0,0.013,0.026,0.026,0.006,0.013,0.013,0.0,0.013,0.013,0.006,0.026,0.013
5.88,0.25,2.22,-0.86,-0.96,0.74,11.0,0.0,0.0,0.104,1.93,-12.13,5.1,6.77,15.03,-13.45,11.25,-42.89,88.95,-0.53,17.58,-19.86,10.81,-55.81,103.36,26.1,-6.42,-5.8,12.46,-7.98,1.47,8.4,12.22,-3.43,15.16,-40.57,85.99,4.05,22.62,-12.5,1.96,-48.08,108.02,21.37,-9.41,-7.5,0.5068,0.6969,-0.7297,0.5094,0.822,-0.7137,0.4237,-0.2831,0.4598,0.0324,1.0,-0.4203,0.0559,-0.4167,0.5805,0.6106,0.401,-0.3399,0.0,0.006,0.013,0.0,0.026,0.0,0.013,0.026,0.026,0.006,0.013,0.013,0.0,0.013,0.013,0.006,0.026,0.013
5.92,0.31,2.23,0.57,0.33,-0.49,11.5,0.0,0.0,0.104,4.04,-11.95,3.78,5.71,13.71,-12.57,12.66,-42.19,87.54,0.79,17.05,-19.86,9.32,-54.58,104.77,25.14,-7.56,-6.94,13.96,-6.48,2.97,9.9,13.72,-1.93,13.66,-42.07,87.49,2.55,24.12,-11.0,3.46,-49.58,106.52,22.87,-7.91,-6.0,0.551,0.6962,-0.7025,0.6367,0.9188,-0.7483,0.3719,-0.3485,0.4996,0.0067,1.0,-0.4972,0.1086,-0.4655,0.4865,0.6612,0.5087,-0.1976,0.0,0.013,0.013,0.006,0.019,0.006,0.013,0.006,0.013,0.013,0.0,0.006,0.019,0.039,0.006,0.013,0.026,0.006
5.96,0.35,2.21,-0.82,-0.84,1.72,12.0,0.0,0.0,0.104,4.57,-10.9,2.72,5.19,12.74,-11.43,13.71,-40.96,86.57,2.02,17.05,-19.42,7.91,-53.17,106.08,24.08,-8.44,-7.73,15.46,-4.98,2.47,11.4,15.22,-2.34,12.56,-43.57,88.99,1.05,25.62,-9.5,4.87,-48.91,105.02,24.36,-6.41,-4.5,0.5385,0.6832,-0.7357,0.6869,0.9282,-0.7923,0.3587,-0.4104,0.5695,-0.151,1.0,-0.5536,0.1392,-0.4347,0.439,0.6961,0.62,-0.0629,0.0,0.013,0.013,0.006,0.019,0.006,0.013,0.006,0.013,0.013,0.0,0.006,0.019,0.039,0.006,0.013,0.026,0.006
6.0,0.34,2.24,0.5,0.81,-0.52,12.5,0.0,0.0,0.104,6.42,-9.76,1.93,5.54,11.87,-10.11,14.5,-40.78,85.69,2.99,17.23,-18.28,6.59,-51.77,107.05,23.38,-9.14,-8.44,16.96,-3.48,0.97,12.9,16.72,-3.84,11.32,-45.07,90.49,-0.45,27.12,-8.0,6.37,-50.41,103.52,25.86,-4.91,-3.0,0.5237,0.6894,-0.771,0.6736,0.9708,-0.8534,0.3233,-0.4159,0.5443,-0.195,1.0,-0.6468,0.1933,-0.4935,0.3932,0.7558,0.6164,-0.1005,0.0,0.013,0.013,0.006,0.019,0.006,0.013,0.006,0.013,0.013,0.0,0.006,0.019,0.039,0.006,0.013,0.026,0.006
6.04,0.35,2.27,0.81,0.21,-2.25,13.0,0.0,0.0,0.104,8.0,-8.35,1.41,6.15,11.43,-8.61,15.03,-40.25,85.25,3.52,18.11,-17.23,5.54,-50.62,107.58,23.03,-9.49,-8.7,15.63,-1.98,-0.53,14.4,18.22,-5.34,10.32,-46.57,91.99,-1.95,28.62,-7.09,7.87,-51.91,102.02,26.22,-3.41,-1.5,0.4464,0.6767,-0.8273,0.6448,0.9683,-0.9339,0.295,-0.4168,0.5247,-0.2883,1.0,-0.8481,0.2529,-0.5092,0.4122,0.7491,0.6575,-0.0953,0.033,0.0,0.006,0.013,0.006,0.006,0.0,0.013,0.0,0.0,0.006,0.006,0.006,0.013,0.0,0.0,0.0,0.0
6.08,0.3,2.24,-0.79,-0.8,4.14,13.5,0.0,0.0,0.104,8.88,-6.94,0.97,7.03,11.25,-7.29,15.12,-40.69,85.08,3.87,19.16,-15.82,4.83,-49.75,107.93,22.85,-9.49,-8.7,14.13,-0.48,-2.03,15.9,19.72,-6.84,9.66,-45.93,93.49,-3.45,27.12,-8.59,9.37,-53.41,103.52,25.23,-1.91,-0.0,0.3461,0.6573,-0.9018,0.5314,0.9531,-1.0,0.2759,-0.3805,0.4491,-0.3696,0.9464,-0.9843,0.3435,-0.545,0.4911,0.7208,0.5998,-0.1821,0.033,0.0,0.006,0.013,0.006,0.006,0.0,0.013,0.0,0.0,0.006,0.006,0.006,0.013,0.0,0.0,0.0,0.0
6.12,0.33,2.27,0.96,0.41,-3.34,14.0,0.0,0.0,0.104,11.07,-5.62,0.35,8.26,11.34,-6.33,15.12,-41.22,85.17,3.87,20.39,-14.41,4.22,-49.22,107.93,23.38,-9.14,-8.17,12.63,1.02,-3.53,15.79,21.22,-8.34,8.16,-44.43,94.99,-4.95,25.62,-10.09,10.87,-54.91,105.02,24.95,-0.41,1.5,0.2285,0.6036,-0.9696,0.451,0.9587,-1.0,0.2182,-0.3021,0.3703,-0.3484,0.7981,-1.0,0.4391,-0.5973,0.5064,0.7128,0.541,-0.3322,0.033,0.0,0.006,0.013,0.006,0.006,0.0,0.013,0.0,0.0,0.006,0.006,0.006,0.013,0.0,0.0,0.0,0.0
6.16,0.23,2.24,-1.26,-1.06,1.59,14.5,0.0,0.0,0.104,11.69,-4.13,-0.53,9.67,11.95,-5.62,14.85,-42.01,85.52,3.16,21.8,-13.1,4.22,-49.13,107.14,24.17,-8.44,-7.29,11.13,2.52,-5.03,14.29,21.1,-9.84,6.66,-42.93,93.49,-6.45,24.12,-11.59,12.37,-56.41,106.52,23.45,1.09,3.0,0.121,0.5717,-0.9998,0.3149,0.8381,-1.0,0.1803,-0.2652,0.3065,-0.3928,0.7059,-1.0,0.4907,-0.5965,0.5649,0.6635,0.4765,-0.4746,0.026,0.013,0.013,0.013,0.006,0.0,0.019,0.019,0.026,0.0,0.0,0.0,0.013,0.006,0.006,0.006,0.013,0.013
6.2,0.28,2.27,1.16,0.88,-0.79,15.0,0.0,0.0,0.104,12.92,-2.72,-1.76,10.99,12.92,-5.19,13.54,-43.07,86.13,2.29,23.03,-11.78,4.39,-49.31,106.52,24.61,-7.29,-6.06,9.63,3.59,-6.53,12.79,20.46,-11.34,5.16,-41.43,91.99,-7.95,22.62,-13.09,13.87,-57.91,108.02,21.95,-0.41,4.5,-0.0115,0.5198,-1.0,0.213,0.8266,-1.0,0.1475,-0.1612,0.2063,-0.3163,0.6185,-1.0,0.5094,-0.642,0.6175,0.5846,0.3715,-0.6919,0.026,0.013,0.013,0.013,0.006,0.0,0.019,0.019,0.026,0.0,0.0,0.0,0.013,0.006,0.006,0.006,0.013,0.013
6.24,0.24,2.25,-0.51,-0.03,-1.68,15.5,0.0,0.0,0.104,13.71,-1.23,-2.9,12.13,14.15,-5.27,12.3,-43.77,87.71,1.23,23.99,-10.99,5.27,-50.01,106.44,24.7,-6.06,-4.83,8.13,2.09,-8.03,11.29,18.96,-12.84,5.7,-39.93,90.49,-9.45,21.12,-14.59,15.37,-57.02,109.52,20.45,-1.91,3.0,-0.0439,0.4775,-1.0,0.1287,0.6929,-1.0,0.163,-0.1341,0.155,-0.2873,0.5364,-1.0,0.5219,-0.5822,0.6308,0.5837,0.3192,-0.8379,0.026,0.013,0.013,0.013,0.006,0.0,0.019,0.019,0.026,0.0,0.0,0.0,0.013,0.006,0.006,0.006,0.013,0.013
6.28,0.22,2.24,-0.1,-0.05,2.05,16.0,0.0,0.0,0.104,13.54,0.09,-4.31,13.01,15.47,-5.62,10.9,-44.03,88.95,-0.18,24.17,-10.55,6.15,-50.89,106.61,24.52,-4.66,-3.43,6.63,0.59,-9.53,9.79,17.46,-14.34,7.2,-38.43,88.99,-7.95,19.62,-16.09,16.44,-57.33,111.02,20.58,-3.41,1.5,-0.1068,0.4428,-1.0,0.0391,0.6543,-0.9633,0.2298,-0.0712,0.063,-0.206,0.5485,-1.0,0.4696,-0.5878,0.6734,0.588,0.1969,-0.9959,0.0,0.0,0.013,0.013,0.006,0.013,0.013,0.0,0.019,0.013,0.006,0.006,0.019,0.039,0.006,0.006,0.0,0.013
6.32,0.24,2.26,0.33,0.19,-2.28,16.5,0.0,0.0,0.104,14.15,1.14,-5.62,13.62,16.7,-6.5,9.58,-43.95,90.0,-1.58,24.87,-10.37,7.47,-51.94,107.4,23.55,-3.6,-2.02,5.13,-0.91,-11.03,8.29,15.96,-12.84,8.7,-36.93,87.49,-6.45,18.12,-17.59,14.94,-55.83,112.52,22.08,-4.91,-0.0,-0.0433,0.4205,-1.0,0.0411,0.6039,-0.8962,0.2998,-0.0718,0.0463,-0.0733,0.5912,-1.0,0.4092,-0.5247,0.6741,0.6572,0.1328,-1.0,0.0,0.0,0.013,0.013,0.006,0.013,0.013,0.0,0.019,0.013,0.006,0.006,0.019,0.039,0.006,0.006,0.0,0.013
6.36,0.18,2.23,-1.03,-0.45,0.77,17.0,0.0,0.0,0.104,13.1,1.93,-7.03,13.89,17.58,-7.65,8.53,-43.51,90.79,-2.9,24.96,-10.72,8.96,-53.17,108.28,22.85,-2.81,-0.79,3.63,-0.33,-12.53,6.79,14.46,-11.34,10.2,-35.43,85.99,-4.95,16.62,-19.09,13.44,-54.33,114.02,23.58,-6.41,-1.5,-0.0151,0.4486,-0.9877,0.0624,0.5934,-0.8443,0.3972,-0.0759,0.0197,-0.0243,0.619,-1.0,0.3465,-0.4587,0.7051,0.7373,0.1107,-1.0,0.0,0.0,0.013,0.013,0.006,0.013,0.013,0.0,0.019,0.013,0.006,0.006,0.019,0.039,0.006,0.006,0.0,0.013
6.4,0.22,2.3,1.22,0.98,1.3,17.5,0.0,0.0,0.104,12.83,2.46,-8.44,13.89,18.37,-8.88,7.73,-42.63,91.32,-4.22,24.79,-11.25,10.28,-54.14,109.51,22.24,-2.2,0.18,2.13,0.46,-12.24,5.29,12.96,-9.84,11.7,-33.93,84.49,-3.45,15.12,-20.0,11.94,-52.83,115.52,25.08,-7.91,-3.0,0.0414,0.463,-0.9087,0.1382,0.6437,-0.7655,0.4487,-0.0877,0.0512,0.1161,0.7263,-1.0,0.2694,-0.4264,0.7345,0.7679,0.1084,-1.0,0.078,0.0,0.013,0.013,0.0,0.0,0.006,0.013,0.006,0.013,0.013,0.013,0.013,0.033,0.006,0.006,0.0,0.006
6.44,0.21,2.25,-0.91,-0.61,-1.88,18.0,0.0,0.0,0.104,11.69,2.64,-9.76,13.89,18.63,-10.02,7.12,-41.48,91.58,-5.19,24.79,-11.95,11.51,-55.02,110.92,22.15,-2.11,0.79,3.63,1.96,-10.74,6.79,11.46,-8.34,13.2,-32.43,82.99,-1.95,16.62,-20.0,10.44,-51.33,117.02,26.58,-9.41,-4.5,0.1352,0.5154,-0.8617,0.2392,0.6291,-0.767,0.5288,-0.1298,0.1034,0.1383,0.7895,-1.0,0.2399,-0.3176,0.7466,0.7964,0.1882,-1.0,0.078,0.0,0.013,0.013,0.0,0.0,0.006,0.013,0.006,0.013,0.013,0.013,0.013,0.033,0.006,0.006,0.0,0.006
6.48,0.21,2.22,0.36,0.28,3.07,18.5,0.0,0.0,0.104,9.76,2.64,-10.81,12.92,18.63,-10.72,7.03,-40.17,91.49,-5.89,23.55,-13.1,12.3,-55.55,112.41,22.15,-2.11,1.14,5.13,3.46,-9.24,8.29,12.96,-6.84,14.7,-31.59,81.49,-0.45,18.12,-18.5,8.94,-49.83,118.52,26.16,-10.91,-6.0,0.1471,0.5668,-0.7817,0.2823,0.7162,-0.7071,0.5498,-0.1198,0.1648,0.1683,0.8997,-0.8776,0.1683,-0.3303,0.7989,0.7474,0.2185,-0.9356,0.078,0.0,0.013,0.013,0.0,0.0,0.006,0.013,0.006,0.013,0.013,0.013,0.013,0.033,0.006,0.006,0.0,0.006
6.52,0.25,2.28,1.03,0.79,-1.42,19.0,0.0,0.0,0.104,9.14,2.37,-11.6,11.07,18.46,-11.25,7.03,-38.67,91.14,-6.33,22.06,-14.77,13.01,-55.63,113.82,23.03,-2.72,1.14,6.63,4.96,-7.74,9.79,14.46,-5.34,16.2,-33.09,82.99,1.05,19.62,-17.0,7.44,-48.33,120.02,26.47,-9.41,-4.5,0.2867,0.5936,-0.7727,0.435,0.7292,-0.7146,0.5707,-0.1812,0.2919,0.2172,1.0,-0.7052,0.1281,-0.2472,0.7472,0.7563,0.3065,-0.7814,0.013,0.0,0.006,0.0,0.026,0.006,0.019,0.006,0.026,0.006,0.019,0.006,0.0,0.006,0.006,0.006,0.026,0.006
6.56,0.19,2.23,-1.66,-0.93,0.66,19.5,0.0,0.0,0.104,7.03,2.37,-12.13,10.46,17.67,-11.07,7.38,-37.35,90.35,-6.24,20.92,-15.91,13.27,-55.46,115.22,23.91,-3.52,0.79,8.13,6.46,-6.24,11.29,14.51,-3.84,17.7,-34.59,84.49,2.55,21.12,-15.5,5.94,-46.83,121.52,24.97,-7.91,-3.0,0.3592,0.6567,-0.7691,0.5275,0.7183,-0.6935,0.5773,-0.2203,0.4063,0.1474,1.0,-0.4895,0.0565,-0.1694,0.7569,0.7025,0.3949,-0.5808,0.013,0.0,0.006,0.0,0.026,0.006,0.019,0.006,0.026,0.006,0.019,0.006,0.0,0.006,0.006,0.006,0.026,0.006
6.6,0.23,2.23,1.18,1.19,-1.07,20.0,0.0,0.0,0.104,6.59,2.72,-12.3,9.58,16.7,-10.9,8.7,-36.04,88.95,-5.98,19.78,-16.88,13.18,-54.84,116.72,24.96,-4.66,0.0,9.63,7.96,-4.74,12.79,16.01,-2.34,17.23,-36.09,85.99,4.05,22.62,-14.0,4.44,-45.33,123.02,23.47,-6.41,-1.5,0.3923,0.6973,-0.7383,0.6125,0.8002,-0.6953,0.4923,-0.222,0.4883,0.152,1.0,-0.4378,0.049,-0.1948,0.7065,0.655,0.4471,-0.482,0.013,0.0,0.006,0.0,0.026,0.006,0.019,0.006,0.026,0.006,0.019,0.006,0.0,0.006,0.006,0.006,0.026,0.006
6.64,0.21,2.19,-0.34,-0.26,-1.83,20.5,0.0,0.0,0.104,5.89,3.52,-12.13,8.44,15.82,-10.2,9.84,-34.89,87.54,-4.75,19.07,-17.58,12.48,-54.05,118.12,25.66,-5.71,-0.88,11.13,9.46,-3.24,14.29,17.51,-0.84,15.73,-37.59,87.49,2.55,24.12,-12.5,2.94,-43.83,124.52,21.97,-4.91,-0.0,0.4429,0.7009,-0.7929,0.6612,0.7826,-0.7358,0.4438,-0.2754,0.5919,0.0635,1.0,-0.3992,0.0676,-0.1363,0.7003,0.5896,0.5893,-0.2656,0.019,0.006,0.006,0.006,0.013,0.0,0.013,0.013,0.006,0.006,0.013,0.006,0.006,0.019,0.006,0.006,0.019,0.006
6.68,0.19,2.17,-0.91,-0.62,2.83,21.0,0.0,0.0,0.104,5.01,4.66,-11.51,8.44,15.29,-9.05,11.16,-34.19,86.48,-3.69,18.63,-18.02,11.69,-52.82,119.44,26.1,-6.5,-1.58,12.63,10.96,-4.74,15.79,19.01,0.66,14.23,-39.02,88.99,1.05,25.62,-11.0,3.53,-42.33,123.02,21.25,-3.41,1.5,0.4598,0.7231,-0.867,0.6534,0.8062,-0.7472,0.3751,-0.2549,0.6192,-0.0625,1.0,-0.3678,0.1009,-0.1642,0.6683,0.607,0.5837,-0.241,0.019,0.006,0.006,0.006,0.013,0.0,0.013,0.013,0.006,0.006,0.013,0.006,0.006,0.019,0.006,0.006,0.019,0.006
6.72,0.24,2.18,0.2,0.21,-1.15,21.5,0.0,0.0,0.104,5.8,5.98,-10.46,8.44,15.03,-7.73,12.66,-33.66,85.69,-2.72,18.54,-17.84,10.55,-51.42,120.85,26.19,-7.12,-2.02,14.13,12.46,-6.24,17.29,19.36,-0.84,12.73,-38.5,90.49,-0.45,27.12,-9.5,5.03,-40.83,121.52,22.04,-1.91,3.0,0.4377,0.7234,-0.9378,0.6533,0.8066,-0.8234,0.3131,-0.2455,0.612,-0.1343,1.0,-0.4792,0.1798,-0.1835,0.6563,0.6297,0.6179,-0.2494,0.019,0.006,0.006,0.006,0.013,0.0,0.013,0.013,0.006,0.006,0.013,0.006,0.006,0.019,0.006,0.006,0.019,0.006
6.76,0.21,2.19,-0.38,-0.42,-0.18,22.0,0.0,0.0,0.104,5.54,7.38,-9.23,8.88,15.12,-6.24,13.71,-33.57,85.17,-0.7,18.63,-17.67,9.14,-50.01,121.99,25.93,-7.29,-2.02,14.09,13.96,-7.74,18.79,17.86,-2.34,11.23,-37.0,91.99,-1.95,28.62,-8.0,6.53,-39.33,123.02,23.06,-0.41,4.5,0.4026,0.7344,-1.0,0.5539,0.7591,-0.884,0.2971,-0.2168,0.5681,-0.2727,1.0,-0.5621,0.2555,-0.2153,0.7145,0.6588,0.593,-0.2755,0.071,0.0,0.006,0.006,0.006,0.013,0.013,0.013,0.006,0.0,0.013,0.019,0.006,0.013,0.0,0.013,0.0,0.013
6.8,0.21,2.21,0.35,0.43,1.02,22.5,0.0,0.0,0.104,6.77,8.79,-8.17,9.84,15.47,-4.92,14.59,-33.93,85.08,-0.7,19.51,-16.61,7.82,-48.52,122.7,25.14,-7.29,-1.76,13.38,15.38,-9.24,17.29,16.36,-3.84,9.73,-35.5,93.49,-3.45,30.0,-6.5,8.03,-40.83,124.52,24.56,1.09,6.0,0.3823,0.7341,-1.0,0.4759,0.7373,-0.9237,0.2693,-0.1663,0.4873,-0.3499,1.0,-0.6801,0.3373,-0.2967,0.7506,0.7092,0.5256,-0.3823,0.071,0.0,0.006,0.006,0.006,0.013,0.013,0.013,0.006,0.0,0.013,0.019,0.006,0.013,0.0,0.013,0.0,0.013
6.84,0.31,2.2,0.89,0.47,-3.46,23.0,0.0,0.0,0.104,7.73,10.2,-7.38,11.07,16.26,-3.87,15.12,-34.63,85.17,0.62,20.48,-15.64,6.86,-47.11,123.31,24.17,-6.86,-0.97,11.88,14.91,-10.74,15.79,15.09,-5.34,9.4,-34.0,94.99,-4.95,28.5,-8.0,9.53,-42.33,126.02,25.69,2.59,7.5,0.2652,0.7256,-1.0,0.3996,0.7289,-0.9976,0.2687,-0.1041,0.4116,-0.3953,0.9043,-0.9556,0.4264,-0.3523,0.794,0.7341,0.5071,-0.4701,0.071,0.0,0.006,0.006,0.006,0.013,0.013,0.013,0.006,0.0,0.013,0.019,0.006,0.013,0.0,0.013,0.0,0.013
6.88,0.16,2.15,-1.34,-1.07,2.93,23.5,0.0,0.0,0.104,8.7,11.6,-6.77,12.39,16.79,-3.08,15.29,-35.16,85.52,1.05,21.8,-14.24,6.15,-45.7,124.19,23.64,-5.98,0.09,10.38,13.41,-12.24,14.29,13.59,-6.84,9.77,-32.5,93.49,-6.45,27.0,-9.5,11.03,-43.83,127.52,26.45,1.09,9.0,0.2091,0.6864,-1.0,0.2664,0.656,-1.0,0.2792,-0.0761,0.3068,-0.467,0.8148,-1.0,0.4746,-0.4285,0.8701,0.7556,0.4146,-0.5333,0.0,0.006,0.0,0.013,0.0,0.0,0.0,0.013,0.026,0.006,0.006,0.006,0.006,0.013,0.026,0.006,0.013,0.013
6.92,0.25,2.21,1.34,0.54,-1.35,24.0,0.0,0.0,0.104,10.55,12.74,-6.59,13.45,17.23,-2.55,15.29,-35.33,86.31,0.7,23.12,-12.83,5.8,-44.65,125.07,23.38,-4.75,1.32,8.88,11.91,-13.74,12.79,14.47,-8.34,9.99,-31.0,91.99,-7.95,25.5,-11.0,12.53,-45.33,129.02,27.02,-0.41,7.5,0.1381,0.6515,-1.0,0.2025,0.7177,-0.9914,0.2853,-0.0006,0.206,-0.4163,0.6587,-1.0,0.5412,-0.5752,0.8226,0.7721,0.3242,-0.7505,0.0,0.006,0.0,0.013,0.0,0.0,0.0,0.013,0.026,0.006,0.006,0.006,0.006,0.013,0.026,0.006,0.013,0.013
6.96,0.25,2.13,-0.63,-0.36,2.2,24.5,0.0,0.0,0.104,10.55,13.8,-6.59,14.41,17.23,-2.55,15.03,-35.07,87.63,0.62,24.43,-11.6,5.89,-43.86,126.12,23.55,-3.43,2.72,7.38,10.41,-15.24,11.29,12.97,-9.84,11.05,-29.5,90.49,-9.45,24.0,-12.5,14.03,-46.83,130.52,28.47,-1.91,6.0,0.1015,0.6312,-1.0,0.1156,0.6335,-0.9756,0.3158,-0.0328,0.1645,-0.3801,0.5621,-1.0,0.5683,-0.5924,0.8161,0.8134,0.2611,-0.8792,0.0,0.006,0.0,0.013,0.0,0.0,0.0,0.013,0.026,0.006,0.006,0.006,0.006,0.013,0.026,0.006,0.013,0.013
7.0,0.4,2.18,1.59,1.25,-2.8,25.0,0.0,0.0,0.104,11.95,14.68,-7.82,15.38,16.52,-3.43,13.1,-33.84,89.56,-1.14,25.66,-10.37,6.68,-43.07,128.06,24.87,-1.67,4.92,5.88,8.91,-16.74,9.79,13.11,-9.29,12.32,-28.0,88.99,-8.37,22.5,-14.0,15.53,-48.33,132.02,28.2,-3.41,4.5,0.0867,0.6093,-1.0,0.0487,0.693,-0.8739,0.3521,-0.0125,0.0601,-0.2391,0.4703,-1.0,0.5629,-0.7055,0.7983,0.8058,0.1542,-1.0,0.0,0.006,0.013,0.0,0.019,0.006,0.006,0.006,0.026,0.033,0.006,0.013,0.013,0.006,0.058,0.019,0.006,0.006
7.04,0.64,2.33,6.58,2.83,3.38,25.5,0.0,0.0,0.104,11.34,14.68,-9.14,15.38,15.38,-4.48,12.13,-32.52,90.44,-2.55,26.19,-9.93,7.73,-42.98,129.55,26.1,-0.79,5.98,4.38,8.62,-18.24,8.29,11.61,-7.79,13.82,-28.17,87.49,-6.87,21.0,-15.5,17.03,-49.83,132.42,28.97,-4.91,3.0,0.0913,0.6112,-1.0,0.0607,0.6347,-0.7866,0.4037,-0.0577,0.037,-0.1311,0.4962,-1.0,0.5353,-0.6435,0.7932,0.8278,0.1513,-1.0,0.0,0.006,0.013,0.0,0.019,0.006,0.006,0.006,0.026,0.033,0.006,0.013,0.013,0.006,0.058,0.019,0.006,0.006
7.08,1.1,2.55,12.08,6.22,0.56,26.0,0.0,0.0,0.104,11.16,14.5,-10.55,15.38,14.5,-5.8,11.69,-31.2,91.05,-3.96,26.28,-10.02,9.05,-43.51,130.61,27.07,-0.53,6.5,5.88,10.12,-19.74,6.79,10.11,-6.29,15.03,-29.67,85.99,-5.37,19.5,-17.0,17.77,-51.33,133.92,28.8,-6.41,1.5,0.1779,0.6424,-1.0,0.1315,0.6285,-0.7628,0.4294,-0.1159,0.0679,0.0481,0.5036,-1.0,0.5078,-0.52,0.8306,0.8229,0.212,-1.0,0.0,0.006,0.013,0.0,0.019,0.006,0.006,0.006,0.026,0.033,0.006,0.013,0.013,0.006,0.058,0.019,0.006,0.006
7.12,1.22,2.6,1.36,0.89,-1.74,26.5,0.0,0.0,0.104,9.49,13.71,-11.95,14.68,13.45,-6.77,11.51,-30.15,91.14,-5.27,26.28,-10.37,10.55,-44.03,131.75,28.04,-0.53,6.77,7.38,11.62,-20.0,7.82,8.61,-4.79,16.24,-31.17,84.49,-3.87,18.0,-18.5,16.35,-49.83,135.42,28.09,-6.38,-0.0,0.2278,0.7035,-1.0,0.2234,0.5244,-0.7618,0.4639,-0.1968,0.1163,0.102,0.5852,-1.0,0.4671,-0.2775,0.9001,0.8026,0.3386,-1.0,0.0,0.019,0.013,0.013,0.039,0.006,0.0,0.019,0.0,0.0,0.006,0.019,0.026,0.006,0.026,0.006,0.013,0.006
7.16,0.84,2.46,-9.29,-3.84,0.03,27.0,0.0,0.0,0.104,9.14,12.83,-13.36,13.01,12.22,-7.47,11.6,-29.44,91.23,-6.06,25.84,-11.16,11.87,-45.18,132.89,28.56,-0.97,6.77,5.88,13.12,-18.5,8.63,10.11,-3.29,17.74,-32.67,82.99,-2.37,16.5,-17.0,14.85,-48.33,136.92,26.59,-7.88,-1.5,0.1509,0.747,-0.903,0.2466,0.7237,-0.612,0.5105,-0.1559,0.1736,0.1203,0.7324,-0.8936,0.3159,-0.3087,0.9733,0.7352,0.2975,-0.9225,0.0,0.019,0.013,0.013,0.039,0.006,0.0,0.019,0.0,0.0,0.006,0.019,0.026,0.006,0.026,0.006,0.013,0.006
7.2,0.2,2.15,-15.57,-6.97,-0.57,27.5,0.0,0.0,0.104,7.65,12.13,-14.85,11.87,10.99,-7.91,12.04,-28.92,90.7,-6.59,25.05,-12.04,13.18,-46.58,134.12,28.83,-1.76,6.06,4.42,14.62,-17.0,10.13,11.61,-1.79,19.24,-33.88,84.49,-0.87,18.0,-15.5,13.35,-46.83,138.42,25.09,-7.2,-2.1,0.1262,0.7302,-0.7379,0.4051,0.9914,-0.5271,0.5709,-0.1615,0.2864,0.1628,0.9152,-0.7517,0.2029,-0.3332,0.9161,0.7028,0.3237,-0.7894,0.0,0.019,0.013,0.013,0.039,0.006,0.0,0.019,0.0,0.0,0.006,0.019,0.026,0.006,0.026,0.006,0.013,0.006
7.24,0.18,2.14,1.91,1.24,6.48,28.0,0.0,0.0,0.104,6.59,11.69,-16.0,10.9,10.11,-7.82,12.48,-28.83,90.0,-6.86,23.82,-13.27,14.15,-47.37,135.18,28.48,-2.81,5.19,5.22,14.93,-15.5,11.63,13.11,-0.29,20.22,-33.31,85.99,0.63,19.5,-14.0,11.85,-45.33,138.34,23.59,-6.37,-0.6,0.1493,0.7259,-0.5824,0.5236,1.0,-0.5255,0.5777,-0.1511,0.4366,0.2021,1.0,-0.6117,0.0425,-0.345,0.8628,0.5952,0.3388,-0.5734,0.033,0.006,0.006,0.006,0.013,0.013,0.006,0.0,0.019,0.006,0.013,0.0,0.019,0.0,0.033,0.006,0.033,0.013
7.28,0.35,2.22,1.81,2.02,-0.49,28.5,0.0,0.0,0.104,5.98,11.69,-16.96,9.32,9.49,-7.38,13.97,-28.74,89.38,-6.86,22.41,-14.41,15.12,-47.99,136.41,27.95,-4.04,3.96,6.72,14.48,-14.0,13.13,14.61,1.21,19.26,-34.81,87.49,2.13,21.0,-12.5,10.35,-43.83,136.84,22.09,-4.87,0.9,0.3546,0.7177,-0.6929,0.72,1.0,-0.7271,0.5503,-0.283,0.5826,0.2002,1.0,-0.5397,0.0411,0.0192,0.8252,0.6213,0.6223,-0.2382,0.033,0.006,0.006,0.006,0.013,0.013,0.006,0.0,0.019,0.006,0.013,0.0,0.019,0.0,0.033,0.006,0.033,0.013
7.32,0.26,2.09,-1.86,-1.37,0.5,29.0,0.0,0.0,0.104,4.57,11.87,-17.75,9.23,9.23,-6.5,15.38,-29.36,87.98,-5.89,21.45,-15.03,15.64,-48.25,137.2,26.98,-5.19,2.64,8.22,15.98,-12.5,14.63,16.11,2.71,17.76,-36.31,88.99,0.63,22.5,-11.0,8.85,-42.33,135.34,21.86,-3.37,2.4,0.3387,0.7693,-0.6965,0.665,0.8673,-0.6889,0.4558,-0.2681,0.6503,0.0091,1.0,-0.2445,-0.0047,0.1385,0.8152,0.6245,0.5914,-0.1365,0.033,0.006,0.006,0.006,0.013,0.013,0.006,0.0,0.019,0.006,0.013,0.0,0.019,0.0,0.033,0.006,0.033,0.013
7.36,0.35,2.13,1.1,1.03,-2.3,29.5,0.0,0.0,0.104,4.92,12.66,-18.11,9.23,9.23,-5.36,16.52,-30.06,87.1,-4.92,20.48,-15.38,15.73,-48.25,137.72,25.75,-5.89,1.49,9.37,15.97,-11.0,16.13,17.61,4.21,16.26,-37.33,90.49,-0.87,24.0,-9.5,7.35,-40.83,133.84,23.36,-1.87,3.9,0.2679,0.745,-0.7584,0.7269,0.8963,-0.7099,0.3819,-0.2241,0.6687,-0.0289,1.0,-0.2692,-0.0758,0.1406,0.7919,0.6722,0.6197,-0.0437,0.019,0.013,0.0,0.006,0.006,0.019,0.019,0.019,0.006,0.033,0.006,0.006,0.006,0.026,0.019,0.006,0.019,0.006
7.4,0.27,2.05,-1.92,-1.53,-1.19,30.0,0.0,0.0,0.104,4.22,13.62,-18.19,9.23,9.49,-3.96,17.58,-31.38,86.57,-3.87,20.04,-15.21,15.56,-47.9,137.81,24.52,-6.5,0.7,10.22,14.93,-9.5,17.63,18.52,2.71,14.76,-38.83,91.99,-2.37,25.5,-8.0,5.85,-39.33,134.49,24.33,-0.37,5.4,0.292,0.726,-0.8309,0.719,0.7913,-0.7997,0.3599,-0.2593,0.6733,-0.1729,1.0,-0.2575,-0.0315,0.2094,0.8175,0.695,0.6602,-0.0011,0.019,0.013,0.0,0.006,0.006,0.019,0.019,0.019,0.006,0.033,0.006,0.006,0.006,0.026,0.019,0.006,0.019,0.006
7.44,0.31,2.11,1.66,0.97,-1.52,30.5,0.0,0.0,0.104,4.92,14.59,-17.84,9.23,10.37,-2.55,18.28,-32.78,86.31,-2.37,19.78,-15.12,14.85,-47.29,137.64,23.47,-6.59,0.09,8.72,14.6,-11.0,19.13,18.83,1.21,13.26,-37.33,93.49,-3.87,27.0,-6.5,4.35,-37.83,134.92,25.68,1.13,6.9,0.2209,0.7201,-0.9121,0.6656,0.7969,-0.8226,0.3054,-0.1627,0.626,-0.2344,1.0,-0.3556,-0.0097,0.1407,0.8226,0.7337,0.5893,-0.0788,0.019,0.013,0.0,0.006,0.006,0.019,0.019,0.019,0.006,0.033,0.006,0.006,0.006,0.026,0.019,0.006,0.019,0.006
7.48,0.33,2.03,1.07,-0.48,-5.72,31.0,0.0,0.0,0.104,5.8,15.29,-17.05,9.84,11.43,-1.23,18.72,-34.19,86.31,-2.37,19.86,-13.89,13.89,-46.41,137.11,22.94,-6.59,-0.18,8.06,14.6,-12.5,20.63,17.33,-0.29,11.76,-35.83,94.99,-5.37,28.5,-5.0,2.85,-36.33,136.42,26.9,2.63,8.4,0.2302,0.72,-1.0,0.6136,0.6836,-0.9136,0.2976,-0.1571,0.5906,-0.3373,1.0,-0.4432,0.0767,0.1524,0.8811,0.7685,0.5885,-0.1151,0.039,0.0,0.013,0.013,0.013,0.006,0.0,0.013,0.013,0.019,0.006,0.006,0.026,0.091,0.006,0.006,0.013,0.0
7.52,0.41,2.11,3.66,1.67,2.79,31.5,0.0,0.0,0.104,6.33,15.82,-16.0,11.34,12.74,-0.18,18.81,-35.24,86.66,-0.88,20.48,-12.92,12.74,-45.18,136.41,22.59,-6.06,-0.09,6.56,16.1,-14.0,19.13,15.83,-1.79,10.26,-34.33,96.49,-6.87,30.0,-3.5,4.35,-34.83,137.92,26.53,2.54,9.9,0.1242,0.7496,-1.0,0.4908,0.6328,-0.9564,0.28,-0.0472,0.4959,-0.3945,1.0,-0.6184,0.1261,0.064,0.9763,0.758,0.5007,-0.2271,0.039,0.0,0.013,0.013,0.013,0.006,0.0,0.013,0.013,0.019,0.006,0.006,0.026,0.091,0.006,0.006,0.013,0.0
7.56,0.91,2.27,12.5,3.74,-7.93,32.0,0.0,0.0,0.104,7.91,15.82,-14.85,12.57,14.06,0.62,18.72,-36.12,87.45,-1.05,21.45,-11.51,11.34,-43.86,135.97,22.59,-5.19,0.44,5.06,16.6,-15.5,17.63,14.33,-3.29,10.27,-32.83,97.99,-8.37,28.5,-5.0,5.85,-33.33,139.42,27.07,2.05,11.4,0.1178,0.7563,-1.0,0.4243,0.5951,-1.0,0.2935,-0.017,0.3959,-0.4246,0.8984,-0.8657,0.2873,-0.0041,1.0,0.7735,0.4919,-0.3345,0.039,0.0,0.013,0.013,0.013,0.006,0.0,0.013,0.013,0.019,0.006,0.006,0.026,0.091,0.006,0.006,0.013,0.0
7.6,1.52,2.41,14.44,4.55,-11.98,32.5,0.0,0.0,0.136,7.38,16.0,-13.89,13.97,15.21,0.97,18.02,-36.74,88.86,-1.49,22.68,-10.11,9.93,-42.36,135.88,23.38,-3.87,1.41,3.56,16.46,-17.0,16.13,12.83,-4.79,11.34,-31.33,96.49,-9.87,27.0,-6.5,7.35,-31.83,140.92,27.19,0.55,12.9,0.0871,0.7538,-1.0,0.2708,0.3294,-1.0,0.3239,-0.0502,0.3138,-0.4869,0.8074,-0.947,0.3557,0.035,1.0,0.7768,0.456,-0.388,0.026,0.0,0.0,0.013,0.006,0.006,0.006,0.013,0.019,0.006,0.006,0.006,0.026,0.136,0.039,0.006,0.013,0.013
7.64,1.83,2.61,7.59,2.93,-10.55,33.0,0.0,0.0,0.136,8.09,16.35,-13.18,15.12,15.56,0.97,16.88,-37.09,90.18,-1.67,23.99,-8.79,8.7,-41.04,136.14,24.17,-2.55,2.55,2.06,17.56,-18.5,14.63,11.33,-6.29,12.84,-29.83,94.99,-11.37,25.5,-8.0,8.85,-30.33,142.42,27.36,-0.95,14.4,0.0536,0.7738,-1.0,0.1847,0.2088,-1.0,0.384,-0.0281,0.1717,-0.4505,0.7011,-1.0,0.3902,0.0066,1.0,0.7817,0.4049,-0.5466,0.026,0.0,0.0,0.013,0.006,0.006,0.006,0.013,0.019,0.006,0.006,0.006,0.026,0.136,0.039,0.006,0.013,0.013
7.68,2.32,2.8,12.67,5.81,-8.97,33.5,0.0,0.0,0.136,7.38,16.44,-12.83,16.08,16.26,0.53,15.56,-36.91,91.58,-2.9,24.52,-7.91,7.65,-39.73,136.85,25.22,-1.41,3.87,0.56,17.75,-20.0,13.13,9.83,-7.79,14.34,-28.33,93.49,-12.87,24.0,-9.5,10.35,-31.83,143.92,27.73,-2.45,12.9,-0.0067,0.7774,-1.0,0.1481,0.3429,-1.0,0.4488,-0.0117,0.0842,-0.4369,0.5565,-1.0,0.4559,-0.1603,1.0,0.7922,0.3663,-0.7353,0.026,0.0,0.0,0.013,0.006,0.006,0.006,0.013,0.019,0.006,0.006,0.006,0.026,0.136,0.039,0.006,0.013,0.013
7.72,2.97,3.22,17.1,10.82,5.51,34.0,0.0,0.0,0.149,6.59,16.96,-12.83,16.7,16.61,-0.26,14.5,-36.65,92.55,-3.96,25.66,-7.21,6.94,-38.41,137.9,26.28,-0.53,5.27,2.06,16.25,-20.0,11.63,8.33,-9.29,14.74,-29.83,91.99,-11.37,22.5,-11.0,11.85,-30.33,145.42,29.23,-0.95,11.4,0.077,0.7478,-1.0,0.1967,0.128,-1.0,0.4213,-0.1078,0.1119,-0.3056,0.5509,-1.0,0.4767,-0.0428,1.0,0.8457,0.4454,-0.7655,0.039,0.0,0.006,0.013,0.0,0.006,0.006,0.019,0.019,0.026,0.0,0.013,0.006,0.149,0.071,0.013,0.0,0.013
7.76,3.66,3.63,18.41,9.36,3.25,34.5,0.0,0.0,0.149,5.98,17.4,-13.1,17.05,16.61,-1.32,13.71,-35.68,93.43,-5.45,26.37,-6.77,6.42,-36.91,139.31,27.16,0.09,6.68,3.56,17.31,-20.0,10.13,6.83,-10.79,15.09,-31.33,90.49,-9.87,21.0,-12.5,13.35,-28.83,146.92,29.64,0.55,9.9,0.1809,0.7692,-1.0,0.2484,0.0605,-1.0,0.4312,-0.1374,0.0957,-0.218,0.3762,-1.0,0.5451,0.0585,1.0,0.8469,0.5574,-0.8776,0.039,0.0,0.006,0.013,0.0,0.006,0.006,0.019,0.019,0.026,0.0,0.013,0.006,0.149,0.071,0.013,0.0,0.013
7.8,4.24,3.88,13.5,7.41,3.58,35.0,0.0,0.0,0.149,4.04,17.58,-13.89,17.14,16.26,-2.64,13.18,-34.54,94.04,-6.86,27.16,-6.77,6.33,-35.42,140.45,28.3,0.35,8.09,5.06,16.46,-20.0,8.65,5.33,-12.29,13.74,-32.83,88.99,-8.37,19.5,-14.0,14.85,-27.33,148.42,31.14,2.05,8.4,0.2107,0.7538,-1.0,0.2473,-0.062,-1.0,0.3926,-0.2017,0.1156,-0.1753,0.3782,-1.0,0.5261,0.1148,1.0,0.9043,0.6283,-0.8907,0.039,0.0,0.006,0.013,0.0,0.006,0.006,0.019,0.019,0.026,0.0,0.013,0.006,0.149,0.071,0.013,0.0,0.013
7.84,4.52,4.02,6.38,2.47,-1.9,35.5,0.0,0.0,0.331,4.22,17.49,-14.94,16.96,16.08,-3.87,13.01,-33.4,94.31,-8.0,26.81,-6.94,6.68,-34.01,141.24,29.18,0.62,9.14,6.56,15.94,-20.0,10.15,3.83,-13.79,14.51,-34.33,87.49,-6.87,18.0,-15.5,16.35,-25.83,149.92,30.66,3.55,6.9,0.2153,0.7443,-1.0,0.2989,-0.0133,-0.9332,0.4147,-0.2404,0.128,-0.1282,0.4031,-1.0,0.4776,0.1231,1.0,0.8759,0.6824,-0.9334,0.058,0.019,0.019,0.019,0.026,0.026,0.0,0.006,0.0,0.013,0.019,0.013,0.006,0.163,0.331,0.013,0.006,0.006
7.88,4.84,4.13,8.24,3.4,-2.35,36.0,0.0,0.0,0.331,2.55,16.96,-16.26,16.7,14.59,-5.27,13.01,-32.52,94.22,-8.88,26.19,-8.0,7.65,-32.78,141.86,30.15,1.14,10.02,5.76,14.96,-20.0,11.02,2.33,-12.29,15.12,-35.83,85.99,-5.82,16.5,-17.0,14.85,-24.33,150.0,31.58,5.05,5.4,0.1646,0.7265,-1.0,0.315,0.042,-0.8112,0.4321,-0.2756,0.1705,-0.1662,0.5409,-1.0,0.3906,0.1318,1.0,0.9023,0.6735,-0.8908,0.058,0.019,0.019,0.019,0.026,0.026,0.0,0.006,0.0,0.013,0.019,0.013,0.006,0.163,0.331,0.013,0.006,0.006
7.92,5.21,4.44,9.72,6.49,8.16,36.5,0.0,0.0,0.331,2.72,16.44,-17.58,15.12,13.1,-6.68,13.27,-31.99,93.96,-9.49,25.31,-8.96,8.44,-31.46,142.38,30.76,1.93,10.63,7.26,13.46,-20.0,12.52,0.83,-10.79,15.58,-37.33,87.49,-4.32,15.0,-15.5,13.35,-22.83,150.0,30.08,6.55,3.9,0.2086,0.6819,-1.0,0.3795,0.1023,-0.7596,0.4452,-0.3791,0.2835,-0.0979,0.6537,-0.8325,0.3109,0.2481,1.0,0.8188,0.7292,-0.814,0.058,0.019,0.019,0.019,0.026,0.026,0.0,0.006,0.0,0.013,0.019,0.013,0.006,0.163,0.331,0.013,0.006,0.006
7.96,5.82,4.74,16.66,9.58,4.61,37.0,0.0,0.0,1.527,3.08,15.64,-18.54,13.27,11.78,-8.09,14.33,-31.73,93.43,-9.76,24.17,-10.28,9.84,-30.06,142.91,31.29,2.99,10.81,8.76,14.15,-18.5,14.02,-0.67,-9.29,15.8,-38.83,88.99,-3.67,13.5,-14.0,11.85,-21.33,150.0,29.94,8.05,2.4,0.3007,0.7117,-0.9419,0.4678,0.1363,-0.7359,0.4516,-0.448,0.4017,-0.1049,0.5921,-0.7802,0.2939,0.3869,1.0,0.8556,0.772,-0.8457,0.013,0.026,0.006,0.006,0.026,0.013,0.006,0.006,0.039,0.0,0.026,0.006,0.013,0.169,1.527,0.006,0.013,0.0
8.0,6.54,5.11,16.73,9.83,5.29,37.5,0.0,0.0,1.527,2.99,14.85,-19.25,13.18,10.37,-9.23,14.94,-31.82,92.64,-9.76,22.68,-11.69,11.07,-28.56,142.91,31.38,4.31,10.81,10.26,12.65,-17.0,15.37,-2.17,-7.79,14.3,-40.33,90.49,-4.33,12.0,-12.5,10.35,-19.83,150.0,28.85,9.55,3.9,0.3257,0.6567,-0.9179,0.4391,-0.0116,-0.6903,0.4012,-0.5663,0.5232,-0.1236,0.6679,-0.562,0.1948,0.5596,1.0,0.8242,0.8503,-0.6531,0.013,0.026,0.006,0.006,0.026,0.013,0.006,0.006,0.039,0.0,0.026,0.006,0.013,0.169,1.527,0.006,0.013,0.0
8.04,7.1,5.44,14.41,7.26,-1.55,38.0,0.0,0.0,1.527,4.75,14.24,-19.69,12.22,8.96,-10.02,15.38,-32.61,91.23,-9.05,21.36,-12.66,11.95,-27.07,142.91,30.94,5.62,10.2,10.96,11.59,-15.5,16.41,-3.67,-6.29,14.88,-41.83,91.99,-5.83,11.91,-11.0,8.85,-18.33,150.0,28.15,11.05,5.4,0.313,0.6653,-0.8697,0.4689,-0.0282,-0.7003,0.4252,-0.6264,0.5838,-0.2085,0.6711,-0.4762,0.1366,0.6919,1.0,0.8043,0.8764,-0.6164,0.013,0.026,0.006,0.006,0.026,0.013,0.006,0.006,0.039,0.0,0.026,0.006,0.013,0.169,1.527,0.006,0.013,0.0
8.08,7.71,5.77,14.98,8.17,2.58,38.5,0.0,0.0,2.912,5.01,13.45,-19.69,11.25,7.56,-10.55,15.38,-33.49,90.44,-8.09,19.95,-13.36,12.66,-25.58,142.91,30.06,6.94,9.32,9.46,10.13,-14.0,15.11,-5.17,-4.79,14.26,-43.33,93.49,-7.33,13.28,-9.5,7.35,-16.83,150.0,28.89,12.55,6.9,0.2531,0.6387,-0.8472,0.4316,-0.0034,-0.6739,0.4075,-0.6864,0.6396,-0.3123,0.696,-0.3905,0.0668,0.7207,1.0,0.8255,0.9081,-0.4665,0.039,0.019,0.0,0.006,0.026,0.006,0.006,0.013,0.013,0.013,0.026,0.006,0.013,0.136,2.912,0.006,0.013,0.013
8.12,8.25,6.11,14.83,8.18,2.33,39.0,0.0,0.0,2.912,7.21,12.57,-19.69,11.43,6.15,-10.63,15.21,-34.72,89.82,-7.12,18.46,-13.89,13.01,-24.17,142.91,29.27,8.35,8.35,8.72,8.63,-12.5,16.61,-6.67,-3.29,14.85,-44.83,94.99,-8.83,11.78,-8.0,5.85,-15.33,150.0,30.36,14.05,8.4,0.2492,0.6049,-0.8229,0.5072,-0.0342,-0.7262,0.4242,-0.7849,0.7022,-0.3479,0.6581,-0.4036,0.0619,0.8057,1.0,0.8674,0.9916,-0.3922,0.039,0.019,0.0,0.006,0.026,0.006,0.006,0.013,0.013,0.013,0.026,0.006,0.013,0.136,2.912,0.006,0.013,0.013
8.16,8.81,6.4,13.86,6.73,-3.99,39.5,0.0,0.0,2.912,7.82,11.6,-18.72,11.69,4.75,-10.46,14.94,-36.04,89.56,-6.59,17.05,-13.89,12.92,-22.68,142.91,28.92,9.76,7.56,7.37,7.79,-11.0,16.81,-8.17,-1.79,14.37,-46.33,96.49,-10.33,10.28,-6.5,4.35,-13.83,150.0,30.06,15.55,9.9,0.2104,0.5962,-0.7738,0.4802,-0.0488,-0.7629,0.4106,-0.8404,0.7109,-0.4335,0.6211,-0.4032,0.0731,0.8369,1.0,0.8588,1.0,-0.3018,0.039,0.019,0.0,0.006,0.026,0.006,0.006,0.013,0.013,0.013,0.026,0.006,0.013,0.136,2.912,0.006,0.013,0.013
8.2,9.33,6.69,12.91,7.11,1.0,40.0,0.0,0.0,2.912,8.61,10.55,-17.67,12.48,3.34,-9.76,14.5,-37.35,89.56,-6.33,15.73,-13.62,12.66,-21.27,142.91,28.83,11.16,7.03,5.87,6.89,-9.5,16.33,-9.67,-3.29,14.17,-47.83,97.99,-11.83,9.31,-5.0,2.85,-12.33,150.0,29.64,17.05,11.4,0.1367,0.5799,-0.7185,0.4666,-0.0897,-0.8304,0.4049,-0.9152,0.7231,-0.4903,0.6237,-0.4198,0.0752,0.8596,1.0,0.8468,1.0,-0.2412,0.013,0.026,0.013,0.026,0.033,0.0,0.006,0.039,0.013,0.0,0.019,0.019,0.013,0.136,2.853,0.013,0.006,0.0
8.24,9.84,6.93,13.15,6.02,-2.42,40.5,0.0,0.0,2.912,9.49,9.32,-16.35,13.45,1.93,-8.7,14.33,-38.67,89.82,-6.33,14.24,-12.57,11.51,-19.78,142.91,29.09,12.57,6.86,4.37,6.5,-8.0,17.1,-11.17,-4.79,14.39,-49.33,99.49,-13.33,7.81,-3.5,4.35,-10.83,150.0,29.39,18.55,12.9,0.092,0.5728,-0.6735,0.4886,-0.0921,-0.924,0.4112,-0.9692,0.7138,-0.5203,0.5425,-0.5266,0.1399,0.8812,1.0,0.8398,1.0,-0.2602,0.013,0.026,0.013,0.026,0.033,0.0,0.006,0.039,0.013,0.0,0.019,0.019,0.013,0.136,2.853,0.013,0.006,0.0
8.28,10.19,7.03,8.36,2.34,-5.42,41.0,0.0,0.0,2.912,9.14,8.44,-14.94,14.5,0.53,-7.47,14.24,-40.17,90.09,-7.03,12.83,-11.6,10.63,-18.28,142.91,29.53,13.97,6.86,2.87,5.0,-6.5,15.6,-12.67,-6.29,12.97,-50.83,100.99,-14.83,6.31,-2.0,5.85,-9.33,150.0,29.08,20.05,14.4,0.0445,0.5422,-0.6174,0.4373,-0.1575,-0.9891,0.3705,-1.0,0.7071,-0.5618,0.4823,-0.5783,0.1869,0.8881,1.0,0.8309,1.0,-0.2778,0.013,0.026,0.013,0.026,0.033,0.0,0.006,0.039,0.013,0.0,0.019,0.019,0.013,0.136,2.853,0.013,0.006,0.0
8.32,10.62,7.24,9.1,3.88,-2.1,41.5,0.0,0.0,2.912,9.23,7.47,-13.54,15.47,-0.88,-6.33,14.15,-41.57,91.58,-8.0,11.43,-10.28,9.14,-16.88,142.91,29.27,14.94,7.29,1.37,3.76,-5.0,14.1,-14.17,-7.79,12.53,-52.33,102.49,-16.33,4.81,-0.5,7.05,-7.83,150.0,28.01,21.55,15.9,-0.0454,0.5229,-0.5764,0.4008,-0.145,-1.0,0.358,-1.0,0.6999,-0.5878,0.4835,-0.6041,0.2015,0.8512,1.0,0.8003,1.0,-0.3253,0.019,0.026,0.013,0.013,0.026,0.006,0.006,0.019,0.026,0.013,0.026,0.006,0.0,0.13,2.704,0.006,0.033,0.0
8.36,11.0,7.38,9.15,3.15,-3.9,42.0,0.0,0.0,2.912,8.17,6.42,-12.13,16.17,-2.29,-5.45,14.06,-43.07,93.08,-9.05,10.02,-8.88,7.91,-15.47,142.91,28.83,16.44,8.35,-0.13,2.26,-3.5,15.54,-15.67,-9.29,12.67,-53.83,103.99,-17.83,3.31,1.0,8.55,-6.33,150.0,29.38,23.05,17.4,-0.0611,0.4663,-0.513,0.444,-0.1754,-1.0,0.3621,-1.0,0.7062,-0.5715,0.3813,-0.698,0.2824,0.8861,1.0,0.8395,1.0,-0.388,0.019,0.026,0.013,0.013,0.026,0.006,0.006,0.019,0.026,0.013,0.026,0.006,0.0,0.13,2.704,0.006,0.033,0.0
