t_s,phase,roll_deg,pitch_deg,gyro_x_dps,gyro_y_dps,gyro_z_dps,height_ref_mm,vx_ref_mps,vy_ref_mps,max_cur_a,q0_deg,q1_deg,q2_deg,q3_deg,q4_deg,q5_deg,q6_deg,q7_deg,q8_deg,q9_deg,q10_deg,q11_deg,q12_deg,q13_deg,q14_deg,q15_deg,q16_deg,q17_deg,cmd0_deg,cmd1_deg,cmd2_deg,cmd3_deg,cmd4_deg,cmd5_deg,cmd6_deg,cmd7_deg,cmd8_deg,cmd9_deg,cmd10_deg,cmd11_deg,cmd12_deg,cmd13_deg,cmd14_deg,cmd15_deg,cmd16_deg,cmd17_deg,act0,act1,act2,act3,act4,act5,act6,act7,act8,act9,act10,act11,act12,act13,act14,act15,act16,act17,cur0_a,cur1_a,cur2_a,cur3_a,cur4_a,cur5_a,cur6_a,cur7_a,cur8_a,cur9_a,cur10_a,cur11_a,cur12_a,cur13_a,cur14_a,cur15_a,cur16_a,cur17_a,obs0,obs1,obs2,obs3,obs4,obs5,obs6,obs7,obs8,obs9,obs10,obs11,obs12,obs13,obs14,obs15,obs16,obs17,obs18,obs19,obs20,obs21,obs22,obs23,obs24,obs25,obs26,obs27,obs28,obs29,obs30,obs31,obs32,obs33,obs34,obs35,obs36,obs37,obs38,obs39,obs40,obs41,obs42,obs43,obs44,obs45,obs46,obs47,obs48,obs49,obs50,obs51,obs52,obs53,obs54,obs55,obs56,obs57,obs58,obs59,obs60,obs61,obs62,obs63,obs64,obs65,obs66,obs67,obs68,obs69,obs70,obs71,rot60_k
0.0,run,0.33,3.4,0.63,-0.03,-0.48,0.0,0.0,0.0,0.026,-0.18,19.95,79.8,0.0,17.05,78.84,0.0,19.51,81.91,0.09,17.4,79.1,-0.09,18.81,79.54,-0.09,17.23,80.07,-1.68,18.45,78.3,-1.5,15.55,80.25,1.5,18.01,83.06,1.59,15.9,80.6,1.41,17.31,78.04,-1.59,15.99,81.3,-1.0,-1.0,-0.4211,-1.0,-1.0,1.0,1.0,-1.0,1.0,1.0,-1.0,1.0,0.2472,-1.0,-0.3055,-1.0,-1.0,1.0,0.019,0.006,0.006,0.006,0.006,0.006,0.006,0.019,0.0,0.013,0.006,0.013,0.013,0.026,0.013,0.013,0.0,0.0,0.0,0.0,0.0,0.0,0.0,0.0015,0.0,0.0,0.0,0.0,0.0,0.0,0.0,0.0,0.0,0.0,-0.0031,0.0,0.0,0.0,0.0,0.0,0.0,0.003,0.0,0.0,0.0,0.0,0.0,0.0,0.0,0.0,0.0,0.0,-0.006,0.0,0.0,0.0,0.0043,-0.001,0.0034,0.0,0.0,0.0,0.0,0.0,0.0,0.0,0.0,0.0,0.0,0.0,0.0,0.0,0.0,0.0,0.0,0.0,0.0,0.0,0.0,0.0,0.0,0.0,0.0,0.0,0.0,0.0,0.0,0.0,0.0,0.0,0
0.04,run,0.2,3.41,-1.94,-0.27,0.22,0.0,0.0,0.0,0.026,-0.53,19.78,79.63,0.0,16.88,79.1,0.0,18.98,82.35,0.35,17.14,79.45,0.18,18.54,79.1,-0.44,17.05,80.6,-3.18,19.95,79.8,-3.0,14.05,81.75,0.0,16.51,81.56,3.09,14.4,82.1,-0.09,15.81,79.54,-3.09,14.49,82.8,-1.0,1.0,1.0,-1.0,-1.0,1.0,-1.0,-1.0,-1.0,1.0,-1.0,1.0,-1.0,0.2257,1.0,-1.0,-1.0,1.0,0.019,0.006,0.006,0.006,0.006,0.006,0.006,0.019,0.0,0.013,0.006,0.013,0.013,0.026,0.013,0.013,0.0,0.0,0.0,0.0,0.0,0.0,0.0,0.0015,0.0,0.0,0.0061,0.0,0.0,0.0,0.0,0.0,0.0,0.0,-0.0046,0.0046,0.0,0.0,0.0,0.0,0.0,0.0021,0.0,0.0,0.01,0.0,0.0,0.0,0.0,0.0,0.0,0.0,-0.0067,0.0075,0.0043,-0.0001,0.0111,-0.0005,-0.0083,-1.0,-1.0,-0.4211,-1.0,-1.0,1.0,1.0,-1.0,1.0,1.0,-1.0,1.0,0.2472,-1.0,-0.3055,-1.0,-1.0,1.0,0.0,0.0,0.0,0.0,0.0,0.0,0.0,0.0,0.0,0.0,0.0,0.0,0.0,0
0.08,run,0.09,3.43,-2.53,0.2,-0.83,0.0,0.0,0.0,0.026,-1.49,19.34,79.1,-0.7,16.52,79.8,0.35,18.28,82.97,1.23,16.52,80.24,0.97,17.75,78.4,-1.41,16.44,81.04,-4.68,21.45,78.9,-4.5,12.55,83.25,-1.5,18.01,83.06,4.59,12.9,83.6,-1.59,17.31,81.04,-4.59,12.99,84.3,-0.4819,1.0,0.1635,-1.0,-1.0,0.7421,-1.0,1.0,1.0,1.0,-1.0,1.0,-0.6567,1.0,1.0,-1.0,-1.0,1.0,0.019,0.006,0.006,0.006,0.006,0.006,0.006,0.019,0.0,0.013,0.006,0.013,0.013,0.026,0.013,0.013,0.0,0.0,-0.0061,-0.0031,-0.0031,0.0,-0.0031,0.0061,0.0,-0.0092,0.0138,0.0046,-0.0046,0.0061,0.0046,-0.0046,-0.0077,-0.0061,-0.0077,0.0138,-0.0192,-0.0096,-0.0096,0.0,-0.0096,0.0158,0.0,-0.0288,0.031,0.0144,-0.0144,0.0192,0.0144,-0.0144,-0.024,-0.0192,-0.0143,0.034,-0.0069,0.0005,-0.0338,-0.0047,0.0039,-1.0,1.0,1.0,-1.0,-1.0,1.0,-1.0,-1.0,-1.0,1.0,-1.0,1.0,-1.0,0.2257,1.0,-1.0,-1.0,1.0,0.0,0.0,0.0,0.0,0.0,0.0,0.0,0.0,0.0,0.0,0.0,0.0,0.0,0
0.12,run,-0.18,3.54,-6.18,1.55,-3.73,0.0,0.0,0.0,0.026,-2.29,18.9,78.75,-1.58,15.64,80.77,0.97,17.67,83.23,2.2,15.91,81.12,1.14,17.14,78.22,-2.2,15.64,81.91,-6.18,22.95,77.4,-6.0,11.05,84.75,-3.0,19.51,84.56,6.09,11.4,85.1,-0.09,15.81,79.54,-6.09,11.49,85.8,-1.0,1.0,0.0988,-1.0,-1.0,1.0,-1.0,1.0,1.0,1.0,-1.0,1.0,1.0,0.3234,-0.7385,-1.0,-1.0,1.0,0.013,0.0,0.006,0.019,0.019,0.019,0.0,0.0,0.0,0.019,0.013,0.013,0.0,0.013,0.006,0.019,0.0,0.0,-0.023,-0.0107,-0.0123,-0.0123,-0.0092,0.0184,0.0061,-0.0215,0.0245,0.0199,-0.0153,0.0199,0.0184,-0.0184,-0.0199,-0.023,-0.0184,0.0215,-0.0761,-0.0352,-0.0409,-0.0456,-0.0295,0.0567,0.0228,-0.0657,0.0616,0.0671,-0.05,0.0647,0.0614,-0.0614,-0.0624,-0.0761,-0.0499,0.0523,-0.0168,0.003,-0.0441,0.0035,-0.0145,-0.4819,1.0,0.1635,-1.0,-1.0,0.7421,-1.0,1.0,1.0,1.0,-1.0,1.0,-0.6567,1.0,1.0,-1.0,-1.0,1.0,0.0,0.0,0.0,0.0,0.0,0.0,0.0,0.0,0.0,0.0,0.0,0.0,0.0,0
0.16,run,-0.68,3.57,-12.66,0.96,-5.18,0.0,0.0,0.0,0.026,-3.52,18.81,78.49,-2.64,14.59,81.91,1.05,17.4,83.58,3.25,14.59,82.27,1.14,16.61,78.22,-3.43,14.41,83.06,-7.68,24.45,75.9,-7.5,9.55,86.25,-4.5,18.64,83.06,7.59,9.9,86.6,1.41,14.31,81.04,-7.59,9.99,87.3,-1.0,1.0,-0.1358,-1.0,-0.5551,1.0,-0.2303,0.7934,-0.1191,1.0,-1.0,1.0,1.0,0.2259,1.0,-1.0,-1.0,1.0,0.013,0.0,0.006,0.019,0.019,0.019,0.0,0.0,0.0,0.019,0.013,0.013,0.0,0.013,0.006,0.019,0.0,0.0,-0.0368,-0.0184,-0.0184,-0.0276,-0.0245,0.0353,0.0169,-0.0322,0.0291,0.0368,-0.0261,0.0353,0.0215,-0.0291,-0.023,-0.0368,-0.0322,0.0368,-0.1051,-0.0534,-0.0517,-0.0895,-0.0782,0.103,0.0563,-0.0863,0.0604,0.1103,-0.0753,0.1029,0.0545,-0.0833,-0.0552,-0.1051,-0.0867,0.0942,-0.0404,0.012,-0.1079,0.0271,-0.0651,-1.0,1.0,0.0988,-1.0,-1.0,1.0,-1.0,1.0,1.0,1.0,-1.0,1.0,1.0,0.3234,-0.7385,-1.0,-1.0,1.0,0.0,0.0,0.0,0.0,0.0,0.0,0.0,0.0,0.0,0.0,0.0,0.0,0.0,0
0.2,run,-1.22,3.62,-14.52,1.45,-6.04,0.0,0.0,0.0,0.026,-4.83,18.81,78.05,-3.96,13.36,83.23,0.97,17.58,84.11,4.57,13.18,83.58,0.62,15.91,78.66,-4.66,13.27,84.29,-9.18,25.95,77.4,-9.0,8.05,87.75,-6.0,20.14,84.56,9.09,8.4,88.1,2.91,12.81,82.54,-9.09,8.49,88.8,-1.0,1.0,0.687,-1.0,-0.8026,1.0,-0.7816,1.0,0.512,1.0,-1.0,1.0,1.0,-1.0,1.0,-1.0,-1.0,1.0,0.013,0.0,0.006,0.019,0.019,0.019,0.0,0.0,0.0,0.019,0.013,0.013,0.0,0.013,0.006,0.019,0.0,0.0,-0.0583,-0.0199,-0.023,-0.046,-0.043,0.0552,0.0184,-0.0368,0.0353,0.0552,-0.0491,0.0552,0.0215,-0.0383,-0.023,-0.0583,-0.0537,0.0568,-0.1541,-0.0432,-0.0534,-0.1317,-0.1238,0.1469,0.0451,-0.0777,0.0653,0.1462,-0.139,0.1468,0.0381,-0.0928,-0.0386,-0.1541,-0.1413,0.1407,-0.0838,0.015,-0.221,0.0167,-0.0904,-1.0,1.0,-0.1358,-1.0,-0.5551,1.0,-0.2303,0.7934,-0.1191,1.0,-1.0,1.0,1.0,0.2259,1.0,-1.0,-1.0,1.0,0.0,0.0,0.0,0.0,0.0,0.0,0.0,0.0,0.0,0.0,0.0,0.0,0.0,0
0.24,run,-1.61,3.52,-10.98,-1.9,-6.91,0.0,0.0,0.0,0.026,-6.15,19.34,77.52,-5.27,12.04,84.64,0.44,18.19,84.55,5.8,12.04,84.9,0.53,15.03,79.89,-5.98,11.95,85.52,-10.52,27.45,78.9,-10.5,9.55,89.25,-4.5,18.64,83.06,10.59,6.9,89.6,4.41,11.31,84.04,-10.59,6.99,90.3,-0.3006,1.0,0.652,-1.0,1.0,1.0,0.5019,-0.0526,-0.6113,1.0,-1.0,1.0,0.171,-1.0,1.0,-1.0,-1.0,1.0,0.013,0.013,0.013,0.019,0.013,0.013,0.006,0.0,0.013,0.026,0.006,0.006,0.006,0.006,0.019,0.019,0.006,0.0,-0.0813,-0.0199,-0.0307,-0.069,-0.0644,0.0782,0.0169,-0.0337,0.0445,0.0782,-0.0736,0.0782,0.0123,-0.0506,-0.0153,-0.0798,-0.0736,0.0782,-0.1941,-0.0302,-0.0661,-0.1784,-0.1671,0.1891,0.0258,-0.0429,0.0802,0.1886,-0.1893,0.189,-0.0078,-0.111,0.0017,-0.1884,-0.1736,0.179,-0.1316,0.0188,-0.2534,0.0254,-0.1053,-1.0,1.0,0.687,-1.0,-0.8026,1.0,-0.7816,1.0,0.512,1.0,-1.0,1.0,1.0,-1.0,1.0,-1.0,-1.0,1.0,0.0,0.0,0.0,0.0,0.0,0.0,0.0,0.0,0.0,0.0,0.0,0.0,0.0,0
0.28,run,-1.87,3.73,-6.96,6.14,-10.92,0.0,0.0,0.0,0.026,-7.56,20.65,77.08,-6.59,10.72,85.96,-0.79,18.81,84.81,7.21,10.81,86.22,0.79,13.71,81.04,-7.38,10.55,86.84,-12.02,28.95,77.4,-12.0,8.05,87.75,-6.0,17.14,81.56,12.09,5.4,91.1,5.91,9.81,85.54,-12.09,5.49,91.8,-0.4937,0.9896,0.1443,-1.0,-0.0391,-1.0,-1.0,-0.4211,-0.0325,1.0,-1.0,1.0,0.9933,-0.1208,1.0,-1.0,-1.0,1.0,0.013,0.013,0.013,0.019,0.013,0.013,0.006,0.0,0.013,0.026,0.006,0.006,0.006,0.006,0.019,0.019,0.006,0.0,-0.1043,-0.0107,-0.0399,-0.092,-0.0874,0.1028,0.0077,-0.023,0.0522,0.0997,-0.0936,0.1012,0.0107,-0.066,0.0061,-0.1028,-0.0966,0.0997,-0.2222,0.0134,-0.0808,-0.2112,-0.2033,0.2244,-0.0164,0.0103,0.0849,0.2126,-0.2073,0.2186,-0.0112,-0.1352,0.0818,-0.2182,-0.2079,0.2059,-0.1655,0.0101,-0.1916,-0.0332,-0.1207,-0.3006,1.0,0.652,-1.0,1.0,1.0,0.5019,-0.0526,-0.6113,1.0,-1.0,1.0,0.171,-1.0,1.0,-1.0,-1.0,1.0,0.0,0.0,0.0,0.0,0.0,0.0,0.0,0.0,0.0,0.0,0.0,0.0,0.0,0
0.32,run,-2.52,3.75,-17.25,0.96,-15.59,0.0,0.0,0.0,0.026,-8.79,21.71,76.99,-8.0,9.84,87.28,-2.02,18.98,84.9,8.53,9.4,87.63,1.67,12.39,82.53,-8.7,9.23,88.07,-13.52,30.0,75.9,-13.5,9.55,89.25,-7.5,18.64,80.06,13.59,3.9,92.6,4.74,8.31,87.04,-13.59,3.99,93.3,-1.0,1.0,0.1259,-1.0,1.0,1.0,-1.0,0.9872,-0.2949,1.0,-1.0,1.0,0.1354,0.4316,1.0,-1.0,-1.0,1.0,0.013,0.013,0.013,0.019,0.013,0.013,0.006,0.0,0.013,0.026,0.006,0.006,0.006,0.006,0.019,0.019,0.006,0.0,-0.1289,0.0123,-0.0476,-0.115,-0.1104,0.1258,-0.0138,-0.0123,0.0568,0.1243,-0.115,0.1243,0.0153,-0.089,0.0261,-0.1273,-0.1212,0.1227,-0.2475,0.0956,-0.0853,-0.2341,-0.2286,0.2433,-0.092,0.0474,0.0767,0.2408,-0.2256,0.2393,0.0094,-0.1809,0.132,-0.2447,-0.2375,0.2303,-0.1881,0.0289,-0.1215,0.1072,-0.1906,-0.4937,0.9896,0.1443,-1.0,-0.0391,-1.0,-1.0,-0.4211,-0.0325,1.0,-1.0,1.0,0.9933,-0.1208,1.0,-1.0,-1.0,1.0,0.0,0.0,0.0,0.0,0.0,0.0,0.0,0.0,0.0,0.0,0.0,0.0,0.0,0
0.36,run,-3.14,3.62,-16.76,-2.44,-11.65,0.0,0.0,0.0,0.117,-10.2,22.94,76.99,-9.4,9.05,88.15,-3.43,18.98,84.9,9.93,7.82,89.03,2.55,11.07,84.02,-10.2,7.91,89.3,-15.02,28.5,74.4,-15.0,11.05,87.75,-9.0,17.14,81.56,15.09,2.4,94.1,6.24,6.81,88.54,-15.09,2.49,94.8,-1.0,0.6835,-0.5074,-1.0,1.0,-1.0,-1.0,0.6701,1.0,1.0,-1.0,1.0,0.9131,-1.0,1.0,-1.0,-1.0,1.0,0.013,0.052,0.0,0.006,0.006,0.006,0.019,0.013,0.117,0.013,0.019,0.013,0.019,0.006,0.0,0.013,0.006,0.006,-0.1503,0.0307,-0.0491,-0.1396,-0.1258,0.1488,-0.0353,-0.0092,0.0583,0.1473,-0.1396,0.1488,0.0307,-0.112,0.0522,-0.1503,-0.1442,0.1442,-0.2537,0.1358,-0.0655,-0.2557,-0.2174,0.2565,-0.1448,0.0447,0.0594,0.2547,-0.2498,0.2594,0.064,-0.2128,0.19,-0.2574,-0.2524,0.2416,-0.2445,0.0304,-0.3011,0.0167,-0.272,-1.0,1.0,0.1259,-1.0,1.0,1.0,-1.0,0.9872,-0.2949,1.0,-1.0,1.0,0.1354,0.4316,1.0,-1.0,-1.0,1.0,0.0,0.0,0.0,0.0,0.0,0.0,0.0,0.0,0.0,0.0,0.0,0.0,0.0,0
0.4,run,-3.73,3.41,-14.89,-4.07,-2.59,0.0,0.0,0.0,0.117,-11.6,24.26,76.9,-10.81,8.61,88.77,-4.75,18.37,84.81,11.34,6.5,90.44,3.6,9.76,85.43,-11.51,6.59,90.7,-16.52,27.0,72.9,-16.5,12.55,86.25,-7.5,15.64,80.06,16.59,0.9,95.6,4.74,5.31,90.04,-16.59,0.99,96.3,-1.0,-0.1119,0.0151,-1.0,1.0,-0.6363,0.1244,-1.0,-0.6517,1.0,-1.0,1.0,0.0431,-0.9805,1.0,-1.0,-1.0,1.0,0.013,0.052,0.0,0.006,0.006,0.006,0.019,0.013,0.117,0.013,0.019,0.013,0.019,0.006,0.0,0.013,0.006,0.006,-0.1749,0.0522,-0.0491,-0.1641,-0.1396,0.1641,-0.0598,-0.0092,0.0583,0.1718,-0.1672,0.1733,0.046,-0.135,0.0782,-0.1764,-0.1672,0.1657,-0.2696,0.1756,-0.0458,-0.271,-0.2039,0.237,-0.1934,0.0313,0.0416,0.2703,-0.2784,0.2736,0.1023,-0.2352,0.2308,-0.278,-0.2629,0.2496,-0.2992,0.0192,-0.2926,-0.0426,-0.2033,-1.0,0.6835,-0.5074,-1.0,1.0,-1.0,-1.0,0.6701,1.0,1.0,-1.0,1.0,0.9131,-1.0,1.0,-1.0,-1.0,1.0,0.0,0.0,0.0,0.0,0.0,0.0,0.0,0.0,0.0,0.0,0.0,0.0,0.0,0
0.44,run,-4.47,3.21,-18.69,-4.46,2.64,0.0,0.0,0.0,0.117,-12.92,25.22,76.55,-12.13,8.61,89.03,-6.06,17.67,84.2,12.74,5.1,91.85,4.57,8.44,86.84,-12.83,5.19,92.11,-18.02,25.5,74.4,-18.0,14.05,84.75,-9.0,17.14,78.56,18.09,-0.6,97.1,3.24,3.81,91.54,-18.09,-0.51,97.8,-1.0,-1.0,1.0,-1.0,1.0,-1.0,-1.0,1.0,-0.0104,1.0,-1.0,1.0,-0.7981,-0.7312,1.0,-1.0,-1.0,1.0,0.013,0.052,0.0,0.006,0.006,0.006,0.019,0.013,0.117,0.013,0.019,0.013,0.019,0.006,0.0,0.013,0.006,0.006,-0.1994,0.0752,-0.0506,-0.1887,-0.1473,0.1749,-0.0828,-0.0199,0.0568,0.1963,-0.1902,0.1979,0.0644,-0.158,0.1028,-0.1994,-0.1902,0.1902,-0.2814,0.2098,-0.0379,-0.2824,-0.1717,0.2065,-0.2223,-0.0187,0.0233,0.2819,-0.2818,0.2842,0.1411,-0.2515,0.2542,-0.2815,-0.271,0.2675,-0.3502,0.0005,-0.2599,-0.0711,-0.0451,-1.0,-0.1119,0.0151,-1.0,1.0,-0.6363,0.1244,-1.0,-0.6517,1.0,-1.0,1.0,0.0431,-0.9805,1.0,-1.0,-1.0,1.0,0.0,0.0,0.0,0.0,0.0,0.0,0.0,0.0,0.0,0.0,0.0,0.0,0.0,0
0.48,run,-5.18,3.07,-17.69,-3.6,1.25,0.0,0.0,0.0,0.247,-14.24,26.19,75.85,-13.62,8.61,89.03,-7.21,16.96,83.5,14.06,3.69,93.25,5.27,6.94,88.33,-14.24,4.13,93.43,-19.52,24.0,72.9,-19.5,15.55,85.39,-10.5,18.64,80.06,19.59,-2.1,98.6,1.74,2.31,93.04,-19.59,-2.01,99.3,-1.0,-1.0,-0.4197,-1.0,1.0,0.2399,-1.0,0.9534,1.0,1.0,-1.0,1.0,-0.4672,-1.0,0.91,-1.0,-1.0,1.0,0.019,0.052,0.006,0.019,0.013,0.013,0.019,0.013,0.247,0.019,0.013,0.013,0.019,0.006,0.0,0.026,0.039,0.013,-0.2224,0.092,-0.0568,-0.2117,-0.1473,0.1795,-0.1058,-0.0322,0.046,0.2209,-0.2148,0.2224,0.0813,-0.181,0.1273,-0.2224,-0.2148,0.2148,-0.2833,0.2101,-0.0495,-0.284,-0.1202,0.1618,-0.2419,-0.0591,-0.0239,0.2894,-0.2893,0.291,0.1621,-0.2623,0.27,-0.2833,-0.2817,0.2792,-0.4152,-0.0164,-0.3261,-0.0779,0.0461,-1.0,-1.0,1.0,-1.0,1.0,-1.0,-1.0,1.0,-0.0104,1.0,-1.0,1.0,-0.7981,-0.7312,1.0,-1.0,-1.0,1.0,0.0,0.0,0.0,0.0,0.0,0.0,0.0,0.0,0.0,0.0,0.0,0.0,0.0,0
0.52,run,-5.88,3.05,-17.7,0.1,2.43,0.0,0.0,0.0,0.247,-15.64,26.72,75.06,-15.03,9.49,88.51,-8.17,16.61,82.62,15.47,2.2,94.66,5.62,5.54,89.82,-15.73,2.72,94.75,-21.02,22.5,74.4,-21.0,17.05,86.89,-9.0,17.14,81.56,21.09,-3.6,100.1,0.24,0.81,94.54,-21.09,-3.51,100.8,-1.0,-0.3345,1.0,-1.0,1.0,1.0,0.1634,-0.1384,0.9215,1.0,-1.0,1.0,-0.7241,-1.0,0.7352,-1.0,-1.0,1.0,0.019,0.052,0.006,0.019,0.013,0.013,0.019,0.013,0.247,0.019,0.013,0.013,0.019,0.006,0.0,0.026,0.039,0.013,-0.2454,0.1089,-0.069,-0.2378,-0.1473,0.1795,-0.1258,-0.0445,0.0337,0.2439,-0.2393,0.247,0.0936,-0.2071,0.1534,-0.247,-0.2332,0.2378,-0.2845,0.2103,-0.0806,-0.2965,-0.0842,0.1133,-0.244,-0.0873,-0.0627,0.2888,-0.2944,0.2956,0.1594,-0.2813,0.2867,-0.2903,-0.2661,0.2817,-0.477,-0.0288,-0.3087,-0.0628,0.0218,-1.0,-1.0,-0.4197,-1.0,1.0,0.2399,-1.0,0.9534,1.0,1.0,-1.0,1.0,-0.4672,-1.0,0.91,-1.0,-1.0,1.0,0.0,0.0,0.0,0.0,0.0,0.0,0.0,0.0,0.0,0.0,0.0,0.0,0.0,0
0.56,run,-6.12,2.29,-3.39,-19.64,7.55,0.0,0.0,0.0,0.247,-16.96,27.07,74.27,-16.35,10.55,87.45,-9.05,16.44,81.12,16.96,0.79,96.15,5.71,4.13,91.23,-17.23,1.23,96.15,-22.52,21.0,75.9,-22.5,18.55,85.39,-7.5,15.64,83.06,22.59,-5.1,101.6,-0.89,-0.69,96.04,-22.59,-5.01,102.3,-1.0,-1.0,0.784,-1.0,1.0,-1.0,0.0763,0.3155,1.0,1.0,-1.0,1.0,-0.0255,-1.0,0.6733,-0.8816,-1.0,0.6697,0.019,0.052,0.006,0.019,0.013,0.013,0.019,0.013,0.247,0.019,0.013,0.013,0.019,0.006,0.0,0.026,0.039,0.013,-0.27,0.1181,-0.0828,-0.2623,-0.1319,0.1703,-0.1427,-0.0506,0.0184,0.2684,-0.2654,0.2715,0.0997,-0.2316,0.1795,-0.273,-0.2577,0.2608,-0.2912,0.1817,-0.1082,-0.2996,-0.0014,0.0448,-0.2341,-0.0841,-0.1014,0.2942,-0.3039,0.299,0.1346,-0.289,0.2985,-0.301,-0.2783,0.2835,-0.5376,-0.0307,-0.309,0.0017,0.0424,-1.0,-0.3345,1.0,-1.0,1.0,1.0,0.1634,-0.1384,0.9215,1.0,-1.0,1.0,-0.7241,-1.0,0.7352,-1.0,-1.0,1.0,0.0,0.0,0.0,0.0,0.0,0.0,0.0,0.0,0.0,0.0,0.0,0.0,0.0,0
0.6,run,-5.87,1.57,9.78,-18.13,25.02,0.0,0.0,0.0,0.247,-18.37,27.07,73.74,-17.84,11.87,86.84,-9.67,16.17,79.98,18.37,-0.7,97.91,5.45,2.72,92.72,-18.72,-0.09,97.56,-24.02,19.5,77.4,-24.0,20.05,83.89,-9.0,17.14,84.56,24.09,-6.6,103.1,0.61,-2.19,94.54,-21.09,-6.51,100.8,-1.0,-1.0,0.7925,-1.0,0.8584,-1.0,-0.7848,1.0,1.0,1.0,-0.3098,1.0,0.2136,-0.3713,0.0585,1.0,-1.0,0.1239,0.033,0.006,0.013,0.013,0.006,0.019,0.006,0.0,0.013,0.026,0.006,0.006,0.006,0.006,0.0,0.013,0.026,0.013,-0.293,0.1243,-0.0966,-0.2853,-0.1135,0.1519,-0.158,-0.0537,-0.0077,0.2945,-0.2899,0.2976,0.1012,-0.2562,0.204,-0.2991,-0.2838,0.2853,-0.2902,0.1502,-0.1276,-0.2961,0.0681,-0.0378,-0.2214,-0.0704,-0.1689,0.3038,-0.3049,0.3072,0.1,-0.2944,0.3011,-0.3086,-0.2927,0.2906,-0.5585,-0.0966,-0.0591,-0.3427,0.1318,-1.0,-1.0,0.784,-1.0,1.0,-1.0,0.0763,0.3155,1.0,1.0,-1.0,1.0,-0.0255,-1.0,0.6733,-0.8816,-1.0,0.6697,0.0,0.0,0.0,0.0,0.0,0.0,0.0,0.0,0.0,0.0,0.0,0.0,0.0,0
0.64,run,-6.1,1.52,-3.2,-2.75,26.36,0.0,0.0,0.0,0.247,-19.69,26.89,73.56,-19.25,13.36,85.78,-9.93,16.17,79.72,19.69,-2.2,99.14,4.83,1.32,93.78,-20.21,-1.49,98.96,-25.52,18.0,75.9,-25.5,18.55,82.39,-7.5,18.64,86.06,25.59,-5.1,104.6,2.11,-0.69,93.04,-19.59,-8.01,99.3,-1.0,-1.0,-0.8732,-1.0,-0.9383,-1.0,0.6165,1.0,1.0,1.0,1.0,1.0,0.9518,1.0,-0.6922,1.0,-1.0,-0.3511,0.033,0.006,0.013,0.013,0.006,0.019,0.006,0.0,0.013,0.026,0.006,0.006,0.006,0.006,0.0,0.013,0.026,0.013,-0.3175,0.1243,-0.1058,-0.3114,-0.0905,0.1411,-0.1687,-0.0583,-0.0276,0.3191,-0.316,0.3283,0.0966,-0.2807,0.2301,-0.3252,-0.3068,0.3099,-0.2952,0.1052,-0.1238,-0.3051,0.134,-0.0667,-0.1953,-0.0666,-0.193,0.3047,-0.3112,0.3301,0.0527,-0.2982,0.3086,-0.3138,-0.2912,0.2954,-0.537,-0.1595,0.1707,-0.3164,0.4366,-1.0,-1.0,0.7925,-1.0,0.8584,-1.0,-0.7848,1.0,1.0,1.0,-0.3098,1.0,0.2136,-0.3713,0.0585,1.0,-1.0,0.1239,0.0,0.0,0.0,0.0,0.0,0.0,0.0,0.0,0.0,0.0,0.0,0.0,0.0,0
0.68,run,-7.35,1.91,-32.77,9.11,-1.05,0.0,0.0,0.0,0.247,-21.18,26.28,73.48,-20.65,14.59,84.73,-10.02,16.35,79.72,21.18,-3.6,100.37,3.78,-0.09,94.75,-21.18,-2.9,99.84,-27.02,16.5,77.4,-27.0,17.05,80.89,-6.0,20.14,87.56,27.09,-6.6,106.1,0.61,-2.19,91.54,-18.09,-9.51,97.8,-1.0,-0.4126,1.0,-1.0,-1.0,0.1014,1.0,1.0,1.0,1.0,-0.6613,1.0,-1.0,-1.0,-1.0,1.0,-1.0,0.1321,0.033,0.006,0.013,0.013,0.006,0.019,0.006,0.0,0.013,0.026,0.006,0.006,0.006,0.006,0.0,0.013,0.026,0.013,-0.3405,0.1212,-0.1089,-0.3359,-0.0644,0.1227,-0.1733,-0.0583,-0.0322,0.3421,-0.3421,0.3497,0.0859,-0.3053,0.2485,-0.3513,-0.3313,0.3344,-0.2929,0.0621,-0.0982,-0.3055,0.1915,-0.1157,-0.1539,-0.0466,-0.1524,0.2995,-0.3156,0.3116,-0.0033,-0.3007,0.285,-0.3174,-0.2958,0.2988,-0.5568,-0.1644,-0.0558,-0.048,0.4601,-1.0,-1.0,-0.8732,-1.0,-0.9383,-1.0,0.6165,1.0,1.0,1.0,1.0,1.0,0.9518,1.0,-0.6922,1.0,-1.0,-0.3511,0.0,0.0,0.0,0.0,0.0,0.0,0.0,0.0,0.0,0.0,0.0,0.0,0.0,0
0.72,run,-7.0,1.41,8.34,-14.96,-19.91,0.0,0.0,0.0,0.247,-22.68,25.31,73.74,-22.15,15.29,83.41,-9.76,17.23,79.89,22.59,-4.92,101.87,2.81,-1.14,95.45,-21.62,-4.31,101.07,-28.52,18.0,78.9,-28.5,18.55,79.39,-4.5,21.64,89.06,28.59,-8.1,107.6,-0.89,-3.69,90.04,-16.59,-11.01,96.3,-1.0,1.0,1.0,-1.0,1.0,-0.2117,-0.0099,1.0,1.0,1.0,-1.0,1.0,-1.0,-1.0,-0.174,1.0,-1.0,0.2167,0.033,0.0,0.006,0.026,0.013,0.0,0.026,0.026,0.006,0.026,0.0,0.0,0.019,0.0,0.006,0.0,0.033,0.006,-0.3666,0.1104,-0.1104,-0.3605,-0.043,0.1043,-0.1749,-0.0552,-0.0322,0.3682,-0.3666,0.3712,0.0675,-0.3298,0.2654,-0.3682,-0.3559,0.3497,-0.3028,0.0032,-0.0745,-0.3059,0.2146,-0.15,-0.1135,-0.0211,-0.1067,0.3075,-0.3129,0.2986,-0.0714,-0.3025,0.2628,-0.2855,-0.2991,0.2667,-0.6664,-0.1305,-0.572,0.159,-0.0183,-1.0,-0.4126,1.0,-1.0,-1.0,0.1014,1.0,1.0,1.0,1.0,-0.6613,1.0,-1.0,-1.0,-1.0,1.0,-1.0,0.1321,0.0,0.0,0.0,0.0,0.0,0.0,0.0,0.0,0.0,0.0,0.0,0.0,0.0,0
0.76,run,-7.18,2.01,-6.28,16.08,-22.24,0.0,0.0,0.0,0.247,-23.99,23.73,74.62,-23.55,17.49,82.27,-9.49,17.93,80.95,23.82,-5.89,103.18,1.58,-2.11,95.71,-22.15,-5.8,101.34,-30.02,16.5,80.4,-30.0,17.05,77.89,-6.0,23.14,90.56,30.09,-9.6,109.1,-2.39,-5.19,88.54,-15.09,-12.51,94.8,-1.0,-1.0,0.328,-1.0,-0.7422,-1.0,-1.0,1.0,1.0,1.0,0.279,1.0,-0.9799,-0.4037,0.1302,1.0,-1.0,-1.0,0.033,0.0,0.006,0.026,0.013,0.0,0.026,0.026,0.006,0.026,0.0,0.0,0.019,0.0,0.006,0.0,0.033,0.006,-0.3927,0.0936,-0.1058,-0.3866,-0.0307,0.0813,-0.1703,-0.0399,-0.0291,0.3927,-0.3896,0.3973,0.0506,-0.3482,0.2777,-0.3758,-0.3804,0.3712,-0.3094,-0.0608,-0.0349,-0.3115,0.1961,-0.1909,-0.0623,0.0425,-0.0632,0.3069,-0.305,0.3064,-0.113,-0.2805,0.2298,-0.2285,-0.3011,0.2669,-0.636,-0.1738,0.1456,-0.2611,-0.3476,-1.0,1.0,1.0,-1.0,1.0,-0.2117,-0.0099,1.0,1.0,1.0,-1.0,1.0,-1.0,-1.0,-0.174,1.0,-1.0,0.2167,0.0,0.0,0.0,0.0,0.0,0.0,0.0,0.0,0.0,0.0,0.0,0.0,0.0,0
0.8,run,-8.01,2.37,-20.95,8.59,-21.28,0.0,0.0,0.0,0.247,-25.4,22.41,75.59,-24.96,17.58,80.86,-8.26,19.16,82.09,25.14,-6.94,104.5,0.44,-3.25,95.8,-22.15,-7.21,101.6,-31.52,18.0,81.9,-31.5,15.55,79.39,-7.5,21.64,92.06,31.59,-11.1,107.6,-3.89,-6.69,90.04,-13.59,-14.01,93.3,-1.0,1.0,1.0,-1.0,-0.2726,1.0,-0.4714,0.1236,1.0,1.0,-1.0,-0.7359,-1.0,-1.0,1.0,1.0,-1.0,-0.8483,0.033,0.0,0.006,0.026,0.013,0.0,0.026,0.026,0.006,0.026,0.0,0.0,0.019,0.0,0.006,0.0,0.033,0.006,-0.4157,0.066,-0.0905,-0.4111,0.0077,0.0614,-0.1657,-0.0276,-0.0107,0.4142,-0.4065,0.4203,0.0291,-0.3651,0.2823,-0.385,-0.4065,0.3758,-0.3027,-0.146,0.033,-0.31,0.2809,-0.2084,-0.0264,0.0757,0.0247,0.2953,-0.2767,0.3007,-0.1595,-0.2596,0.1781,-0.1944,-0.3084,0.2041,-0.651,-0.1217,-0.1096,0.2807,-0.3882,-1.0,-1.0,0.328,-1.0,-0.7422,-1.0,-1.0,1.0,1.0,1.0,0.279,1.0,-0.9799,-0.4037,0.1302,1.0,-1.0,-1.0,0.0,0.0,0.0,0.0,0.0,0.0,0.0,0.0,0.0,0.0,0.0,0.0,0.0,0
0.84,run,-7.88,2.85,3.98,11.77,-13.49,0.0,0.0,0.0,0.247,-26.98,21.09,76.9,-26.37,17.84,79.63,-7.38,20.39,83.32,26.63,-8.17,105.73,-0.79,-4.48,95.45,-21.71,-8.61,101.6,-33.02,19.5,83.4,-33.0,14.05,77.89,-9.0,20.14,93.56,33.09,-12.6,106.1,-5.39,-8.19,91.54,-12.09,-15.51,91.8,-1.0,1.0,0.32,-1.0,0.6516,-1.0,-0.627,0.5496,1.0,1.0,-1.0,-0.847,-1.0,-1.0,0.755,1.0,-1.0,-1.0,0.019,0.0,0.006,0.019,0.0,0.0,0.019,0.039,0.006,0.026,0.006,0.013,0.026,0.0,0.033,0.006,0.033,0.019,-0.4403,0.043,-0.0736,-0.4357,0.0092,0.0368,-0.1442,-0.0061,0.0092,0.4372,-0.4249,0.4433,0.0092,-0.385,0.2838,-0.385,-0.431,0.3804,-0.304,-0.1885,0.0864,-0.3091,0.2024,-0.238,0.0622,0.1336,0.0921,0.293,-0.2628,0.2968,-0.1865,-0.2565,0.1304,-0.1361,-0.308,0.1601,-0.7234,-0.0896,-0.3656,0.15,-0.3714,-1.0,1.0,1.0,-1.0,-0.2726,1.0,-0.4714,0.1236,1.0,1.0,-1.0,-0.7359,-1.0,-1.0,1.0,1.0,-1.0,-0.8483,0.0,0.0,0.0,0.0,0.0,0.0,0.0,0.0,0.0,0.0,0.0,0.0,0.0,0
0.88,run,-7.81,3.24,2.33,9.32,-13.5,0.0,0.0,0.0,0.247,-28.39,19.78,78.31,-27.77,18.63,78.75,-6.86,21.09,84.73,28.12,-9.4,106.79,-2.02,-5.71,94.83,-20.83,-9.93,100.9,-34.52,21.0,81.9,-34.5,12.55,76.39,-10.5,18.64,95.06,34.59,-14.1,107.6,-6.89,-9.69,93.04,-10.59,-17.01,90.3,-1.0,0.9635,0.1728,-1.0,-0.6849,-1.0,-1.0,-1.0,1.0,1.0,-0.62,1.0,-1.0,-1.0,1.0,1.0,-1.0,-1.0,0.019,0.0,0.006,0.019,0.0,0.0,0.019,0.039,0.006,0.026,0.006,0.013,0.026,0.0,0.033,0.006,0.033,0.019,-0.4679,0.0199,-0.0506,-0.4602,0.0138,0.0153,-0.1289,0.0153,0.0307,0.4633,-0.4464,0.4648,-0.0123,-0.4065,0.2777,-0.3774,-0.4556,0.3804,-0.3163,-0.2182,0.1467,-0.3084,0.1589,-0.2471,0.101,0.174,0.145,0.3029,-0.2644,0.2883,-0.211,-0.2601,0.0683,-0.0665,-0.3076,0.1121,-0.7121,-0.0481,0.0694,0.2054,-0.2354,-1.0,1.0,0.32,-1.0,0.6516,-1.0,-0.627,0.5496,1.0,1.0,-1.0,-0.847,-1.0,-1.0,0.755,1.0,-1.0,-1.0,0.0,0.0,0.0,0.0,0.0,0.0,0.0,0.0,0.0,0.0,0.0,0.0,0.0,0
0.92,run,-8.39,3.39,-13.01,4.97,-16.62,0.0,0.0,0.0,0.247,-29.79,18.81,79.72,-29.18,18.19,78.05,-6.59,21.71,86.04,29.53,-10.63,107.49,-3.25,-7.03,94.13,-19.86,-11.34,99.93,-35.0,22.5,83.4,-35.0,11.05,74.89,-12.0,17.14,96.56,35.0,-15.6,106.1,-8.39,-11.19,94.54,-9.09,-18.51,88.8,-1.0,1.0,0.5127,-1.0,-0.5701,-1.0,-1.0,-0.6239,1.0,1.0,-0.3817,0.3095,-1.0,-1.0,1.0,1.0,-1.0,-1.0,0.019,0.0,0.006,0.019,0.0,0.0,0.019,0.039,0.006,0.026,0.006,0.013,0.026,0.0,0.033,0.006,0.033,0.019,-0.4924,-0.0031,-0.0261,-0.4847,0.0276,0.0,-0.1197,0.0276,0.0552,0.4893,-0.4679,0.4832,-0.0337,-0.428,0.2669,-0.362,-0.4786,0.3682,-0.3135,-0.2391,0.1948,-0.3079,0.163,-0.2305,0.1052,0.1678,0.1936,0.3098,-0.2657,0.2708,-0.2283,-0.2626,0.0075,0.011,-0.3016,0.0324,-0.7065,-0.0141,0.0406,0.1626,-0.2356,-1.0,0.9635,0.1728,-1.0,-0.6849,-1.0,-1.0,-1.0,1.0,1.0,-0.62,1.0,-1.0,-1.0,1.0,1.0,-1.0,-1.0,0.0,0.0,0.0,0.0,0.0,0.0,0.0,0.0,0.0,0.0,0.0,0.0,0.0,0
0.96,run,-8.62,3.54,-4.49,5.29,-12.78,0.0,0.0,0.0,0.247,-31.38,18.19,80.86,-30.59,17.49,77.08,-6.59,22.06,87.45,30.94,-11.95,107.84,-4.57,-8.35,93.43,-18.46,-12.74,98.7,-35.0,24.0,81.9,-35.0,12.55,73.39,-13.5,15.64,98.06,35.0,-17.1,104.6,-9.89,-12.69,96.04,-7.59,-20.01,87.3,-1.0,1.0,0.0186,-1.0,1.0,-0.5583,-1.0,0.1843,1.0,1.0,0.1123,-0.5629,-1.0,-1.0,1.0,1.0,-1.0,-1.0,0.006,0.0,0.0,0.013,0.026,0.019,0.0,0.033,0.013,0.026,0.0,0.0,0.039,0.0,0.033,0.019,0.039,0.026,-0.517,-0.0199,-0.0015,-0.5093,0.0199,-0.0123,-0.115,0.0383,0.0782,0.5139,-0.4893,0.4955,-0.0552,-0.451,0.2546,-0.3451,-0.5031,0.3513,-0.3115,-0.2306,0.2284,-0.3076,0.0853,-0.2074,0.0909,0.1578,0.2218,0.3089,-0.2665,0.2356,-0.2404,-0.2701,-0.0408,0.071,-0.3032,-0.0406,-0.7568,-0.0006,-0.2271,0.0868,-0.29,-1.0,1.0,0.5127,-1.0,-0.5701,-1.0,-1.0,-0.6239,1.0,1.0,-0.3817,0.3095,-1.0,-1.0,1.0,1.0,-1.0,-1.0,0.0,0.0,0.0,0.0,0.0,0.0,0.0,0.0,0.0,0.0,0.0,0.0,0.0,0
1.0,run,-9.09,3.66,-11.43,4.26,-12.51,0.0,0.0,0.0,0.247,-32.7,17.75,81.91,-31.99,16.52,75.94,-6.86,22.15,88.95,32.26,-13.27,107.84,-5.98,-9.76,92.9,-17.05,-14.15,97.38,-35.0,25.5,80.4,-35.0,14.05,71.89,-12.0,14.14,99.56,35.0,-15.6,103.1,-11.39,-14.19,97.54,-6.09,-21.51,85.8,-1.0,1.0,-0.0832,-1.0,1.0,-1.0,0.108,-1.0,1.0,1.0,1.0,-0.4352,-1.0,-1.0,1.0,1.0,-0.3557,-1.0,0.006,0.0,0.0,0.013,0.026,0.019,0.0,0.033,0.013,0.026,0.0,0.0,0.039,0.0,0.033,0.019,0.039,0.026,-0.5446,-0.0307,0.0184,-0.5338,0.0077,-0.0291,-0.115,0.0445,0.1028,0.5384,-0.5123,0.5016,-0.0782,-0.474,0.2424,-0.3206,-0.5277,0.3298,-0.3222,-0.202,0.2351,-0.3079,0.0134,-0.2088,0.0636,0.1336,0.2479,0.3089,-0.2734,0.1881,-0.2551,-0.2759,-0.0748,0.1423,-0.3049,-0.1095,-0.7767,0.0124,-0.0783,0.0924,-0.2231,-1.0,1.0,0.0186,-1.0,1.0,-0.5583,-1.0,0.1843,1.0,1.0,0.1123,-0.5629,-1.0,-1.0,1.0,1.0,-1.0,-1.0,0.0,0.0,0.0,0.0,0.0,0.0,0.0,0.0,0.0,0.0,0.0,0.0,0.0,0
1.04,run,-9.65,3.48,-14.82,-3.1,-14.04,0.0,0.002,0.0,0.247,-33.75,17.67,82.53,-33.13,15.38,74.71,-7.12,21.97,90.44,33.22,-14.68,107.49,-7.21,-11.25,92.81,-15.56,-15.47,95.98,-35.0,24.0,81.9,-35.0,15.55,70.39,-10.5,12.64,101.06,35.0,-14.1,101.6,-12.89,-15.69,99.04,-4.59,-20.01,84.3,-1.0,0.4638,0.5248,-1.0,1.0,-1.0,1.0,-1.0,1.0,1.0,1.0,-0.5276,-1.0,-1.0,1.0,1.0,0.9566,-1.0,0.006,0.0,0.0,0.013,0.026,0.019,0.0,0.033,0.013,0.026,0.0,0.0,0.039,0.0,0.033,0.019,0.039,0.026,-0.5676,-0.0383,0.0368,-0.5584,-0.0092,-0.0491,-0.1197,0.046,0.1289,0.5614,-0.5354,0.5016,-0.1028,-0.4985,0.2332,-0.2961,-0.5522,0.3068,-0.3116,-0.1701,0.2334,-0.3074,-0.0537,-0.2208,0.0273,0.0993,0.271,0.3023,-0.2774,0.1317,-0.2704,-0.2849,-0.0868,0.1914,-0.3052,-0.1627,-0.818,0.0228,-0.1994,0.0743,-0.2183,-1.0,1.0,-0.0832,-1.0,1.0,-1.0,0.108,-1.0,1.0,1.0,1.0,-0.4352,-1.0,-1.0,1.0,1.0,-0.3557,-1.0,0.0,0.0,0.0,0.0,0.0,0.0,0.0,0.0,0.0,0.0133,0.0,0.0133,0.0,0
1.08,run,-9.9,3.36,-7.7,-2.17,-14.61,0.0,0.004,0.0,0.247,-34.37,17.67,82.62,-33.93,14.33,73.3,-8.44,21.09,91.85,33.93,-15.73,106.88,-8.61,-12.66,92.99,-14.15,-16.88,94.57,-35.0,22.5,83.4,-35.0,17.05,68.89,-9.0,11.14,102.56,35.0,-12.6,100.1,-14.39,-17.19,100.54,-3.09,-18.51,82.8,-1.0,-0.8412,0.4198,-1.0,1.0,-1.0,1.0,-1.0,1.0,1.0,1.0,-1.0,-1.0,-1.0,1.0,1.0,1.0,-1.0,0.006,0.091,0.0,0.006,0.013,0.013,0.006,0.0,0.0,0.033,0.0,0.019,0.084,0.0,0.013,0.026,0.026,0.026,-0.586,-0.0399,0.0476,-0.5783,-0.0291,-0.0706,-0.1243,0.043,0.1549,0.5783,-0.5599,0.4955,-0.1243,-0.5246,0.2316,-0.27,-0.5752,0.2823,-0.2872,-0.1248,0.2037,-0.2899,-0.1124,-0.2351,0.0019,0.058,0.2875,0.2749,-0.2863,0.0692,-0.2698,-0.2973,-0.0665,0.2318,-0.2999,-0.2059,-0.8669,0.0072,-0.2587,-0.054,-0.245,-1.0,0.4638,0.5248,-1.0,1.0,-1.0,1.0,-1.0,1.0,1.0,1.0,-0.5276,-1.0,-1.0,1.0,1.0,0.9566,-1.0,0.0,0.0,0.0,0.0,0.0,0.0,0.0,0.0,0.0,0.0267,0.0,0.0267,0.0,0
1.12,run,-10.22,3.38,-9.63,2.41,-9.28,0.0,0.006,0.0,0.247,-34.8,17.75,83.06,-34.45,13.62,71.98,-9.14,20.21,93.25,34.28,-16.52,105.82,-10.02,-13.97,93.6,-12.83,-17.93,93.16,-35.0,21.0,84.9,-35.0,18.55,70.39,-7.5,9.64,104.06,35.0,-11.1,98.6,-15.89,-18.69,102.04,-1.59,-17.01,81.3,-1.0,-1.0,1.0,-1.0,1.0,1.0,1.0,-1.0,1.0,1.0,1.0,-0.3094,-1.0,-1.0,1.0,1.0,1.0,-1.0,0.006,0.091,0.0,0.006,0.013,0.013,0.006,0.0,0.0,0.033,0.0,0.019,0.084,0.0,0.013,0.026,0.026,0.026,-0.5967,-0.0399,0.0491,-0.5921,-0.0476,-0.0951,-0.1473,0.0276,0.1795,0.5906,-0.5783,0.4847,-0.1488,-0.5492,0.2347,-0.2454,-0.5998,0.2577,-0.2412,-0.0874,0.1483,-0.2547,-0.1476,-0.2565,-0.0849,-0.0169,0.2932,0.2384,-0.2693,0.0082,-0.2808,-0.3,-0.0351,0.2542,-0.3019,-0.2361,-0.8884,-0.0038,-0.1344,-0.0379,-0.255,-1.0,-0.8412,0.4198,-1.0,1.0,-1.0,1.0,-1.0,1.0,1.0,1.0,-1.0,-1.0,-1.0,1.0,1.0,1.0,-1.0,0.0,0.0,0.0,0.0,0.0,0.0,0.0,0.0,0.0,0.04,0.0,0.04,0.0,0
1.16,run,-10.15,3.12,1.88,-5.42,4.2,0.0,0.008,0.0,0.247,-34.8,18.28,83.23,-34.72,13.1,70.66,-9.76,18.81,94.75,34.45,-17.05,104.77,-11.51,-15.29,94.75,-11.43,-18.72,91.76,-35.0,19.5,86.4,-35.0,20.05,71.89,-6.0,8.14,105.56,35.0,-9.6,97.1,-17.39,-20.19,103.54,-0.09,-15.51,79.8,-1.0,-1.0,1.0,-1.0,1.0,1.0,1.0,-1.0,1.0,1.0,1.0,-0.4462,-1.0,-1.0,1.0,1.0,1.0,-1.0,0.006,0.091,0.0,0.006,0.013,0.013,0.006,0.0,0.0,0.033,0.0,0.019,0.084,0.0,0.013,0.026,0.026,0.026,-0.6044,-0.0383,0.0568,-0.6013,-0.0598,-0.1181,-0.1595,0.0123,0.204,0.5967,-0.5921,0.4663,-0.1733,-0.5722,0.2454,-0.2224,-0.6182,0.2332,-0.1977,-0.0554,0.1326,-0.2129,-0.1494,-0.266,-0.1055,-0.0695,0.2975,0.1899,-0.2404,-0.0634,-0.2888,-0.2965,0.0158,0.2644,-0.2805,-0.2575,-0.9165,-0.0017,-0.1681,0.042,-0.162,-1.0,-1.0,1.0,-1.0,1.0,1.0,1.0,-1.0,1.0,1.0,1.0,-0.3094,-1.0,-1.0,1.0,1.0,1.0,-1.0,0.0,0.0,0.0,0.0,0.0,0.0,0.0,0.0,0.0,0.0533,0.0,0.0533,0.0,0
1.2,run,-10.21,2.59,-4.07,-14.07,17.74,0.0,0.01,0.0,0.247,-34.8,18.9,83.67,-34.72,13.1,69.87,-9.93,17.4,96.15,34.54,-17.05,103.27,-13.1,-16.7,96.06,-9.93,-19.25,90.26,-35.0,18.0,87.9,-35.0,21.55,73.39,-4.5,6.64,107.06,35.0,-8.1,95.6,-18.89,-21.69,105.04,1.41,-14.01,78.3,-1.0,-1.0,1.0,-1.0,1.0,1.0,1.0,-1.0,1.0,1.0,1.0,-0.875,-1.0,-1.0,1.0,1.0,1.0,-1.0,0.0,0.182,0.013,0.006,0.0,0.0,0.0,0.0,0.0,0.019,0.019,0.026,0.026,0.0,0.019,0.019,0.013,0.019,-0.6044,-0.0291,0.0598,-0.6059,-0.069,-0.1411,-0.1703,-0.0123,0.2301,0.5998,-0.6013,0.4479,-0.1994,-0.5952,0.2654,-0.1979,-0.632,0.2086,-0.1384,-0.0043,0.1044,-0.1662,-0.1391,-0.2724,-0.1141,-0.1406,0.306,0.1444,-0.2028,-0.1134,-0.2999,-0.2938,0.0858,0.2771,-0.2481,-0.2722,-0.9103,-0.0246,0.0328,-0.0945,0.0733,-1.0,-1.0,1.0,-1.0,1.0,1.0,1.0,-1.0,1.0,1.0,1.0,-0.4462,-1.0,-1.0,1.0,1.0,1.0,-1.0,0.0,0.0,0.0,0.0,0.0,0.0,0.0,0.0,0.0,0.0667,0.0,0.0667,0.0,0
1.24,run,-10.44,1.88,-6.25,-15.9,16.77,0.0,0.012,0.0,0.247,-34.8,19.42,84.55,-34.8,13.18,69.17,-9.93,15.64,97.82,34.63,-17.05,101.43,-14.94,-18.37,97.82,-8.17,-19.42,88.59,-35.0,16.5,89.4,-35.0,23.05,74.89,-3.0,5.14,108.56,35.0,-6.6,94.1,-20.39,-23.19,106.54,2.91,-12.51,76.8,-1.0,-1.0,1.0,-1.0,1.0,1.0,1.0,-1.0,1.0,1.0,1.0,-1.0,-1.0,-1.0,1.0,1.0,1.0,-1.0,0.0,0.182,0.013,0.006,0.0,0.0,0.0,0.0,0.0,0.019,0.019,0.026,0.026,0.0,0.019,0.019,0.013,0.019,-0.6044,-0.0184,0.0675,-0.6059,-0.069,-0.1549,-0.1733,-0.0368,0.2546,0.6013,-0.6013,0.4218,-0.227,-0.6197,0.2884,-0.1718,-0.6412,0.1825,-0.0969,0.0372,0.1018,-0.1164,-0.0974,-0.2424,-0.0914,-0.1904,0.3061,0.1069,-0.1419,-0.1771,-0.3134,-0.2976,0.1463,0.2917,-0.2082,-0.2883,-0.9157,-0.0708,-0.071,-0.2456,0.3097,-1.0,-1.0,1.0,-1.0,1.0,1.0,1.0,-1.0,1.0,1.0,1.0,-0.875,-1.0,-1.0,1.0,1.0,1.0,-1.0,0.0,0.0,0.0,0.0,0.0,0.0,0.0,0.0,0.0,0.08,0.0,0.08,0.0,0
1.28,run,-10.22,1.46,6.69,-10.08,14.07,0.0,0.014,0.0,0.247,-34.8,19.42,85.52,-34.8,13.97,68.99,-9.76,14.24,99.14,34.8,-16.52,100.28,-16.44,-19.25,99.32,-6.86,-19.42,87.19,-35.0,15.0,90.9,-35.0,24.55,76.39,-1.5,3.64,110.06,35.0,-5.1,92.6,-21.89,-24.69,108.04,4.41,-11.01,75.3,-1.0,-1.0,1.0,-1.0,1.0,1.0,1.0,-1.0,1.0,1.0,1.0,-1.0,-1.0,-1.0,1.0,1.0,1.0,-0.7277,0.0,0.182,0.013,0.006,0.0,0.0,0.0,0.0,0.0,0.019,0.019,0.026,0.026,0.0,0.019,0.019,0.013,0.019,-0.6044,-0.0092,0.0828,-0.6075,-0.0675,-0.1672,-0.1733,-0.0675,0.2838,0.6029,-0.6013,0.3896,-0.2592,-0.6489,0.3191,-0.1411,-0.6443,0.1534,-0.0678,0.0548,0.1191,-0.0862,-0.0634,-0.208,-0.064,-0.2289,0.3052,0.0796,-0.0994,-0.2244,-0.3198,-0.2992,0.1981,0.2998,-0.1553,-0.2927,-0.9358,-0.1323,-0.1091,-0.2776,0.2926,-1.0,-1.0,1.0,-1.0,1.0,1.0,1.0,-1.0,1.0,1.0,1.0,-1.0,-1.0,-1.0,1.0,1.0,1.0,-1.0,0.0,0.0,0.0,0.0,0.0,0.0,0.0,0.0,0.0,0.0933,0.0,0.0933,0.0,0
1.32,run,-9.74,1.18,14.37,-7.05,14.85,0.0,0.016,0.0,0.247,-34.8,19.42,86.84,-34.8,15.12,69.17,-8.61,12.83,100.37,34.8,-15.56,98.96,-17.93,-20.92,100.9,-5.36,-18.9,85.69,-35.0,13.5,92.4,-35.0,26.05,77.89,0.0,2.14,111.56,35.0,-3.6,91.1,-23.39,-26.19,109.54,5.91,-9.51,76.8,-1.0,-1.0,1.0,-1.0,1.0,1.0,1.0,-1.0,0.7429,1.0,1.0,-1.0,-1.0,-1.0,1.0,1.0,1.0,0.363,0.006,0.039,0.019,0.006,0.013,0.013,0.006,0.0,0.0,0.006,0.078,0.078,0.013,0.013,0.013,0.019,0.013,0.019,-0.6044,-0.0092,0.0997,-0.6075,-0.0537,-0.1703,-0.1703,-0.092,0.3068,0.6059,-0.5921,0.3697,-0.2853,-0.6642,0.3451,-0.1181,-0.6443,0.1289,-0.0475,0.0383,0.146,-0.0604,0.0068,-0.157,-0.0334,-0.2513,0.299,0.0671,-0.0354,-0.2311,-0.3206,-0.2663,0.2354,0.2952,-0.1087,-0.2959,-0.9167,-0.1692,0.1167,-0.1759,0.2456,-1.0,-1.0,1.0,-1.0,1.0,1.0,1.0,-1.0,1.0,1.0,1.0,-1.0,-1.0,-1.0,1.0,1.0,1.0,-0.7277,0.0,0.0,0.0,0.0,0.0,0.0,0.0,0.0,0.0,0.1067,0.0,0.1067,0.0,0
1.36,run,-11.61,1.74,-11.6,3.61,-4.65,0.0,0.018,0.0,0.247,-33.75,15.82,92.11,-34.8,20.3,74.0,-2.55,6.68,106.52,34.89,-9.93,92.64,-23.55,-26.37,106.96,0.62,-13.54,80.16,-33.5,12.0,93.9,-35.0,27.55,79.39,1.5,0.64,113.06,35.0,-2.1,89.6,-24.89,-27.69,111.04,7.41,-8.01,78.3,-0.2863,-1.0,1.0,-1.0,1.0,1.0,1.0,-1.0,0.6359,1.0,1.0,-1.0,-1.0,-1.0,1.0,1.0,1.0,1.0,0.006,0.0,0.006,0.0,0.013,0.013,0.006,0.0,0.013,0.006,0.097,0.019,0.006,0.006,0.006,0.026,0.013,0.019,-0.6044,-0.0092,0.1227,-0.6075,-0.0337,-0.1672,-0.1503,-0.1166,0.3283,0.6059,-0.5752,0.3467,-0.3114,-0.6934,0.3728,-0.092,-0.6351,0.1028,-0.0332,0.0268,0.1884,-0.0423,0.0796,-0.0984,0.0514,-0.2679,0.2898,0.047,0.0385,-0.248,-0.3222,-0.2957,0.2683,0.3044,-0.0416,-0.3049,-0.8743,-0.1937,0.2508,-0.123,0.2592,-1.0,-1.0,1.0,-1.0,1.0,1.0,1.0,-1.0,0.7429,1.0,1.0,-1.0,-1.0,-1.0,1.0,1.0,1.0,0.363,0.0,0.0,0.0,0.0,0.0,0.0,0.0,0.0,0.0,0.12,0.0,0.12,0.0,0
1.4,run,-11.77,1.8,-9.66,2.13,3.16,0.0,0.02,0.0,0.247,-33.49,14.77,92.81,-34.8,21.8,75.32,-1.41,5.62,107.23,34.98,-8.96,91.58,-24.17,-26.89,108.19,1.76,-12.22,79.45,-35.0,10.5,92.4,-33.5,29.05,80.89,3.0,-0.86,114.56,35.0,-3.6,88.1,-26.39,-29.19,112.54,5.91,-6.51,79.8,-1.0,-1.0,-0.5851,1.0,1.0,1.0,1.0,-1.0,1.0,1.0,-1.0,-1.0,-1.0,-1.0,1.0,-1.0,1.0,1.0,0.006,0.0,0.006,0.0,0.013,0.013,0.006,0.0,0.013,0.006,0.097,0.019,0.006,0.006,0.006,0.026,0.013,0.019,-0.586,-0.0721,0.2148,-0.6075,0.0568,-0.0828,-0.0445,-0.224,0.4357,0.6075,-0.4771,0.2362,-0.4096,-0.7885,0.4786,0.0123,-0.5415,0.0061,-0.007,-0.0366,0.213,-0.0296,0.1355,0.0055,0.1293,-0.2822,0.2975,0.0342,0.1135,-0.271,-0.3121,-0.2908,0.2811,0.305,0.0534,-0.2986,-1.0377,-0.1451,-0.2025,0.063,-0.0811,-0.2863,-1.0,1.0,-1.0,1.0,1.0,1.0,-1.0,0.6359,1.0,1.0,-1.0,-1.0,-1.0,1.0,1.0,1.0,1.0,0.0,0.0,0.0,0.0,0.0,0.0,0.0,0.0,0.0,0.1333,0.0,0.1333,0.0,0
1.44,run,-11.59,1.5,1.44,-7.51,16.61,0.0,0.022,0.0,0.247,-33.49,13.71,93.34,-34.8,22.85,76.9,-0.26,4.31,108.81,35.24,-7.73,90.62,-24.7,-27.51,109.42,3.25,-10.9,78.93,-35.0,9.0,90.9,-32.0,30.0,82.39,4.5,-2.36,116.06,35.0,-5.1,86.6,-24.89,-30.69,114.04,4.41,-8.01,81.3,-1.0,-1.0,-1.0,1.0,1.0,1.0,1.0,-1.0,1.0,1.0,-1.0,-1.0,-0.2904,-1.0,1.0,-1.0,-1.0,1.0,0.006,0.0,0.006,0.0,0.013,0.013,0.006,0.0,0.013,0.006,0.097,0.019,0.006,0.006,0.006,0.026,0.013,0.019,-0.5814,-0.0905,0.227,-0.6075,0.0828,-0.0598,-0.0245,-0.2424,0.4479,0.609,-0.4602,0.2178,-0.4203,-0.7977,0.5001,0.0322,-0.5185,-0.0061,0.0152,-0.1062,0.2028,-0.0207,0.2089,0.1045,0.1778,-0.2781,0.262,0.0307,0.1533,-0.2702,-0.2654,-0.2439,0.2907,0.3008,0.1381,-0.2627,-1.0522,-0.1399,-0.1687,0.0372,0.0552,-1.0,-1.0,-0.5851,1.0,1.0,1.0,1.0,-1.0,1.0,1.0,-1.0,-1.0,-1.0,-1.0,1.0,-1.0,1.0,1.0,0.0,0.0,0.0,0.0,0.0,0.0,0.0,0.0,0.0,0.1467,0.0,0.1467,0.0,0
1.48,run,-12.17,1.15,-21.43,-12.91,16.41,0.0,0.024,0.0,0.247,-34.28,12.66,93.43,-34.63,24.08,77.96,0.88,2.9,110.39,35.16,-6.59,89.03,-25.22,-28.3,110.83,4.39,-9.76,78.66,-35.0,7.5,89.4,-30.5,28.5,83.89,6.0,-3.86,117.56,35.0,-6.6,85.1,-23.39,-32.19,115.54,2.91,-9.51,82.8,-1.0,-1.0,-1.0,1.0,-0.0414,1.0,1.0,-1.0,1.0,1.0,-1.0,-1.0,1.0,-1.0,1.0,-1.0,-1.0,1.0,0.006,0.0,0.006,0.013,0.078,0.019,0.006,0.006,0.019,0.006,0.189,0.019,0.006,0.019,0.006,0.013,0.006,0.0,-0.5814,-0.1089,0.2362,-0.6075,0.1012,-0.0322,-0.0046,-0.2654,0.4755,0.6136,-0.4387,0.201,-0.4295,-0.8084,0.5216,0.0583,-0.4955,-0.0153,0.0107,-0.1422,0.1759,-0.0145,0.2141,0.175,0.1979,-0.2795,0.2851,0.0384,0.1864,-0.2514,-0.2197,-0.2103,0.2827,0.3067,0.1814,-0.2178,-1.0358,-0.1655,0.0252,-0.1312,0.2898,-1.0,-1.0,-1.0,1.0,1.0,1.0,1.0,-1.0,1.0,1.0,-1.0,-1.0,-0.2904,-1.0,1.0,-1.0,-1.0,1.0,0.0,0.0,0.0,0.0,0.0,0.0,0.0,0.0,0.0,0.16,0.0,0.16,0.0,0
1.52,run,-12.47,1.36,-12.82,5.07,9.36,0.0,0.026,0.0,0.247,-34.45,11.16,93.43,-34.01,25.22,79.45,2.11,1.49,112.15,35.16,-6.06,87.71,-25.31,-29.44,112.06,5.19,-8.44,78.66,-35.0,6.0,87.9,-29.0,27.0,85.39,7.5,-5.36,119.06,35.0,-8.1,83.6,-21.89,-33.69,117.04,1.41,-11.01,84.3,-1.0,-1.0,-1.0,1.0,0.623,1.0,1.0,-0.589,1.0,1.0,-1.0,-1.0,1.0,-1.0,1.0,-1.0,-1.0,1.0,0.006,0.0,0.006,0.013,0.078,0.019,0.006,0.006,0.019,0.006,0.189,0.019,0.006,0.019,0.006,0.013,0.006,0.0,-0.5952,-0.1273,0.2378,-0.6044,0.1227,-0.0138,0.0153,-0.2899,0.5031,0.6121,-0.4188,0.1733,-0.4387,-0.8222,0.5461,0.0782,-0.4755,-0.0199,-0.0446,-0.169,0.1289,0.0014,0.2309,0.1919,0.2138,-0.2882,0.3037,0.0211,0.2057,-0.2801,-0.1885,-0.1993,0.2904,0.2899,0.2022,-0.1698,-1.0868,-0.196,-0.374,-0.2254,0.2865,-1.0,-1.0,-1.0,1.0,-0.0414,1.0,1.0,-1.0,1.0,1.0,-1.0,-1.0,1.0,-1.0,1.0,-1.0,-1.0,1.0,0.0,0.0,0.0,0.0,0.0,0.0,0.0,0.0,0.0,0.1733,0.0,0.1733,0.0,0
1.56,run,-12.24,0.67,4.92,-18.77,-6.71,0.0,0.028,0.0,0.247,-34.8,9.67,93.08,-33.05,26.1,80.77,3.16,0.09,113.64,35.16,-5.71,86.22,-24.96,-30.85,113.73,5.8,-7.82,79.19,-35.0,4.5,86.4,-27.5,25.5,86.89,9.0,-6.86,120.56,33.5,-9.6,82.1,-20.39,-35.19,118.54,-0.09,-12.51,85.8,-1.0,-1.0,-1.0,1.0,0.0626,1.0,1.0,-1.0,1.0,0.5758,-1.0,-1.0,1.0,-1.0,1.0,-1.0,-1.0,1.0,0.006,0.0,0.006,0.013,0.078,0.019,0.006,0.006,0.019,0.006,0.189,0.019,0.006,0.019,0.006,0.013,0.006,0.0,-0.5983,-0.1534,0.2378,-0.5937,0.1427,0.0123,0.0368,-0.3145,0.5338,0.6121,-0.4096,0.1503,-0.4403,-0.8422,0.5676,0.092,-0.4525,-0.0199,-0.0427,-0.2155,0.0902,0.041,0.236,0.2316,0.2297,-0.2933,0.327,0.0148,0.1783,-0.2819,-0.1377,-0.2138,0.2834,0.2544,0.2273,-0.1189,-1.1132,-0.1779,-0.2237,0.0885,0.1634,-1.0,-1.0,-1.0,1.0,0.623,1.0,1.0,-0.589,1.0,1.0,-1.0,-1.0,1.0,-1.0,1.0,-1.0,-1.0,1.0,0.0,0.0,0.0,0.0,0.0,0.0,0.0,0.0,0.0,0.1867,0.0,0.1867,0.0,0
1.6,run,-12.15,0.76,3.01,2.65,2.12,0.0,0.03,0.0,0.247,-34.8,8.44,91.76,-31.99,26.72,81.91,4.83,-1.23,114.61,34.98,-5.36,84.99,-24.35,-31.82,114.87,6.06,-7.73,79.98,-35.0,3.0,84.9,-26.0,24.0,88.39,10.5,-8.36,122.06,32.0,-11.1,80.6,-18.89,-36.69,120.04,-1.59,-14.01,87.3,-1.0,-1.0,-1.0,1.0,-1.0,1.0,1.0,-0.0496,1.0,0.3132,-1.0,-1.0,1.0,-1.0,1.0,-1.0,-1.0,1.0,0.006,0.0,0.019,0.013,0.084,0.065,0.013,0.0,0.026,0.039,0.143,0.0,0.0,0.006,0.006,0.006,0.0,0.033,-0.6044,-0.1795,0.2316,-0.5768,0.158,0.0353,0.0552,-0.339,0.5599,0.6121,-0.4034,0.1243,-0.4341,-0.8667,0.5967,0.1028,-0.4418,-0.0107,-0.0529,-0.2487,0.0401,0.092,0.2227,0.2484,0.2299,-0.2974,0.3268,0.0103,0.1479,-0.2952,-0.0734,-0.2418,0.3077,0.2184,0.1994,-0.0487,-1.0926,-0.2385,0.0859,-0.3277,-0.1171,-1.0,-1.0,-1.0,1.0,0.0626,1.0,1.0,-1.0,1.0,0.5758,-1.0,-1.0,1.0,-1.0,1.0,-1.0,-1.0,1.0,0.0,0.0,0.0,0.0,0.0,0.0,0.0,0.0,0.0,0.2,0.0,0.2,0.0,0
1.64,run,-12.35,0.08,-4.48,-13.96,4.66,0.0,0.032,0.0,0.247,-34.8,7.12,90.53,-31.2,27.16,83.14,6.24,-2.72,116.37,34.63,-5.36,83.41,-23.2,-33.57,116.54,5.89,-7.47,81.21,-35.0,1.5,83.4,-24.5,22.5,89.89,12.0,-9.86,123.56,30.5,-12.6,79.1,-17.39,-38.19,121.54,-3.09,-15.51,88.8,-1.0,-1.0,-1.0,1.0,-0.7657,1.0,1.0,-1.0,1.0,0.2462,-1.0,-1.0,1.0,-1.0,1.0,-1.0,-1.0,1.0,0.006,0.0,0.019,0.013,0.084,0.065,0.013,0.0,0.026,0.039,0.143,0.0,0.0,0.006,0.006,0.006,0.0,0.033,-0.6044,-0.201,0.2086,-0.5584,0.1687,0.0552,0.0844,-0.362,0.5768,0.609,-0.3973,0.1028,-0.4234,-0.8836,0.6167,0.1074,-0.4403,0.0031,-0.037,-0.2547,-0.0582,0.1335,0.1962,0.2487,0.2703,-0.2945,0.292,-0.0043,0.1265,-0.2872,-0.0111,-0.2326,0.2902,0.1701,0.1454,0.0177,-1.0847,-0.2308,0.0525,0.0463,0.0369,-1.0,-1.0,-1.0,1.0,-1.0,1.0,1.0,-0.0496,1.0,0.3132,-1.0,-1.0,1.0,-1.0,1.0,-1.0,-1.0,1.0,0.0,0.0,0.0,0.0,0.0,0.0,0.0,0.0,0.0,0.2133,0.0,0.2133,0.0,0
1.68,run,-12.81,-0.1,-11.07,-4.03,6.61,0.0,0.034,0.0,0.247,-34.89,5.8,89.12,-29.44,27.25,84.64,7.65,-4.22,117.86,34.01,-5.36,82.0,-22.06,-35.07,118.04,5.27,-7.56,82.79,-35.0,0.0,81.9,-23.0,21.0,91.39,13.5,-11.36,125.06,32.0,-14.1,77.6,-15.89,-39.69,123.04,-4.59,-17.01,90.3,-1.0,-1.0,-1.0,1.0,-1.0,1.0,1.0,0.2243,1.0,0.9628,-1.0,-1.0,1.0,-1.0,1.0,-1.0,-1.0,1.0,0.006,0.0,0.019,0.013,0.084,0.065,0.013,0.0,0.026,0.039,0.143,0.0,0.0,0.006,0.006,0.006,0.0,0.033,-0.6044,-0.224,0.1871,-0.5446,0.1764,0.0767,0.1089,-0.3881,0.6075,0.6029,-0.3973,0.0752,-0.4034,-0.9143,0.6458,0.1043,-0.4357,0.0245,-0.0259,-0.265,-0.1217,0.1455,0.1662,0.255,0.2817,-0.3044,0.32,-0.0261,0.0886,-0.3051,0.0674,-0.2784,0.313,0.1075,0.1191,0.0933,-1.1025,-0.2897,-0.0782,-0.2436,0.0813,-1.0,-1.0,-1.0,1.0,-0.7657,1.0,1.0,-1.0,1.0,0.2462,-1.0,-1.0,1.0,-1.0,1.0,-1.0,-1.0,1.0,0.0,0.0,0.0,0.0,0.0,0.0,0.0,0.0,0.0,0.2267,0.0,0.2267,0.0,0
1.72,run,-13.08,-0.34,-6.21,-2.8,3.74,0.0,0.036,0.0,0.247,-34.89,4.57,87.8,-28.04,27.25,85.96,9.05,-5.45,119.0,33.22,-5.54,80.51,-20.65,-35.95,118.92,4.31,-8.0,84.11,-35.0,-1.5,80.4,-21.5,19.5,92.89,15.0,-12.86,126.56,33.5,-15.6,76.1,-14.39,-41.19,124.54,-6.09,-18.51,91.8,-1.0,-1.0,-1.0,1.0,-0.9075,1.0,1.0,-0.1282,1.0,1.0,-1.0,-1.0,1.0,-1.0,1.0,-1.0,-1.0,1.0,0.0,0.013,0.026,0.026,0.006,0.078,0.013,0.006,0.019,0.13,0.0,0.0,0.013,0.019,0.013,0.006,0.019,0.019,-0.6059,-0.247,0.1626,-0.5139,0.1779,0.1028,0.1335,-0.4142,0.6335,0.5921,-0.3973,0.0506,-0.3835,-0.9403,0.6719,0.0936,-0.4372,0.0522,-0.0239,-0.2711,-0.1765,0.216,0.1221,0.2756,0.2885,-0.3101,0.3211,-0.0582,0.062,-0.3049,0.1214,-0.2919,0.3161,0.0353,0.0777,0.1681,-1.1429,-0.3058,-0.1932,-0.0703,0.1153,-1.0,-1.0,-1.0,1.0,-1.0,1.0,1.0,0.2243,1.0,0.9628,-1.0,-1.0,1.0,-1.0,1.0,-1.0,-1.0,1.0,0.0,0.0,0.0,0.0,0.0,0.0,0.0,0.0,0.0,0.24,0.0,0.24,0.0,0
1.76,run,-13.42,-0.91,-9.77,-13.38,4.4,0.0,0.038,0.0,0.247,-35.16,3.25,86.48,-26.63,27.16,87.28,10.46,-7.12,120.5,32.78,-6.77,79.19,-19.25,-37.71,120.59,3.08,-8.88,85.52,-35.0,-3.0,78.9,-20.0,18.0,94.39,16.5,-13.16,128.06,35.0,-17.1,74.6,-12.89,-42.69,126.04,-7.59,-20.01,93.3,-1.0,-1.0,-1.0,1.0,-1.0,1.0,1.0,0.2152,1.0,1.0,-1.0,-1.0,1.0,-1.0,1.0,-1.0,-1.0,1.0,0.0,0.013,0.026,0.026,0.006,0.078,0.013,0.006,0.019,0.13,0.0,0.0,0.013,0.019,0.013,0.006,0.019,0.019,-0.6059,-0.2684,0.1396,-0.4893,0.1779,0.1258,0.158,-0.4357,0.6535,0.5783,-0.4004,0.0245,-0.359,-0.9557,0.6872,0.0767,-0.4449,0.0752,-0.0167,-0.2705,-0.21,0.2434,0.0855,0.2793,0.2942,-0.2978,0.2997,-0.0926,0.0319,-0.3114,0.1772,-0.262,0.2789,-0.0387,0.0255,0.2041,-1.1661,-0.3268,-0.1083,-0.0488,0.0652,-1.0,-1.0,-1.0,1.0,-0.9075,1.0,1.0,-0.1282,1.0,1.0,-1.0,-1.0,1.0,-1.0,1.0,-1.0,-1.0,1.0,0.0,0.0,0.0,0.0,0.0,0.0,0.0,0.0,0.0,0.2533,0.0,0.2533,0.0,0
1.8,run,-13.65,-1.11,-8.01,-6.44,8.47,0.0,0.04,0.0,0.247,-35.24,1.85,85.17,-25.31,26.19,88.86,11.87,-8.44,121.9,32.43,-7.82,77.7,-17.84,-39.2,121.82,1.67,-10.2,87.01,-35.0,-4.5,77.4,-18.5,16.5,95.89,18.0,-11.66,129.56,35.0,-18.6,73.1,-11.39,-44.19,124.54,-9.09,-21.51,94.8,-1.0,-0.9907,-1.0,1.0,-1.0,1.0,1.0,1.0,1.0,1.0,-0.7205,-1.0,1.0,-1.0,0.6151,-1.0,-1.0,1.0,0.0,0.013,0.026,0.026,0.006,0.078,0.013,0.006,0.019,0.13,0.0,0.0,0.013,0.019,0.013,0.006,0.019,0.019,-0.6105,-0.2915,0.1166,-0.4648,0.1764,0.1488,0.1825,-0.4648,0.6796,0.5706,-0.4218,0.0015,-0.3344,-0.9863,0.7164,0.0552,-0.4602,0.0997,-0.029,-0.2761,-0.2338,0.263,0.054,0.2823,0.2985,-0.3184,0.3082,-0.0938,-0.0587,-0.3048,0.2166,-0.2991,0.3052,-0.1081,-0.04,0.2355,-1.1961,-0.3761,-0.1705,-0.2335,0.0768,-1.0,-1.0,-1.0,1.0,-1.0,1.0,1.0,0.2152,1.0,1.0,-1.0,-1.0,1.0,-1.0,1.0,-1.0,-1.0,1.0,0.0,0.0,0.0,0.0,0.0,0.0,0.0,0.0,0.0,0.2667,0.0,0.2667,0.0,0
1.84,run,-13.4,-0.71,3.53,9.32,9.06,0.0,0.042,0.0,0.247,-35.07,0.97,83.76,-23.91,24.96,90.26,13.27,-9.84,123.22,32.34,-9.14,76.38,-16.52,-40.43,123.05,0.35,-11.51,88.33,-35.0,-6.0,75.9,-17.0,15.0,97.39,19.5,-10.16,131.06,35.0,-20.1,71.6,-9.89,-45.69,126.04,-10.59,-23.01,96.3,-1.0,-0.5186,-1.0,1.0,-1.0,1.0,1.0,0.9274,1.0,1.0,-0.7722,-0.8383,1.0,-1.0,1.0,-1.0,-1.0,1.0,0.006,0.033,0.013,0.026,0.0,0.058,0.019,0.0,0.019,0.006,0.0,0.0,0.026,0.0,0.019,0.033,0.013,0.019,-0.6121,-0.316,0.0936,-0.4418,0.1595,0.1764,0.2071,-0.4878,0.7041,0.5645,-0.4403,-0.0245,-0.3099,-1.0124,0.7378,0.0307,-0.4832,0.1258,-0.0261,-0.2848,-0.2495,0.2699,-0.0251,0.3006,0.3005,-0.3087,0.3072,-0.0885,-0.1098,-0.3106,0.2432,-0.3066,0.2937,-0.1672,-0.1138,0.2621,-1.2158,-0.3933,-0.1397,-0.1124,0.1478,-1.0,-0.9907,-1.0,1.0,-1.0,1.0,1.0,1.0,1.0,1.0,-0.7205,-1.0,1.0,-1.0,0.6151,-1.0,-1.0,1.0,0.0,0.0,0.0,0.0,0.0,0.0,0.0,0.0,0.0,0.28,0.0,0.28,0.0,0
1.88,run,-13.59,0.07,-7.88,20.68,16.33,0.0,0.044,0.0,0.247,-34.8,-0.7,81.3,-22.59,23.55,91.85,14.68,-10.81,124.19,32.52,-10.37,75.15,-15.12,-42.01,124.19,-1.05,-13.1,89.74,-35.0,-7.5,74.4,-15.5,13.5,98.89,21.0,-8.66,132.56,35.0,-21.6,70.1,-8.39,-47.19,127.54,-12.09,-24.51,97.8,-1.0,-0.1406,-1.0,1.0,-1.0,1.0,1.0,0.4943,1.0,1.0,-1.0,-0.4868,1.0,-1.0,1.0,-1.0,-1.0,1.0,0.006,0.033,0.013,0.026,0.0,0.058,0.019,0.0,0.019,0.006,0.0,0.0,0.026,0.0,0.019,0.033,0.013,0.019,-0.609,-0.3313,0.069,-0.4172,0.1381,0.201,0.2316,-0.5123,0.7271,0.563,-0.4633,-0.0476,-0.2869,-1.0339,0.7593,0.0077,-0.5062,0.1488,-0.0067,-0.2569,-0.2667,0.281,-0.0981,0.3025,0.3024,-0.3081,0.3013,-0.0677,-0.1631,-0.3037,0.2565,-0.2952,0.2861,-0.2033,-0.1659,0.2697,-1.1939,-0.359,0.0616,0.1626,0.1582,-1.0,-0.5186,-1.0,1.0,-1.0,1.0,1.0,0.9274,1.0,1.0,-0.7722,-0.8383,1.0,-1.0,1.0,-1.0,-1.0,1.0,0.0,0.0,0.0,0.0,0.0,0.0,0.0,0.0,0.0,0.2933,0.0,0.2933,0.0,0
1.92,run,-13.99,-0.1,-9.85,-5.16,15.51,0.0,0.046,0.0,0.247,-34.8,-2.29,80.42,-21.09,22.15,93.43,16.08,-11.51,125.86,33.4,-11.6,73.65,-13.71,-43.59,125.6,-2.29,-14.59,91.14,-35.0,-6.0,72.9,-14.0,12.0,100.39,22.5,-10.16,134.06,35.0,-23.1,68.6,-6.89,-48.69,129.04,-13.59,-26.01,99.3,-1.0,1.0,-1.0,1.0,0.0105,1.0,1.0,0.0256,1.0,1.0,-1.0,-1.0,1.0,-1.0,1.0,-1.0,-1.0,1.0,0.006,0.033,0.013,0.026,0.0,0.058,0.019,0.0,0.019,0.006,0.0,0.0,0.026,0.0,0.019,0.033,0.013,0.019,-0.6044,-0.3605,0.0261,-0.3942,0.1135,0.2286,0.2562,-0.5292,0.744,0.566,-0.4847,-0.069,-0.2623,-1.0615,0.7793,-0.0169,-0.5338,0.1733,0.0126,-0.2897,-0.3486,0.2834,-0.1612,0.3158,0.3042,-0.2793,0.2746,-0.0358,-0.1951,-0.2936,0.2721,-0.3107,0.2755,-0.2349,-0.2203,0.2814,-1.2106,-0.2905,-0.1376,0.3609,0.285,-1.0,-0.1406,-1.0,1.0,-1.0,1.0,1.0,0.4943,1.0,1.0,-1.0,-0.4868,1.0,-1.0,1.0,-1.0,-1.0,1.0,0.0,0.0,0.0,0.0,0.0,0.0,0.0,0.0,0.0,0.3067,0.0,0.3067,0.0,0
1.96,run,-13.98,0.22,0.77,5.94,19.25,0.0,0.048,0.0,0.247,-34.89,-3.6,79.54,-19.69,20.74,94.83,17.49,-11.95,127.18,34.19,-12.92,72.33,-12.39,-45.0,126.47,-3.6,-15.91,92.46,-35.0,-7.5,71.4,-12.5,10.5,101.89,24.0,-8.66,132.56,35.0,-24.6,67.1,-5.39,-50.19,130.54,-15.09,-27.51,100.8,-1.0,-0.128,-1.0,1.0,-0.9273,1.0,1.0,1.0,0.4722,1.0,-1.0,-0.2674,1.0,-1.0,0.9958,-1.0,-1.0,1.0,0.006,0.006,0.033,0.039,0.0,0.045,0.019,0.013,0.039,0.0,0.0,0.006,0.045,0.006,0.033,0.039,0.006,0.026,-0.6044,-0.3881,0.0107,-0.3682,0.089,0.2562,0.2807,-0.5415,0.7731,0.5814,-0.5062,-0.0951,-0.2378,-1.0891,0.8038,-0.0383,-0.5599,0.1979,0.0088,-0.3057,-0.3012,0.2956,-0.2043,0.324,0.3044,-0.2412,0.3008,0.0321,-0.2166,-0.3027,0.2819,-0.3204,0.2843,-0.2444,-0.2514,0.2884,-1.246,-0.3051,-0.172,-0.0901,0.2706,-1.0,1.0,-1.0,1.0,0.0105,1.0,1.0,0.0256,1.0,1.0,-1.0,-1.0,1.0,-1.0,1.0,-1.0,-1.0,1.0,0.0,0.0,0.0,0.0,0.0,0.0,0.0,0.0,0.0,0.32,0.0,0.32,0.0,0
2.0,run,-14.27,0.77,-7.61,11.6,20.71,0.0,0.05,0.0,0.247,-34.89,-4.83,77.61,-18.28,19.34,96.15,18.9,-12.04,128.23,34.72,-14.24,70.93,-11.07,-46.41,127.71,-5.01,-17.4,93.78,-35.0,-6.0,69.9,-11.0,9.0,103.39,25.5,-7.16,131.06,35.0,-26.1,68.6,-3.89,-51.69,132.04,-16.59,-29.01,102.3,-1.0,1.0,-1.0,1.0,-0.541,1.0,1.0,0.9578,-0.186,1.0,-1.0,0.2438,1.0,-1.0,1.0,-1.0,-1.0,1.0,0.006,0.006,0.033,0.039,0.0,0.045,0.019,0.013,0.039,0.0,0.0,0.006,0.045,0.006,0.033,0.039,0.006,0.026,-0.6059,-0.4111,-0.0046,-0.3436,0.0644,0.2807,0.3053,-0.5492,0.7961,0.5952,-0.5292,-0.1181,-0.2148,-1.1137,0.8191,-0.0614,-0.5829,0.2209,0.0004,-0.3003,-0.2684,0.299,-0.2351,0.3189,0.3052,-0.1976,0.2969,0.0742,-0.238,-0.2982,0.2837,-0.3164,0.2566,-0.2574,-0.2623,0.2882,-1.2449,-0.2778,0.0135,0.1037,0.3359,-1.0,-0.128,-1.0,1.0,-0.9273,1.0,1.0,1.0,0.4722,1.0,-1.0,-0.2674,1.0,-1.0,0.9958,-1.0,-1.0,1.0,0.0,0.0,0.0,0.0,0.0,0.0,0.0,0.0,0.0,0.3333,0.0,0.3333,0.0,0
2.04,run,-14.53,1.17,-6.34,7.39,6.93,0.0,0.05,0.0,0.247,-34.89,-5.89,76.29,-16.88,17.93,97.56,20.21,-11.87,129.38,34.72,-15.47,69.61,-9.49,-48.08,129.11,-6.33,-18.9,95.1,-35.0,-4.5,68.4,-9.5,7.5,104.89,27.0,-5.66,129.56,35.0,-27.6,67.1,-2.39,-53.19,133.54,-18.09,-30.51,103.8,-1.0,1.0,-1.0,1.0,-0.0605,1.0,1.0,1.0,-0.837,1.0,-1.0,-0.1705,1.0,-1.0,1.0,-1.0,-1.0,1.0,0.006,0.006,0.033,0.039,0.0,0.045,0.019,0.013,0.039,0.0,0.0,0.006,0.045,0.006,0.033,0.039,0.006,0.026,-0.6059,-0.4326,-0.0383,-0.3191,0.0399,0.3037,0.3298,-0.5507,0.8145,0.6044,-0.5522,-0.1427,-0.1917,-1.1382,0.8406,-0.0859,-0.609,0.2439,0.0003,-0.2908,-0.3145,0.3014,-0.2566,0.3095,0.3057,-0.1441,0.2769,0.0865,-0.2529,-0.3008,0.2849,-0.3135,0.2602,-0.2723,-0.2814,0.2881,-1.2696,-0.2299,-0.1328,0.2025,0.3615,-1.0,1.0,-1.0,1.0,-0.541,1.0,1.0,0.9578,-0.186,1.0,-1.0,0.2438,1.0,-1.0,1.0,-1.0,-1.0,1.0,0.0,0.0,0.0,0.0,0.0,0.0,0.0,0.0,0.0,0.3333,0.0,0.3333,0.0,0
2.08,run,-14.64,2.15,-3.59,23.75,0.97,0.0,0.05,0.0,0.247,-34.89,-7.12,74.79,-15.64,16.61,98.88,21.53,-11.51,130.34,34.89,-16.88,68.55,-8.17,-49.48,130.25,-7.65,-20.39,96.42,-35.0,-3.0,66.9,-8.0,6.0,106.39,28.5,-4.16,128.06,35.0,-29.1,68.6,-0.89,-54.69,135.04,-19.59,-32.01,105.3,-1.0,1.0,-1.0,1.0,-0.1148,1.0,1.0,1.0,-1.0,1.0,-1.0,0.5494,1.0,-1.0,1.0,-1.0,-1.0,1.0,0.0,0.006,0.013,0.045,0.0,0.071,0.026,0.163,0.039,0.006,0.006,0.0,0.033,0.0,0.013,0.084,0.0,0.045,-0.6059,-0.451,-0.0614,-0.2945,0.0153,0.3283,0.3528,-0.5476,0.8345,0.6044,-0.5737,-0.1657,-0.1641,-1.1674,0.8652,-0.1089,-0.6351,0.2669,0.0002,-0.2733,-0.3073,0.3039,-0.2726,0.3096,0.3011,-0.0893,0.2694,0.0606,-0.2584,-0.2977,0.304,-0.3299,0.2751,-0.2778,-0.2958,0.2888,-1.2924,-0.195,-0.1106,0.129,0.1209,-1.0,1.0,-1.0,1.0,-0.0605,1.0,1.0,1.0,-0.837,1.0,-1.0,-0.1705,1.0,-1.0,1.0,-1.0,-1.0,1.0,0.0,0.0,0.0,0.0,0.0,0.0,0.0,0.0,0.0,0.3333,0.0,0.3333,0.0,0
2.12,run,-14.91,3.09,-8.28,22.82,1.85,0.0,0.05,0.0,0.247,-34.89,-7.38,73.39,-14.15,15.38,100.2,22.94,-10.55,130.78,34.89,-18.02,67.76,-6.86,-50.89,131.48,-9.05,-21.8,97.73,-35.0,-1.5,65.4,-6.5,4.5,107.89,30.0,-5.66,126.56,35.0,-30.6,70.1,0.61,-56.19,136.54,-21.09,-33.51,106.8,-1.0,1.0,-1.0,1.0,0.5282,1.0,1.0,-0.0412,-1.0,1.0,-1.0,0.9664,1.0,-1.0,1.0,-1.0,-1.0,1.0,0.0,0.006,0.013,0.045,0.0,0.071,0.026,0.163,0.039,0.006,0.006,0.0,0.033,0.0,0.013,0.084,0.0,0.045,-0.6059,-0.4725,-0.0874,-0.273,-0.0077,0.3513,0.3758,-0.5415,0.8514,0.6075,-0.5983,-0.1841,-0.1411,-1.1919,0.8851,-0.1319,-0.6611,0.2899,0.0002,-0.271,-0.3119,0.2925,-0.2762,0.3022,0.2962,-0.0397,0.2512,0.0538,-0.272,-0.2767,0.2982,-0.322,0.2666,-0.2798,-0.3038,0.2876,-1.3024,-0.109,-0.0626,0.4146,0.017,-1.0,1.0,-1.0,1.0,-0.1148,1.0,1.0,1.0,-1.0,1.0,-1.0,0.5494,1.0,-1.0,1.0,-1.0,-1.0,1.0,0.0,0.0,0.0,0.0,0.0,0.0,0.0,0.0,0.0,0.3333,0.0,0.3333,0.0,0
2.16,run,-14.92,4.17,-1.91,27.8,-5.53,0.0,0.05,0.0,0.247,-34.89,-7.47,71.54,-12.66,13.97,101.69,24.35,-9.32,131.04,34.89,-19.16,67.41,-5.27,-52.38,132.63,-10.37,-23.47,99.05,-35.0,0.0,63.9,-5.0,6.0,109.39,31.5,-7.16,125.06,35.0,-32.1,71.6,2.11,-57.69,138.04,-22.59,-35.01,108.3,-1.0,1.0,-1.0,1.0,0.9423,1.0,1.0,-0.2127,-1.0,1.0,-1.0,1.0,1.0,-1.0,1.0,-1.0,-1.0,1.0,0.0,0.006,0.013,0.045,0.0,0.071,0.026,0.163,0.039,0.006,0.006,0.0,0.033,0.0,0.013,0.084,0.0,0.045,-0.6059,-0.4771,-0.112,-0.247,-0.0291,0.3743,0.4004,-0.5246,0.859,0.6075,-0.6182,-0.1979,-0.1181,-1.2164,0.9066,-0.1565,-0.6857,0.3129,0.0001,-0.2069,-0.3103,0.3024,-0.2738,0.2977,0.2993,0.0354,0.2046,0.0376,-0.2651,-0.2454,0.2949,-0.3173,0.267,-0.2878,-0.3046,0.2875,-1.3261,-0.0272,-0.1445,0.3983,0.0323,-1.0,1.0,-1.0,1.0,0.5282,1.0,1.0,-0.0412,-1.0,1.0,-1.0,0.9664,1.0,-1.0,1.0,-1.0,-1.0,1.0,0.0,0.0,0.0,0.0,0.0,0.0,0.0,0.0,0.0,0.3333,0.0,0.3333,0.0,0
2.2,run,-15.08,5.01,-5.62,21.23,-7.63,0.0,0.05,0.0,0.247,-34.89,-7.12,70.31,-11.25,12.57,103.1,25.66,-8.17,131.04,34.89,-20.83,67.06,-3.96,-53.79,133.86,-11.69,-24.96,100.37,-35.0,1.5,62.4,-3.5,7.5,110.89,33.0,-8.66,123.56,35.0,-33.6,73.1,3.61,-59.19,139.54,-24.09,-36.51,109.8,-1.0,1.0,-1.0,1.0,1.0,1.0,1.0,-1.0,-1.0,1.0,-1.0,1.0,1.0,-1.0,1.0,-1.0,-1.0,1.0,0.0,0.006,0.006,0.033,0.0,0.071,0.033,0.123,0.006,0.0,0.006,0.0,0.026,0.0,0.065,0.136,0.0,0.065,-0.6059,-0.4786,-0.1442,-0.2209,-0.0537,0.4004,0.4249,-0.5031,0.8636,0.6075,-0.6381,-0.204,-0.0905,-1.2425,0.9265,-0.1795,-0.7148,0.3359,0.0001,-0.1506,-0.3374,0.309,-0.2833,0.3057,0.3011,0.1049,0.1604,0.0263,-0.26,-0.1947,0.3095,-0.3194,0.2613,-0.2873,-0.322,0.2871,-1.3268,0.067,-0.0333,0.4852,-0.0965,-1.0,1.0,-1.0,1.0,0.9423,1.0,1.0,-0.2127,-1.0,1.0,-1.0,1.0,1.0,-1.0,1.0,-1.0,-1.0,1.0,0.0,0.0,0.0,0.0,0.0,0.0,0.0,0.0,0.0,0.3333,0.0,0.3333,0.0,0
2.24,run,-14.91,5.58,1.66,14.6,-6.67,0.0,0.05,0.0,0.247,-34.89,-6.42,68.99,-9.67,11.16,104.5,27.07,-7.38,131.04,34.89,-22.32,67.32,-2.64,-55.2,135.09,-13.1,-26.37,101.6,-35.0,3.0,60.9,-5.0,9.0,112.39,34.5,-10.16,122.06,35.0,-35.1,74.6,5.11,-60.69,141.04,-25.59,-38.01,111.3,-1.0,1.0,-1.0,-0.1935,1.0,1.0,1.0,-1.0,-1.0,1.0,-1.0,1.0,1.0,-1.0,1.0,-1.0,-1.0,1.0,0.0,0.006,0.006,0.033,0.0,0.071,0.033,0.123,0.006,0.0,0.006,0.0,0.026,0.0,0.065,0.136,0.0,0.065,-0.6059,-0.4725,-0.1657,-0.1963,-0.0782,0.4249,0.4479,-0.4832,0.8636,0.6075,-0.6673,-0.2102,-0.0675,-1.2671,0.948,-0.2025,-0.7409,0.359,0.0001,-0.0824,-0.3168,0.3084,-0.2904,0.3061,0.2971,0.1483,0.1123,0.0184,-0.2913,-0.1593,0.303,-0.3157,0.2635,-0.2875,-0.3232,0.2873,-1.3403,0.1402,-0.098,0.3705,-0.1332,-1.0,1.0,-1.0,1.0,1.0,1.0,1.0,-1.0,-1.0,1.0,-1.0,1.0,1.0,-1.0,1.0,-1.0,-1.0,1.0,0.0,0.0,0.0,0.0,0.0,0.0,0.0,0.0,0.0,0.3333,0.0,0.3333,0.0,0
2.28,run,-15.05,6.01,-4.08,10.67,0.77,0.0,0.05,0.0,0.247,-34.89,-5.54,67.5,-8.35,9.84,105.91,28.48,-6.94,130.78,34.89,-23.73,68.03,-1.32,-56.69,136.41,-14.5,-27.86,103.01,-33.5,4.5,59.4,-6.5,10.5,113.89,35.0,-11.66,120.56,35.0,-36.6,76.1,6.61,-62.19,142.54,-27.09,-39.51,112.8,0.1856,1.0,-1.0,-1.0,1.0,1.0,1.0,-1.0,-1.0,1.0,-1.0,1.0,1.0,-1.0,1.0,-1.0,-1.0,1.0,0.0,0.006,0.006,0.033,0.0,0.071,0.033,0.123,0.006,0.0,0.006,0.0,0.026,0.0,0.065,0.136,0.0,0.065,-0.6059,-0.4602,-0.1887,-0.1687,-0.1028,0.4495,0.4725,-0.4694,0.8636,0.6075,-0.6934,-0.2056,-0.0445,-1.2916,0.9695,-0.227,-0.7655,0.3804,0.0,-0.0114,-0.3085,0.32,-0.2959,0.3069,0.3006,0.1559,0.0786,0.0129,-0.3023,-0.0942,0.2989,-0.3136,0.2655,-0.2938,-0.3189,0.2821,-1.326,0.1904,0.0291,0.2548,-0.1164,-1.0,1.0,-1.0,-0.1935,1.0,1.0,1.0,-1.0,-1.0,1.0,-1.0,1.0,1.0,-1.0,1.0,-1.0,-1.0,1.0,0.0,0.0,0.0,0.0,0.0,0.0,0.0,0.0,0.0,0.3333,0.0,0.3333,0.0,0
2.32,run,-15.21,5.94,-3.55,-2.01,-1.13,0.0,0.05,0.0,0.286,-34.89,-4.39,66.09,-7.21,8.79,107.31,29.88,-6.86,130.34,34.89,-25.14,68.99,0.09,-58.01,137.46,-15.91,-29.27,104.33,-32.0,6.0,58.58,-8.0,12.0,115.39,35.0,-13.16,119.06,35.0,-38.1,77.6,8.11,-63.69,144.04,-28.59,-41.01,114.3,1.0,1.0,-0.0755,-1.0,1.0,1.0,1.0,-1.0,-1.0,1.0,-1.0,1.0,1.0,-1.0,1.0,-1.0,-1.0,1.0,0.019,0.026,0.013,0.019,0.0,0.065,0.026,0.026,0.033,0.0,0.013,0.013,0.052,0.0,0.286,0.136,0.0,0.071,-0.6059,-0.4449,-0.2148,-0.1457,-0.1258,0.474,0.497,-0.4617,0.859,0.6075,-0.7179,-0.1933,-0.0215,-1.3177,0.9925,-0.2516,-0.7915,0.405,0.0,0.0493,-0.3133,0.3099,-0.293,0.3064,0.302,0.1377,0.0378,0.009,-0.3032,-0.0201,0.2951,-0.3168,0.2717,-0.2973,-0.3205,0.2891,-1.3378,0.2274,-0.0711,0.1862,0.0135,0.1856,1.0,-1.0,-1.0,1.0,1.0,1.0,-1.0,-1.0,1.0,-1.0,1.0,1.0,-1.0,1.0,-1.0,-1.0,1.0,0.0,0.0,0.0,0.0,0.0,0.0,0.0,0.0,0.0,0.3333,0.0,0.3333,0.0,0
2.36,run,-15.54,5.83,-7.31,-3.77,3.74,0.0,0.05,0.0,0.286,-34.1,-2.99,64.69,-6.15,8.0,108.81,31.29,-6.86,129.11,34.89,-26.46,70.22,1.49,-59.33,138.08,-17.4,-30.59,105.73,-30.5,7.5,60.08,-9.5,13.5,116.89,35.0,-14.66,117.56,35.0,-39.6,79.1,9.61,-65.19,142.54,-30.09,-42.51,115.8,1.0,1.0,0.5075,-1.0,1.0,1.0,1.0,0.0519,-1.0,1.0,-1.0,1.0,1.0,-1.0,0.5598,-1.0,-1.0,1.0,0.019,0.026,0.013,0.019,0.0,0.065,0.026,0.026,0.033,0.0,0.013,0.013,0.052,0.0,0.286,0.136,0.0,0.071,-0.6059,-0.4249,-0.2393,-0.1258,-0.1442,0.4985,0.5216,-0.4602,0.8514,0.6075,-0.7424,-0.1764,0.0031,-1.3407,1.0109,-0.2761,-0.8161,0.428,0.0,0.1093,-0.3114,0.2917,-0.2741,0.3065,0.3035,0.1022,-0.0023,0.0063,-0.3043,0.0492,0.2986,-0.3081,0.2592,-0.3002,-0.3164,0.2887,-1.3519,0.222,-0.0619,-0.0351,-0.0197,1.0,1.0,-0.0755,-1.0,1.0,1.0,1.0,-1.0,-1.0,1.0,-1.0,1.0,1.0,-1.0,1.0,-1.0,-1.0,1.0,0.0,0.0,0.0,0.0,0.0,0.0,0.0,0.0,0.0,0.3333,0.0,0.3333,0.0,0
2.4,run,-15.89,5.66,-7.91,-1.77,4.95,0.0,0.05,0.0,0.286,-33.22,-1.58,63.28,-5.45,7.56,110.21,32.43,-7.29,128.06,34.89,-27.95,71.63,2.99,-60.73,138.6,-18.81,-31.99,107.31,-29.0,9.0,61.58,-11.0,15.0,118.39,35.0,-16.16,116.06,35.0,-41.1,80.6,11.11,-66.69,141.04,-31.59,-44.01,117.3,1.0,1.0,0.6936,-1.0,1.0,1.0,1.0,-0.0328,-1.0,1.0,-1.0,1.0,1.0,-1.0,0.111,-1.0,-1.0,1.0,0.019,0.026,0.013,0.019,0.0,0.065,0.026,0.026,0.033,0.0,0.013,0.013,0.052,0.0,0.286,0.136,0.0,0.071,-0.5921,-0.4004,-0.2638,-0.1074,-0.158,0.5246,0.5461,-0.4602,0.8299,0.6075,-0.7655,-0.1549,0.0276,-1.3637,1.0216,-0.3022,-0.8391,0.4525,0.052,0.1689,-0.3104,0.2735,-0.2439,0.3128,0.3048,0.0715,-0.0825,0.0044,-0.2996,0.1153,0.3014,-0.3023,0.2219,-0.3083,-0.3081,0.2945,-1.3804,0.2116,-0.1276,-0.0659,0.0653,1.0,1.0,0.5075,-1.0,1.0,1.0,1.0,0.0519,-1.0,1.0,-1.0,1.0,1.0,-1.0,0.5598,-1.0,-1.0,1.0,0.0,0.0,0.0,0.0,0.0,0.0,0.0,0.0,0.0,0.3333,0.0,0.3333,0.0,0
2.44,run,-16.23,5.27,-10.82,-8.03,1.22,0.0,0.05,0.0,1.125,-32.26,-0.18,62.14,-5.1,7.38,111.71,33.31,-8.17,127.09,34.89,-29.36,73.04,4.39,-62.05,138.87,-20.3,-33.4,108.72,-27.5,10.5,63.08,-12.5,16.5,119.89,35.0,-14.66,114.56,35.0,-42.6,82.1,12.61,-68.19,139.54,-33.09,-45.51,118.8,1.0,1.0,0.8381,-1.0,1.0,1.0,1.0,0.3701,-1.0,1.0,-1.0,1.0,1.0,-1.0,0.2315,-1.0,-1.0,1.0,0.006,0.026,0.0,0.006,0.013,0.058,0.019,0.006,0.123,0.0,0.013,0.006,0.026,0.0,1.125,0.111,0.0,0.065,-0.5768,-0.3758,-0.2884,-0.0951,-0.1657,0.5492,0.566,-0.4679,0.8115,0.6075,-0.7915,-0.1304,0.0537,-1.3883,1.0308,-0.3267,-0.8636,0.4801,0.0937,0.2099,-0.3089,0.2373,-0.1993,0.3106,0.2878,0.0214,-0.1264,0.0031,-0.3071,0.1723,0.3084,-0.3032,0.1897,-0.3074,-0.3073,0.3092,-1.4111,0.1975,-0.138,-0.031,0.0864,1.0,1.0,0.6936,-1.0,1.0,1.0,1.0,-0.0328,-1.0,1.0,-1.0,1.0,1.0,-1.0,0.111,-1.0,-1.0,1.0,0.0,0.0,0.0,0.0,0.0,0.0,0.0,0.0,0.0,0.3333,0.0,0.3333,0.0,0
2.48,run,-16.53,5.25,-7.56,1.02,2.55,0.0,0.05,0.0,1.125,-30.76,1.23,61.17,-4.66,7.38,113.2,33.93,-9.32,125.95,34.89,-30.76,74.44,5.89,-63.37,138.87,-21.8,-34.8,110.21,-26.0,12.0,64.58,-14.0,18.0,121.39,35.0,-13.16,113.06,35.0,-44.1,83.6,14.11,-69.69,138.04,-34.59,-47.01,120.3,1.0,1.0,1.0,-1.0,1.0,0.8265,1.0,1.0,-1.0,1.0,-1.0,1.0,0.7043,-1.0,-0.1234,-1.0,-1.0,1.0,0.006,0.026,0.0,0.006,0.013,0.058,0.019,0.006,0.123,0.0,0.013,0.006,0.026,0.0,1.125,0.111,0.0,0.065,-0.5599,-0.3513,-0.3083,-0.089,-0.1687,0.5752,0.5814,-0.4832,0.7946,0.6075,-0.8161,-0.1058,0.0782,-1.4113,1.0354,-0.3528,-0.8882,0.5047,0.1291,0.2393,-0.2913,0.1892,-0.1511,0.3156,0.2592,-0.0428,-0.1521,0.0022,-0.3074,0.2131,0.3083,-0.2989,0.1501,-0.3134,-0.3076,0.3089,-1.4407,0.1633,-0.1889,-0.1401,0.0212,1.0,1.0,0.8381,-1.0,1.0,1.0,1.0,0.3701,-1.0,1.0,-1.0,1.0,1.0,-1.0,0.2315,-1.0,-1.0,1.0,0.0,0.0,0.0,0.0,0.0,0.0,0.0,0.0,0.0,0.3333,0.0,0.3333,0.0,0
2.52,run,-16.76,5.35,-5.95,2.84,-8.65,0.0,0.05,0.0,1.125,-29.53,2.64,60.56,-5.36,7.47,114.52,34.19,-10.72,124.89,34.89,-32.17,75.85,7.38,-64.69,138.87,-23.12,-36.21,111.62,-24.5,13.5,66.08,-15.5,19.5,119.89,35.0,-11.66,111.56,35.0,-45.6,85.1,12.61,-71.19,136.54,-35.0,-48.51,121.8,0.6097,1.0,1.0,-1.0,1.0,0.5783,1.0,0.6297,-1.0,1.0,-1.0,1.0,-0.0025,-1.0,-0.1267,-1.0,-1.0,1.0,0.006,0.026,0.0,0.006,0.013,0.058,0.019,0.006,0.123,0.0,0.013,0.006,0.026,0.0,1.125,0.111,0.0,0.065,-0.5338,-0.3267,-0.3252,-0.0813,-0.1687,0.6013,0.5921,-0.5031,0.7747,0.6075,-0.8406,-0.0813,0.1043,-1.4343,1.0354,-0.3789,-0.9127,0.5308,0.1877,0.2591,-0.2669,0.1611,-0.1058,0.3182,0.2215,-0.1043,-0.1808,0.0015,-0.3067,0.2407,0.3131,-0.2951,0.1051,-0.3167,-0.3068,0.3135,-1.4668,0.1619,-0.1319,0.0178,0.0445,1.0,1.0,1.0,-1.0,1.0,0.8265,1.0,1.0,-1.0,1.0,-1.0,1.0,0.7043,-1.0,-0.1234,-1.0,-1.0,1.0,0.0,0.0,0.0,0.0,0.0,0.0,0.0,0.0,0.0,0.3333,0.0,0.3333,0.0,0
2.56,run,-17.26,5.82,-11.71,12.79,-8.93,0.0,0.05,0.0,1.125,-28.12,3.96,60.29,-6.33,8.26,115.93,34.28,-11.87,123.57,34.89,-33.49,77.34,8.88,-66.09,138.87,-24.43,-37.71,113.03,-23.0,15.0,67.58,-17.0,21.0,118.39,35.0,-10.16,110.06,35.0,-47.1,86.6,11.11,-72.69,135.04,-35.0,-50.01,123.3,0.3947,1.0,1.0,-1.0,1.0,0.5459,1.0,1.0,-1.0,1.0,-1.0,1.0,-0.8724,-1.0,-0.2178,-1.0,-1.0,1.0,0.019,0.039,0.0,0.019,0.078,0.045,0.019,0.0,0.175,0.0,0.019,0.013,0.013,0.013,1.073,0.189,0.0,0.065,-0.5123,-0.3022,-0.3359,-0.0936,-0.1672,0.6243,0.5967,-0.5277,0.7563,0.6075,-0.8652,-0.0568,0.1304,-1.4573,1.0354,-0.4019,-0.9373,0.5553,0.212,0.2735,-0.2271,0.0667,-0.0683,0.3091,0.1723,-0.1652,-0.1957,0.0011,-0.3069,0.2606,0.3171,-0.2929,0.0736,-0.3081,-0.3069,0.3116,-1.4871,0.1698,-0.1039,0.0495,-0.151,0.6097,1.0,1.0,-1.0,1.0,0.5783,1.0,0.6297,-1.0,1.0,-1.0,1.0,-0.0025,-1.0,-0.1267,-1.0,-1.0,1.0,0.0,0.0,0.0,0.0,0.0,0.0,0.0,0.0,0.0,0.3333,0.0,0.3333,0.0,0
2.6,run,-17.69,6.14,-10.8,7.87,-9.71,0.0,0.05,0.0,1.125,-26.72,5.27,60.29,-7.47,9.32,117.07,34.28,-12.48,122.34,34.89,-34.89,78.75,10.11,-67.41,138.96,-25.75,-39.02,114.35,-21.5,16.5,69.08,-18.5,22.5,119.89,35.0,-11.66,108.56,35.0,-48.6,88.1,9.61,-74.19,133.54,-35.0,-51.51,124.8,-0.0163,1.0,1.0,-1.0,1.0,0.678,1.0,0.2231,-1.0,1.0,-1.0,1.0,-1.0,-1.0,-0.4767,-1.0,-1.0,1.0,0.019,0.039,0.0,0.019,0.078,0.045,0.019,0.0,0.175,0.0,0.019,0.013,0.013,0.013,1.073,0.189,0.0,0.065,-0.4878,-0.2792,-0.3405,-0.1104,-0.1534,0.6489,0.5983,-0.5476,0.7332,0.6075,-0.8882,-0.0307,0.1565,-1.4818,1.0354,-0.4249,-0.9633,0.5798,0.2408,0.2781,-0.1763,-0.0169,0.0042,0.3088,0.1264,-0.1907,-0.2236,0.0007,-0.3014,0.2806,0.3201,-0.2975,0.0515,-0.3023,-0.313,0.3105,-1.5308,0.2114,-0.2044,0.2232,-0.1558,0.3947,1.0,1.0,-1.0,1.0,0.5459,1.0,1.0,-1.0,1.0,-1.0,1.0,-0.8724,-1.0,-0.2178,-1.0,-1.0,1.0,0.0,0.0,0.0,0.0,0.0,0.0,0.0,0.0,0.0,0.3333,0.0,0.3333,0.0,0
2.64,run,-18.39,6.2,-18.88,3.68,-17.25,0.0,0.05,0.0,1.125,-25.31,6.68,60.56,-8.88,10.55,118.04,34.45,-13.01,120.94,34.89,-36.39,80.16,11.07,-68.82,138.96,-27.16,-40.52,115.66,-20.0,18.0,70.58,-20.0,24.0,118.39,35.0,-10.16,107.06,35.0,-50.1,89.6,8.11,-75.69,132.04,-35.0,-53.01,126.3,-0.2228,1.0,1.0,-1.0,1.0,0.1885,1.0,1.0,-1.0,1.0,-1.0,1.0,-1.0,-1.0,-0.3196,-1.0,-1.0,1.0,0.019,0.039,0.0,0.019,0.078,0.045,0.019,0.0,0.175,0.0,0.019,0.013,0.013,0.013,1.073,0.189,0.0,0.065,-0.4633,-0.2562,-0.3405,-0.1304,-0.135,0.6688,0.5983,-0.5584,0.7118,0.6075,-0.9127,-0.0061,0.1779,-1.5048,1.037,-0.4479,-0.9863,0.6029,0.2607,0.281,-0.1234,-0.0866,0.072,0.291,0.0885,-0.1738,-0.2371,0.0005,-0.3031,0.2885,0.3047,-0.2946,0.0418,-0.2979,-0.3055,0.3037,-1.5681,0.2394,-0.1885,0.1373,-0.1696,-0.0163,1.0,1.0,-1.0,1.0,0.678,1.0,0.2231,-1.0,1.0,-1.0,1.0,-1.0,-1.0,-0.4767,-1.0,-1.0,1.0,0.0,0.0,0.0,0.0,0.0,0.0,0.0,0.0,0.0,0.3333,0.0,0.3333,0.0,0
2.68,run,-19.08,5.97,-18.11,-3.39,-10.82,0.0,0.05,0.0,1.125,-23.82,8.09,61.26,-10.28,12.04,118.74,34.45,-13.01,119.53,34.89,-37.79,81.56,11.78,-70.22,138.96,-28.74,-41.66,116.98,-21.5,19.5,72.08,-21.5,25.5,116.89,35.0,-8.66,105.56,35.0,-51.6,91.1,6.61,-77.19,130.54,-35.0,-54.51,127.8,-1.0,1.0,1.0,-1.0,1.0,-0.5063,1.0,1.0,-1.0,1.0,-1.0,1.0,-1.0,-1.0,-1.0,-1.0,-1.0,1.0,0.013,0.058,0.039,0.019,0.084,0.026,0.013,0.0,0.175,0.0,0.019,0.013,0.013,0.013,0.117,0.13,0.019,0.123,-0.4387,-0.2316,-0.3359,-0.1549,-0.1135,0.6857,0.6013,-0.5676,0.6872,0.6075,-0.9388,0.0184,0.1948,-1.5294,1.037,-0.4725,-1.0124,0.6259,0.2748,0.289,-0.0691,-0.1529,0.1312,0.2672,0.0735,-0.1563,-0.2583,0.0004,-0.3102,0.2943,0.2767,-0.2985,0.0293,-0.3009,-0.3119,0.2991,-1.6295,0.2445,-0.3296,0.0643,-0.3011,-0.2228,1.0,1.0,-1.0,1.0,0.1885,1.0,1.0,-1.0,1.0,-1.0,1.0,-1.0,-1.0,-0.3196,-1.0,-1.0,1.0,0.0,0.0,0.0,0.0,0.0,0.0,0.0,0.0,0.0,0.3333,0.0,0.3333,0.0,0
2.72,run,-19.58,5.58,-13.97,-8.84,-9.39,0.0,0.05,0.0,1.125,-22.41,9.23,62.4,-11.6,13.45,119.18,34.45,-12.66,118.04,34.89,-39.29,82.88,12.3,-71.54,138.78,-30.23,-42.28,118.3,-23.0,21.0,73.58,-23.0,27.0,115.39,35.0,-7.16,104.06,35.0,-53.1,92.6,5.11,-78.69,129.04,-35.0,-56.01,129.3,-1.0,1.0,1.0,-1.0,1.0,-1.0,1.0,1.0,-1.0,1.0,-1.0,1.0,-1.0,-1.0,-1.0,-1.0,-1.0,1.0,0.013,0.058,0.039,0.019,0.084,0.026,0.013,0.0,0.175,0.0,0.019,0.013,0.013,0.013,0.117,0.13,0.019,0.123,-0.4126,-0.2071,-0.3237,-0.1795,-0.0874,0.698,0.6013,-0.5676,0.6627,0.6075,-0.9633,0.043,0.2071,-1.5539,1.037,-0.5001,-1.0324,0.6489,0.2896,0.2938,-0.0026,-0.1986,0.1891,0.2328,0.0514,-0.1094,-0.2723,0.0003,-0.3087,0.2975,0.2395,-0.3005,0.0205,-0.3136,-0.2927,0.2952,-1.6899,0.2245,-0.3161,-0.0591,-0.1889,-1.0,1.0,1.0,-1.0,1.0,-0.5063,1.0,1.0,-1.0,1.0,-1.0,1.0,-1.0,-1.0,-1.0,-1.0,-1.0,1.0,0.0,0.0,0.0,0.0,0.0,0.0,0.0,0.0,0.0,0.3333,0.0,0.3333,0.0,0
2.76,run,-20.33,5.22,-17.56,-10.84,-11.26,0.0,0.05,0.0,1.125,-21.53,10.28,63.81,-13.01,14.85,119.18,34.45,-12.04,116.72,34.89,-40.61,84.29,12.22,-73.04,137.99,-31.64,-43.42,119.71,-24.5,22.5,75.08,-24.5,28.5,113.89,35.0,-5.66,102.56,35.0,-54.6,94.1,3.61,-80.0,127.54,-35.0,-57.51,130.8,-1.0,1.0,1.0,-1.0,1.0,-1.0,1.0,1.0,-1.0,1.0,-1.0,1.0,-1.0,-1.0,-1.0,-1.0,-1.0,1.0,0.013,0.058,0.039,0.019,0.084,0.026,0.013,0.0,0.175,0.0,0.019,0.013,0.013,0.013,0.117,0.13,0.019,0.123,-0.3881,-0.1871,-0.3037,-0.2025,-0.0629,0.7056,0.6013,-0.5614,0.6366,0.6075,-0.9894,0.066,0.2163,-1.5769,1.0339,-0.5262,-1.0431,0.6719,0.2951,0.2807,0.0732,-0.2256,0.2247,0.1918,0.036,-0.0535,-0.2888,0.0002,-0.3142,0.2949,0.2023,-0.2969,0.0028,-0.3176,-0.2453,0.2932,-1.7337,0.19,-0.2438,-0.1543,-0.1638,-1.0,1.0,1.0,-1.0,1.0,-1.0,1.0,1.0,-1.0,1.0,-1.0,1.0,-1.0,-1.0,-1.0,-1.0,-1.0,1.0,0.0,0.0,0.0,0.0,0.0,0.0,0.0,0.0,0.0,0.3333,0.0,0.3333,0.0,0
2.8,run,-20.84,5.36,-14.22,4.5,-3.75,0.0,0.05,0.0,1.125,-20.83,11.25,65.21,-14.5,16.44,118.65,34.45,-10.81,115.14,34.8,-41.92,85.61,11.95,-74.44,137.02,-32.96,-46.05,121.55,-26.0,24.0,76.58,-26.0,30.0,112.39,35.0,-4.16,101.06,35.0,-56.1,95.6,2.11,-80.0,126.04,-35.0,-59.01,132.3,-1.0,1.0,1.0,-1.0,1.0,-1.0,1.0,1.0,-1.0,1.0,-1.0,1.0,-1.0,-1.0,-1.0,-1.0,-1.0,1.0,0.013,0.227,0.033,0.019,0.071,0.006,0.013,0.006,0.169,0.006,0.026,0.026,0.019,0.019,0.013,0.039,0.006,0.045,-0.3728,-0.1687,-0.2792,-0.227,-0.0383,0.7056,0.6013,-0.5507,0.6136,0.6075,-1.0124,0.0905,0.2148,-1.603,1.0201,-0.5507,-1.063,0.6964,0.2638,0.2652,0.1428,-0.2495,0.2488,0.1343,0.0252,0.0026,-0.288,0.0001,-0.3058,0.298,0.1359,-0.3051,-0.0495,-0.3139,-0.2461,0.2968,-1.7985,0.1584,-0.3066,-0.1892,-0.1966,-1.0,1.0,1.0,-1.0,1.0,-1.0,1.0,1.0,-1.0,1.0,-1.0,1.0,-1.0,-1.0,-1.0,-1.0,-1.0,1.0,0.0,0.0,0.0,0.0,0.0,0.0,0.0,0.0,0.0,0.3333,0.0,0.3333,0.0,0
2.84,run,-21.62,5.02,-22.66,-10.8,-1.64,0.0,0.05,0.0,1.125,-20.48,12.48,66.62,-15.82,17.84,117.95,34.45,-9.84,113.73,34.8,-43.33,87.01,10.99,-75.76,136.14,-33.75,-47.46,123.05,-27.5,25.5,78.08,-27.5,30.0,110.89,35.0,-2.66,99.56,35.0,-57.6,97.1,0.61,-80.0,124.54,-35.0,-60.51,130.8,-1.0,1.0,1.0,-1.0,1.0,-1.0,1.0,1.0,-1.0,1.0,-1.0,1.0,-1.0,-1.0,-1.0,-1.0,-1.0,0.7442,0.013,0.227,0.033,0.019,0.071,0.006,0.013,0.006,0.169,0.006,0.026,0.026,0.019,0.019,0.013,0.039,0.006,0.045,-0.3605,-0.1519,-0.2546,-0.2531,-0.0107,0.6964,0.6013,-0.5292,0.586,0.6059,-1.0354,0.1135,0.2102,-1.6276,1.0032,-0.5737,-1.1091,0.7286,0.2308,0.2491,0.1924,-0.2728,0.2781,0.0593,0.0176,0.0827,-0.3055,-0.0057,-0.3007,0.2952,0.0778,-0.306,-0.0982,-0.3063,-0.3455,0.329,-1.8434,0.1711,-0.2482,0.0785,-0.0654,-1.0,1.0,1.0,-1.0,1.0,-1.0,1.0,1.0,-1.0,1.0,-1.0,1.0,-1.0,-1.0,-1.0,-1.0,-1.0,1.0,0.0,0.0,0.0,0.0,0.0,0.0,0.0,0.0,0.0,0.3333,0.0,0.3333,0.0,0
2.88,run,-22.37,4.84,-20.37,-5.15,-4.09,0.0,0.05,0.0,1.125,-20.04,14.5,67.94,-17.31,19.42,116.81,34.45,-8.26,112.32,34.8,-44.74,88.42,9.93,-77.17,134.38,-34.28,-48.78,124.45,-29.0,24.0,79.58,-29.0,30.0,109.39,35.0,-1.16,98.06,35.0,-59.1,98.6,-0.89,-80.0,123.04,-35.0,-62.01,129.3,-1.0,0.7405,1.0,-1.0,1.0,-1.0,1.0,1.0,-1.0,1.0,-1.0,1.0,-1.0,-1.0,-1.0,-1.0,-1.0,-0.0955,0.013,0.227,0.033,0.019,0.071,0.006,0.013,0.006,0.169,0.006,0.026,0.026,0.019,0.019,0.013,0.039,0.006,0.045,-0.3543,-0.1304,-0.2301,-0.2761,0.0138,0.6842,0.6013,-0.5123,0.5614,0.6059,-1.06,0.1381,0.1933,-1.6506,0.9879,-0.5875,-1.1336,0.7547,0.1846,0.255,0.2268,-0.2774,0.2869,-0.0045,0.0124,0.1212,-0.306,-0.004,-0.3026,0.2988,-0.0089,-0.3006,-0.1263,-0.2663,-0.334,0.3282,-1.9114,0.1415,-0.3956,-0.1884,-0.0286,-1.0,1.0,1.0,-1.0,1.0,-1.0,1.0,1.0,-1.0,1.0,-1.0,1.0,-1.0,-1.0,-1.0,-1.0,-1.0,0.7442,0.0,0.0,0.0,0.0,0.0,0.0,0.0,0.0,0.0,0.3333,0.0,0.3333,0.0,0
2.92,run,-23.13,4.62,-19.31,-5.15,1.4,0.0,0.05,0.0,1.125,-20.74,16.08,69.17,-18.72,20.92,115.4,34.45,-6.86,110.83,34.8,-46.14,89.74,8.61,-78.22,133.07,-34.37,-50.27,125.86,-30.5,22.5,81.08,-30.5,30.0,107.89,35.0,0.34,96.56,35.0,-60.6,100.1,-2.39,-80.0,121.54,-33.5,-63.51,127.8,-1.0,0.7108,1.0,-1.0,1.0,-1.0,1.0,1.0,-1.0,1.0,-1.0,1.0,-1.0,-1.0,-1.0,-0.2108,-1.0,-1.0,0.006,0.084,0.065,0.019,0.052,0.0,0.013,0.006,0.163,0.006,0.033,0.045,0.006,0.013,0.019,0.013,0.0,0.039,-0.3467,-0.0951,-0.2071,-0.3022,0.0414,0.6642,0.6013,-0.4847,0.5369,0.6059,-1.0845,0.1626,0.1749,-1.6751,0.9572,-0.5967,-1.1566,0.7793,0.1579,0.3102,0.2446,-0.2915,0.3038,-0.0776,0.0086,0.1879,-0.3058,-0.0028,-0.3034,0.3007,-0.0749,-0.302,-0.2029,-0.2207,-0.3197,0.3214,-1.9771,0.1253,-0.3556,-0.0899,-0.0714,-1.0,0.7405,1.0,-1.0,1.0,-1.0,1.0,1.0,-1.0,1.0,-1.0,1.0,-1.0,-1.0,-1.0,-1.0,-1.0,-0.0955,0.0,0.0,0.0,0.0,0.0,0.0,0.0,0.0,0.0,0.3333,0.0,0.3333,0.0,0
2.96,run,-23.82,4.45,-19.24,-4.77,4.58,0.0,0.05,0.0,1.125,-21.45,17.58,70.49,-20.13,22.41,113.99,34.54,-5.45,109.42,34.8,-47.46,91.05,7.21,-79.1,131.66,-34.45,-51.77,127.0,-32.0,21.0,82.58,-32.0,30.0,106.39,35.0,1.84,95.06,35.0,-62.1,101.6,-3.89,-80.0,120.04,-32.0,-65.01,126.3,-1.0,0.4026,1.0,-1.0,1.0,-1.0,1.0,1.0,-1.0,1.0,-1.0,1.0,-1.0,-1.0,-1.0,1.0,-1.0,-1.0,0.006,0.084,0.065,0.019,0.052,0.0,0.013,0.006,0.163,0.006,0.033,0.045,0.006,0.013,0.019,0.013,0.0,0.039,-0.359,-0.0675,-0.1856,-0.3267,0.0675,0.6397,0.6013,-0.4602,0.5108,0.6059,-1.1091,0.1856,0.1519,-1.6935,0.9342,-0.5983,-1.1827,0.8038,0.0645,0.3207,0.2518,-0.296,0.3105,-0.1463,0.0061,0.2236,-0.3118,-0.002,-0.3044,0.2968,-0.1387,-0.2804,-0.2283,-0.1603,-0.3215,0.317,-2.0433,0.1065,-0.3371,-0.0899,0.0244,-1.0,0.7108,1.0,-1.0,1.0,-1.0,1.0,1.0,-1.0,1.0,-1.0,1.0,-1.0,-1.0,-1.0,-0.2108,-1.0,-1.0,0.0,0.0,0.0,0.0,0.0,0.0,0.0,0.0,0.0,0.3333,0.0,0.3333,0.0,0
3.0,run,-24.57,4.35,-17.66,-2.02,1.81,0.0,0.05,0.0,1.125,-22.41,18.72,71.81,-21.62,23.82,112.59,34.54,-4.04,108.02,34.8,-48.96,92.46,5.8,-79.63,130.25,-33.84,-53.09,127.97,-33.5,19.5,84.08,-33.5,30.0,104.89,35.0,3.34,93.56,35.0,-63.6,103.1,-5.39,-80.0,118.54,-30.5,-66.51,124.8,-1.0,-0.0079,1.0,-1.0,1.0,-1.0,1.0,1.0,-1.0,1.0,-1.0,1.0,-1.0,-1.0,-1.0,1.0,-1.0,-1.0,0.006,0.084,0.065,0.019,0.052,0.0,0.013,0.006,0.163,0.006,0.033,0.045,0.006,0.013,0.019,0.013,0.0,0.039,-0.3712,-0.0414,-0.1626,-0.3513,0.0936,0.6151,0.6029,-0.4357,0.4863,0.6059,-1.1321,0.2086,0.1273,-1.7089,0.9097,-0.5998,-1.2088,0.8237,-0.0011,0.3228,0.263,-0.2998,0.3156,-0.195,0.01,0.249,-0.3108,-0.0014,-0.2998,0.2945,-0.1896,-0.2541,-0.2524,-0.118,-0.3234,0.2971,-2.1031,0.0917,-0.3357,-0.0833,0.08,-1.0,0.4026,1.0,-1.0,1.0,-1.0,1.0,1.0,-1.0,1.0,-1.0,1.0,-1.0,-1.0,-1.0,1.0,-1.0,-1.0,0.0,0.0,0.0,0.0,0.0,0.0,0.0,0.0,0.0,0.3333,0.0,0.3333,0.0,0
3.04,run,-25.33,4.13,-14.95,-5.13,6.04,0.0,0.05,0.0,1.125,-24.08,19.86,73.65,-23.47,25.75,110.74,34.54,-2.11,105.56,34.8,-50.98,94.39,3.96,-79.8,128.32,-32.96,-54.93,128.67,-35.0,18.0,85.58,-35.0,30.0,103.39,35.0,4.84,92.06,35.0,-65.1,104.6,-6.89,-80.0,117.04,-29.0,-68.01,123.3,-1.0,0.2142,1.0,-1.0,1.0,-1.0,1.0,1.0,-1.0,1.0,-1.0,1.0,-1.0,-1.0,-1.0,1.0,-1.0,-1.0,0.039,0.078,0.078,0.019,0.045,0.006,0.006,0.013,0.084,0.006,0.019,0.045,0.013,0.006,0.013,0.0,0.006,0.006,-0.3881,-0.0215,-0.1396,-0.3774,0.1181,0.5906,0.6029,-0.4111,0.4617,0.6059,-1.1582,0.2332,0.1028,-1.7181,0.8851,-0.589,-1.2318,0.8406,-0.0637,0.3003,0.2698,-0.307,0.3124,-0.228,0.007,0.2658,-0.3091,-0.001,-0.3071,0.2976,-0.2242,-0.2122,-0.2681,-0.0426,-0.3121,0.2708,-2.1689,0.0825,-0.3082,-0.0352,0.0316,-1.0,-0.0079,1.0,-1.0,1.0,-1.0,1.0,1.0,-1.0,1.0,-1.0,1.0,-1.0,-1.0,-1.0,1.0,-1.0,-1.0,0.0,0.0,0.0,0.0,0.0,0.0,0.0,0.0,0.0,0.3333,0.0,0.3333,0.0,0
3.18,tail,-26.33,5.36,-7.12,9.6,14.13,,0.0,0.0,1.125,-25.75,17.49,73.74,-25.31,26.89,106.88,34.54,0.09,105.12,34.89,-53.61,95.19,0.62,-79.8,125.16,-30.32,-59.06,128.85,,,,,,,,,,,,,,,,,,,,,,,,,,,,,,,,,,,,,0.0,0.0,0.0,0.0,0.0,0.0,0.0,0.0,0.0,0.0,0.0,0.0,0.0,0.0,0.0,0.0,0.0,0.0,,,,,,,,,,,,,,,,,,,,,,,,,,,,,,,,,,,,,,,,,,,,,,,,,,,,,,,,,,,,,,,,,,,,,,,,,
3.28,tail,-26.33,5.79,-0.22,3.93,1.25,,0.0,0.0,1.125,-25.49,13.36,73.39,-25.31,26.89,107.14,34.54,-0.26,105.56,34.89,-53.53,93.43,0.62,-79.8,125.07,-30.32,-60.82,128.85,,,,,,,,,,,,,,,,,,,,,,,,,,,,,,,,,,,,,0.0,0.0,0.0,0.0,0.0,0.0,0.0,0.0,0.0,0.0,0.0,0.0,0.0,0.0,0.0,0.0,0.0,0.0,,,,,,,,,,,,,,,,,,,,,,,,,,,,,,,,,,,,,,,,,,,,,,,,,,,,,,,,,,,,,,,,,,,,,,,,,
3.38,tail,-26.32,5.75,0.02,-0.11,0.09,,0.0,0.0,1.125,-25.49,12.3,73.39,-25.31,26.81,107.31,34.54,-0.26,105.56,34.89,-53.53,93.25,0.62,-79.8,125.07,-30.32,-60.91,128.85,,,,,,,,,,,,,,,,,,,,,,,,,,,,,,,,,,,,,0.0,0.0,0.0,0.0,0.0,0.0,0.0,0.0,0.0,0.0,0.0,0.0,0.0,0.0,0.0,0.0,0.0,0.0,,,,,,,,,,,,,,,,,,,,,,,,,,,,,,,,,,,,,,,,,,,,,,,,,,,,,,,,,,,,,,,,,,,,,,,,,
3.48,tail,-26.34,5.74,-0.22,0.03,0.4,,0.0,0.0,1.125,-25.49,12.3,73.39,-25.31,26.81,107.31,34.54,-0.26,105.56,34.89,-53.53,93.16,0.62,-79.8,125.07,-30.32,-60.91,128.85,,,,,,,,,,,,,,,,,,,,,,,,,,,,,,,,,,,,,0.0,0.0,0.0,0.0,0.0,0.0,0.0,0.0,0.0,0.0,0.0,0.0,0.0,0.0,0.0,0.0,0.0,0.0,,,,,,,,,,,,,,,,,,,,,,,,,,,,,,,,,,,,,,,,,,,,,,,,,,,,,,,,,,,,,,,,,,,,,,,,,
3.58,tail,-26.34,5.72,-0.11,-0.01,0.32,,0.0,0.0,1.125,-25.49,12.3,73.39,-25.31,26.81,107.31,34.54,-0.26,105.56,34.89,-53.53,93.16,0.62,-79.8,125.07,-30.32,-60.91,128.85,,,,,,,,,,,,,,,,,,,,,,,,,,,,,,,,,,,,,0.0,0.0,0.0,0.0,0.0,0.0,0.0,0.0,0.0,0.0,0.0,0.0,0.0,0.0,0.0,0.0,0.0,0.0,,,,,,,,,,,,,,,,,,,,,,,,,,,,,,,,,,,,,,,,,,,,,,,,,,,,,,,,,,,,,,,,,,,,,,,,,
3.68,tail,-26.34,5.7,-0.14,-0.03,0.29,,0.0,0.0,1.125,-25.49,12.3,73.39,-25.31,26.81,107.31,34.54,-0.26,105.56,34.89,-53.53,93.16,0.62,-79.8,125.07,-30.32,-60.91,128.85,,,,,,,,,,,,,,,,,,,,,,,,,,,,,,,,,,,,,0.0,0.0,0.0,0.0,0.0,0.0,0.0,0.0,0.0,0.0,0.0,0.0,0.0,0.0,0.0,0.0,0.0,0.0,,,,,,,,,,,,,,,,,,,,,,,,,,,,,,,,,,,,,,,,,,,,,,,,,,,,,,,,,,,,,,,,,,,,,,,,,
3.78,tail,-26.35,5.69,-0.15,-0.06,0.31,,0.0,0.0,1.125,-25.49,12.3,73.39,-25.31,26.81,107.31,34.54,-0.26,105.56,34.89,-53.53,93.16,0.62,-79.8,125.07,-30.32,-60.91,128.85,,,,,,,,,,,,,,,,,,,,,,,,,,,,,,,,,,,,,0.0,0.0,0.0,0.0,0.0,0.0,0.0,0.0,0.0,0.0,0.0,0.0,0.0,0.0,0.0,0.0,0.0,0.0,,,,,,,,,,,,,,,,,,,,,,,,,,,,,,,,,,,,,,,,,,,,,,,,,,,,,,,,,,,,,,,,,,,,,,,,,
3.88,tail,-26.35,5.67,-0.12,0.03,0.27,,0.0,0.0,1.125,-25.49,12.3,73.39,-25.31,26.81,107.31,34.54,-0.26,105.56,34.89,-53.53,93.16,0.62,-79.8,125.07,-30.32,-60.91,128.85,,,,,,,,,,,,,,,,,,,,,,,,,,,,,,,,,,,,,0.0,0.0,0.0,0.0,0.0,0.0,0.0,0.0,0.0,0.0,0.0,0.0,0.0,0.0,0.0,0.0,0.0,0.0,,,,,,,,,,,,,,,,,,,,,,,,,,,,,,,,,,,,,,,,,,,,,,,,,,,,,,,,,,,,,,,,,,,,,,,,,
3.98,tail,-26.36,5.66,-0.11,0.01,0.25,,0.0,0.0,1.125,-25.49,12.3,73.39,-25.31,26.81,107.31,34.54,-0.26,105.56,34.89,-53.53,93.16,0.62,-79.8,125.07,-30.32,-60.91,128.85,,,,,,,,,,,,,,,,,,,,,,,,,,,,,,,,,,,,,0.0,0.0,0.0,0.0,0.0,0.0,0.0,0.0,0.0,0.0,0.0,0.0,0.0,0.0,0.0,0.0,0.0,0.0,,,,,,,,,,,,,,,,,,,,,,,,,,,,,,,,,,,,,,,,,,,,,,,,,,,,,,,,,,,,,,,,,,,,,,,,,
4.08,tail,-26.36,5.65,-0.12,-0.0,0.25,,0.0,0.0,1.125,-25.49,12.3,73.39,-25.31,26.81,107.31,34.54,-0.26,105.56,34.89,-53.53,93.16,0.62,-79.8,125.07,-30.32,-60.91,128.85,,,,,,,,,,,,,,,,,,,,,,,,,,,,,,,,,,,,,0.0,0.0,0.0,0.0,0.0,0.0,0.0,0.0,0.0,0.0,0.0,0.0,0.0,0.0,0.0,0.0,0.0,0.0,,,,,,,,,,,,,,,,,,,,,,,,,,,,,,,,,,,,,,,,,,,,,,,,,,,,,,,,,,,,,,,,,,,,,,,,,
4.18,tail,-26.37,5.64,-0.11,0.07,0.19,,0.0,0.0,1.125,-25.49,12.3,73.39,-25.31,26.81,107.31,34.54,-0.26,105.56,34.89,-53.53,93.16,0.62,-79.8,125.07,-30.32,-60.91,128.85,,,,,,,,,,,,,,,,,,,,,,,,,,,,,,,,,,,,,0.0,0.0,0.0,0.0,0.0,0.0,0.0,0.0,0.0,0.0,0.0,0.0,0.0,0.0,0.0,0.0,0.0,0.0,,,,,,,,,,,,,,,,,,,,,,,,,,,,,,,,,,,,,,,,,,,,,,,,,,,,,,,,,,,,,,,,,,,,,,,,,
4.28,tail,-26.37,5.63,-0.15,0.02,0.29,,0.0,0.0,1.125,-25.49,12.3,73.39,-25.31,26.81,107.31,34.54,-0.26,105.56,34.89,-53.53,93.16,0.62,-79.8,125.07,-30.32,-60.91,128.85,,,,,,,,,,,,,,,,,,,,,,,,,,,,,,,,,,,,,0.0,0.0,0.0,0.0,0.0,0.0,0.0,0.0,0.0,0.0,0.0,0.0,0.0,0.0,0.0,0.0,0.0,0.0,,,,,,,,,,,,,,,,,,,,,,,,,,,,,,,,,,,,,,,,,,,,,,,,,,,,,,,,,,,,,,,,,,,,,,,,,
4.38,tail,-26.38,5.63,-0.12,0.01,0.22,,0.0,0.0,1.125,-25.49,12.3,73.39,-25.31,26.81,107.31,34.54,-0.26,105.56,34.89,-53.53,93.16,0.62,-79.8,125.07,-30.32,-60.91,128.85,,,,,,,,,,,,,,,,,,,,,,,,,,,,,,,,,,,,,0.0,0.0,0.0,0.0,0.0,0.0,0.0,0.0,0.0,0.0,0.0,0.0,0.0,0.0,0.0,0.0,0.0,0.0,,,,,,,,,,,,,,,,,,,,,,,,,,,,,,,,,,,,,,,,,,,,,,,,,,,,,,,,,,,,,,,,,,,,,,,,,
4.48,tail,-26.38,5.62,-0.13,-0.0,0.22,,0.0,0.0,1.125,-25.49,12.3,73.39,-25.31,26.81,107.31,34.54,-0.26,105.56,34.89,-53.53,93.16,0.62,-79.8,125.07,-30.32,-60.91,128.85,,,,,,,,,,,,,,,,,,,,,,,,,,,,,,,,,,,,,0.0,0.0,0.0,0.0,0.0,0.0,0.0,0.0,0.0,0.0,0.0,0.0,0.0,0.0,0.0,0.0,0.0,0.0,,,,,,,,,,,,,,,,,,,,,,,,,,,,,,,,,,,,,,,,,,,,,,,,,,,,,,,,,,,,,,,,,,,,,,,,,
4.58,tail,-26.39,5.6,-0.13,-0.02,0.2,,0.0,0.0,1.125,-25.49,12.3,73.39,-25.31,26.81,107.31,34.54,-0.26,105.56,34.89,-53.53,93.16,0.62,-79.8,125.07,-30.32,-60.91,128.85,,,,,,,,,,,,,,,,,,,,,,,,,,,,,,,,,,,,,0.0,0.0,0.0,0.0,0.0,0.0,0.0,0.0,0.0,0.0,0.0,0.0,0.0,0.0,0.0,0.0,0.0,0.0,,,,,,,,,,,,,,,,,,,,,,,,,,,,,,,,,,,,,,,,,,,,,,,,,,,,,,,,,,,,,,,,,,,,,,,,,
4.68,tail,-26.4,5.59,-0.12,0.02,0.17,,0.0,0.0,1.125,-25.49,12.3,73.39,-25.31,26.81,107.31,34.54,-0.26,105.56,34.89,-53.53,93.16,0.62,-79.8,125.07,-30.32,-60.91,128.85,,,,,,,,,,,,,,,,,,,,,,,,,,,,,,,,,,,,,0.0,0.0,0.0,0.0,0.0,0.0,0.0,0.0,0.0,0.0,0.0,0.0,0.0,0.0,0.0,0.0,0.0,0.0,,,,,,,,,,,,,,,,,,,,,,,,,,,,,,,,,,,,,,,,,,,,,,,,,,,,,,,,,,,,,,,,,,,,,,,,,
4.78,tail,-26.4,5.58,-0.09,-0.02,0.19,,0.0,0.0,1.125,-25.49,12.3,73.39,-25.31,26.81,107.31,34.54,-0.26,105.56,34.89,-53.53,93.16,0.62,-79.8,125.07,-30.32,-60.91,128.85,,,,,,,,,,,,,,,,,,,,,,,,,,,,,,,,,,,,,0.0,0.0,0.0,0.0,0.0,0.0,0.0,0.0,0.0,0.0,0.0,0.0,0.0,0.0,0.0,0.0,0.0,0.0,,,,,,,,,,,,,,,,,,,,,,,,,,,,,,,,,,,,,,,,,,,,,,,,,,,,,,,,,,,,,,,,,,,,,,,,,
4.88,tail,-26.4,5.57,-0.14,0.04,0.22,,0.0,0.0,1.125,-25.49,12.3,73.39,-25.31,26.81,107.31,34.54,-0.26,105.56,34.89,-53.53,93.16,0.62,-79.8,125.07,-30.32,-60.91,128.85,,,,,,,,,,,,,,,,,,,,,,,,,,,,,,,,,,,,,0.0,0.0,0.0,0.0,0.0,0.0,0.0,0.0,0.0,0.0,0.0,0.0,0.0,0.0,0.0,0.0,0.0,0.0,,,,,,,,,,,,,,,,,,,,,,,,,,,,,,,,,,,,,,,,,,,,,,,,,,,,,,,,,,,,,,,,,,,,,,,,,
4.98,tail,-26.41,5.56,-0.11,0.03,0.19,,0.0,0.0,1.125,-25.49,12.3,73.39,-25.31,26.81,107.31,34.54,-0.26,105.56,34.89,-53.53,93.16,0.62,-79.8,125.07,-30.32,-60.91,128.85,,,,,,,,,,,,,,,,,,,,,,,,,,,,,,,,,,,,,0.0,0.0,0.0,0.0,0.0,0.0,0.0,0.0,0.0,0.0,0.0,0.0,0.0,0.0,0.0,0.0,0.0,0.0,,,,,,,,,,,,,,,,,,,,,,,,,,,,,,,,,,,,,,,,,,,,,,,,,,,,,,,,,,,,,,,,,,,,,,,,,
5.08,tail,-26.41,5.55,-0.1,0.02,0.19,,0.0,0.0,1.125,-25.49,12.3,73.39,-25.31,26.81,107.31,34.54,-0.26,105.56,34.89,-53.53,93.16,0.62,-79.8,125.07,-30.32,-60.91,128.85,,,,,,,,,,,,,,,,,,,,,,,,,,,,,,,,,,,,,0.0,0.0,0.0,0.0,0.0,0.0,0.0,0.0,0.0,0.0,0.0,0.0,0.0,0.0,0.0,0.0,0.0,0.0,,,,,,,,,,,,,,,,,,,,,,,,,,,,,,,,,,,,,,,,,,,,,,,,,,,,,,,,,,,,,,,,,,,,,,,,,
5.18,tail,-26.42,5.54,-0.15,0.0,0.18,,0.0,0.0,1.125,-25.49,12.3,73.39,-25.31,26.81,107.31,34.54,-0.26,105.56,34.89,-53.53,93.16,0.62,-79.8,125.07,-30.32,-60.91,128.85,,,,,,,,,,,,,,,,,,,,,,,,,,,,,,,,,,,,,0.0,0.0,0.0,0.0,0.0,0.0,0.0,0.0,0.0,0.0,0.0,0.0,0.0,0.0,0.0,0.0,0.0,0.0,,,,,,,,,,,,,,,,,,,,,,,,,,,,,,,,,,,,,,,,,,,,,,,,,,,,,,,,,,,,,,,,,,,,,,,,,
5.28,tail,-26.42,5.54,-0.14,0.03,0.23,,0.0,0.0,1.125,-25.49,12.3,73.39,-25.31,26.81,107.31,34.54,-0.26,105.56,34.89,-53.53,93.16,0.62,-79.8,125.07,-30.32,-60.91,128.85,,,,,,,,,,,,,,,,,,,,,,,,,,,,,,,,,,,,,0.0,0.0,0.0,0.0,0.0,0.0,0.0,0.0,0.0,0.0,0.0,0.0,0.0,0.0,0.0,0.0,0.0,0.0,,,,,,,,,,,,,,,,,,,,,,,,,,,,,,,,,,,,,,,,,,,,,,,,,,,,,,,,,,,,,,,,,,,,,,,,,
5.38,tail,-26.44,5.53,-0.17,0.06,0.2,,0.0,0.0,1.125,-25.49,12.3,73.39,-25.31,26.81,107.31,34.54,-0.26,105.56,34.89,-53.53,93.16,0.62,-79.8,125.07,-30.32,-60.91,128.85,,,,,,,,,,,,,,,,,,,,,,,,,,,,,,,,,,,,,0.0,0.0,0.0,0.0,0.0,0.0,0.0,0.0,0.0,0.0,0.0,0.0,0.0,0.0,0.0,0.0,0.0,0.0,,,,,,,,,,,,,,,,,,,,,,,,,,,,,,,,,,,,,,,,,,,,,,,,,,,,,,,,,,,,,,,,,,,,,,,,,
5.48,tail,-26.43,5.53,-0.07,0.03,0.2,,0.0,0.0,1.125,-25.49,12.3,73.39,-25.31,26.81,107.31,34.54,-0.26,105.56,34.89,-53.53,93.16,0.62,-79.8,125.07,-30.32,-60.91,128.85,,,,,,,,,,,,,,,,,,,,,,,,,,,,,,,,,,,,,0.0,0.0,0.0,0.0,0.0,0.0,0.0,0.0,0.0,0.0,0.0,0.0,0.0,0.0,0.0,0.0,0.0,0.0,,,,,,,,,,,,,,,,,,,,,,,,,,,,,,,,,,,,,,,,,,,,,,,,,,,,,,,,,,,,,,,,,,,,,,,,,
5.58,tail,-26.43,5.52,-0.11,0.03,0.22,,0.0,0.0,1.125,-25.49,12.3,73.39,-25.31,26.81,107.31,34.54,-0.26,105.56,34.89,-53.53,93.16,0.62,-79.8,125.07,-30.32,-60.91,128.85,,,,,,,,,,,,,,,,,,,,,,,,,,,,,,,,,,,,,0.0,0.0,0.0,0.0,0.0,0.0,0.0,0.0,0.0,0.0,0.0,0.0,0.0,0.0,0.0,0.0,0.0,0.0,,,,,,,,,,,,,,,,,,,,,,,,,,,,,,,,,,,,,,,,,,,,,,,,,,,,,,,,,,,,,,,,,,,,,,,,,
5.68,tail,-26.44,5.51,-0.14,0.03,0.22,,0.0,0.0,1.125,-25.49,12.3,73.39,-25.31,26.81,107.31,34.54,-0.26,105.56,34.89,-53.53,93.16,0.62,-79.8,125.07,-30.32,-60.91,128.85,,,,,,,,,,,,,,,,,,,,,,,,,,,,,,,,,,,,,0.0,0.0,0.0,0.0,0.0,0.0,0.0,0.0,0.0,0.0,0.0,0.0,0.0,0.0,0.0,0.0,0.0,0.0,,,,,,,,,,,,,,,,,,,,,,,,,,,,,,,,,,,,,,,,,,,,,,,,,,,,,,,,,,,,,,,,,,,,,,,,,
5.78,tail,-26.44,5.5,-0.14,0.02,0.22,,0.0,0.0,1.125,-25.49,12.3,73.39,-25.31,26.81,107.31,34.54,-0.26,105.56,34.89,-53.53,93.16,0.62,-79.8,125.07,-30.32,-60.91,128.85,,,,,,,,,,,,,,,,,,,,,,,,,,,,,,,,,,,,,0.0,0.0,0.0,0.0,0.0,0.0,0.0,0.0,0.0,0.0,0.0,0.0,0.0,0.0,0.0,0.0,0.0,0.0,,,,,,,,,,,,,,,,,,,,,,,,,,,,,,,,,,,,,,,,,,,,,,,,,,,,,,,,,,,,,,,,,,,,,,,,,
5.88,tail,-26.45,5.5,-0.15,0.0,0.22,,0.0,0.0,1.125,-25.49,12.3,73.39,-25.31,26.81,107.31,34.54,-0.26,105.56,34.89,-53.53,93.16,0.62,-79.8,125.07,-30.32,-60.91,128.85,,,,,,,,,,,,,,,,,,,,,,,,,,,,,,,,,,,,,0.0,0.0,0.0,0.0,0.0,0.0,0.0,0.0,0.0,0.0,0.0,0.0,0.0,0.0,0.0,0.0,0.0,0.0,,,,,,,,,,,,,,,,,,,,,,,,,,,,,,,,,,,,,,,,,,,,,,,,,,,,,,,,,,,,,,,,,,,,,,,,,
5.98,tail,-26.45,5.49,-0.14,0.07,0.22,,0.0,0.0,1.125,-25.49,12.3,73.39,-25.31,26.81,107.31,34.54,-0.26,105.56,34.89,-53.53,93.16,0.62,-79.8,125.07,-30.32,-60.91,128.85,,,,,,,,,,,,,,,,,,,,,,,,,,,,,,,,,,,,,0.0,0.0,0.0,0.0,0.0,0.0,0.0,0.0,0.0,0.0,0.0,0.0,0.0,0.0,0.0,0.0,0.0,0.0,,,,,,,,,,,,,,,,,,,,,,,,,,,,,,,,,,,,,,,,,,,,,,,,,,,,,,,,,,,,,,,,,,,,,,,,,
6.08,tail,-26.45,5.49,-0.15,0.05,0.25,,0.0,0.0,1.125,-25.49,12.3,73.39,-25.31,26.81,107.31,34.54,-0.26,105.56,34.89,-53.53,93.16,0.62,-79.8,125.07,-30.32,-60.91,128.85,,,,,,,,,,,,,,,,,,,,,,,,,,,,,,,,,,,,,0.0,0.0,0.0,0.0,0.0,0.0,0.0,0.0,0.0,0.0,0.0,0.0,0.0,0.0,0.0,0.0,0.0,0.0,,,,,,,,,,,,,,,,,,,,,,,,,,,,,,,,,,,,,,,,,,,,,,,,,,,,,,,,,,,,,,,,,,,,,,,,,
