t_s,phase,roll_deg,pitch_deg,gyro_x_dps,gyro_y_dps,gyro_z_dps,height_ref_mm,vx_ref_mps,vy_ref_mps,max_cur_a,q0_deg,q1_deg,q2_deg,q3_deg,q4_deg,q5_deg,q6_deg,q7_deg,q8_deg,q9_deg,q10_deg,q11_deg,q12_deg,q13_deg,q14_deg,q15_deg,q16_deg,q17_deg,cmd0_deg,cmd1_deg,cmd2_deg,cmd3_deg,cmd4_deg,cmd5_deg,cmd6_deg,cmd7_deg,cmd8_deg,cmd9_deg,cmd10_deg,cmd11_deg,cmd12_deg,cmd13_deg,cmd14_deg,cmd15_deg,cmd16_deg,cmd17_deg,act0,act1,act2,act3,act4,act5,act6,act7,act8,act9,act10,act11,act12,act13,act14,act15,act16,act17,cur0_a,cur1_a,cur2_a,cur3_a,cur4_a,cur5_a,cur6_a,cur7_a,cur8_a,cur9_a,cur10_a,cur11_a,cur12_a,cur13_a,cur14_a,cur15_a,cur16_a,cur17_a,obs0,obs1,obs2,obs3,obs4,obs5,obs6,obs7,obs8,obs9,obs10,obs11,obs12,obs13,obs14,obs15,obs16,obs17,obs18,obs19,obs20,obs21,obs22,obs23,obs24,obs25,obs26,obs27,obs28,obs29,obs30,obs31,obs32,obs33,obs34,obs35,obs36,obs37,obs38,obs39,obs40,obs41,obs42,obs43,obs44,obs45,obs46,obs47,obs48,obs49,obs50,obs51,obs52,obs53,obs54,obs55,obs56,obs57,obs58,obs59,obs60,obs61,obs62,obs63,obs64,obs65,obs66,obs67,obs68,obs69,obs70,obs71,rot60_k
0.0,run,-0.71,4.1,0.09,-0.83,1.72,0.0,0.0,0.0,0.019,0.18,16.08,79.37,0.35,17.58,78.4,0.0,17.75,79.37,0.09,16.35,79.19,-0.18,16.79,77.43,-0.09,16.79,78.31,-1.32,14.94,77.87,-1.15,16.08,79.99,1.5,16.43,80.87,1.59,15.11,80.69,-1.02,15.64,76.2,-1.59,15.38,79.81,-1.0,-1.0,-0.5007,-1.0,-1.0,1.0,1.0,-1.0,1.0,1.0,-1.0,1.0,-0.029,-1.0,-0.1731,-1.0,-1.0,1.0,0.019,0.0,0.006,0.006,0.006,0.019,0.006,0.0,0.006,0.013,0.0,0.013,0.013,0.0,0.0,0.006,0.0,0.006,0.0,-0.0061,0.0,0.0,0.0,-0.0015,0.0,-0.0031,0.0,0.0,-0.0046,0.0,0.0,-0.0061,-0.0031,0.0,-0.0015,0.0,0.0,-0.0149,0.0,0.0,0.0,-0.0032,0.0,-0.0064,0.0,0.0,-0.0107,0.0,0.0,-0.0149,-0.0064,0.0,-0.0037,0.0,0.0,0.0,-0.0157,0.0063,-0.004,0.0,0.0,0.0,0.0,0.0,0.0,0.0,0.0,0.0,0.0,0.0,0.0,0.0,0.0,0.0,0.0,0.0,0.0,0.0,0.0,0.0,0.0,0.0,0.0,0.0,0.0,0.0,0.0,0.0,0.0,0.0,0
0.04,run,-0.74,4.14,0.43,0.1,-0.26,0.0,0.0,0.0,0.019,0.09,15.73,79.28,0.26,17.23,78.75,0.0,17.49,79.45,0.18,16.08,79.37,-0.35,16.35,77.26,-0.53,16.44,78.4,-2.82,16.44,79.37,-2.65,14.58,81.49,0.0,14.93,79.37,3.09,13.61,82.19,-2.52,14.14,77.7,-3.09,13.88,81.31,-1.0,1.0,1.0,-1.0,-1.0,1.0,-1.0,-1.0,-0.9934,1.0,-1.0,1.0,-1.0,0.0842,1.0,-1.0,-1.0,1.0,0.019,0.0,0.006,0.006,0.006,0.019,0.006,0.0,0.006,0.013,0.0,0.013,0.013,0.0,0.0,0.006,0.0,0.006,0.0,-0.0061,0.0,0.0,0.0,-0.0015,0.0,-0.0031,0.0,0.0,-0.0046,0.0,0.0,-0.0061,-0.0046,0.0,-0.0015,0.0,0.0,-0.0105,0.0,0.0,0.0,-0.0022,0.0,-0.0045,0.0,0.0,-0.0075,0.0,0.0,-0.0105,-0.007,0.0,-0.0026,0.0,-0.0012,-0.0061,0.0016,-0.0144,0.03,-1.0,-1.0,-0.5007,-1.0,-1.0,1.0,1.0,-1.0,1.0,1.0,-1.0,1.0,-0.029,-1.0,-0.1731,-1.0,-1.0,1.0,0.0,0.0,0.0,0.0,0.0,0.0,0.0,0.0,0.0,0.0,0.0,0.0,0.0,0
0.08,run,-1.37,4.1,-4.51,-0.42,-9.31,0.0,0.0,0.0,0.071,-1.85,15.03,78.84,-2.46,14.33,81.83,0.62,15.73,80.77,3.25,13.1,82.44,-3.25,14.77,76.99,-3.78,13.62,80.95,-1.32,17.94,80.87,-4.15,13.08,82.99,-1.5,16.43,80.87,4.59,12.11,83.69,-4.02,15.64,79.2,-4.59,12.38,82.81,0.41,0.8379,0.3708,-1.0,-1.0,0.9626,-1.0,1.0,1.0,1.0,-1.0,1.0,-1.0,1.0,1.0,-1.0,-1.0,1.0,0.006,0.071,0.0,0.013,0.0,0.006,0.019,0.013,0.0,0.019,0.0,0.013,0.006,0.045,0.013,0.006,0.006,0.013,-0.0015,-0.0123,-0.0015,-0.0015,-0.0061,0.0046,0.0,-0.0077,0.0015,0.0015,-0.0092,0.0031,-0.0031,-0.0138,-0.0077,-0.0077,-0.0077,0.0015,-0.0058,-0.0304,-0.0058,-0.0058,-0.023,0.0215,0.0,-0.0204,0.0058,0.0058,-0.0225,0.0115,-0.0115,-0.0361,-0.0164,-0.0288,-0.0249,0.0058,-0.0042,-0.0031,0.0075,0.0018,-0.0045,-1.0,1.0,1.0,-1.0,-1.0,1.0,-1.0,-1.0,-0.9934,1.0,-1.0,1.0,-1.0,0.0842,1.0,-1.0,-1.0,1.0,0.0,0.0,0.0,0.0,0.0,0.0,0.0,0.0,0.0,0.0,0.0,0.0,0.0,0
0.12,run,-1.42,4.1,-4.82,0.68,-6.88,0.0,0.0,0.0,0.071,-1.58,15.21,79.37,-3.08,13.8,82.35,0.53,15.73,80.86,3.69,12.57,82.88,-3.69,14.68,77.78,-4.31,13.01,81.47,-2.82,19.44,82.37,-5.65,11.58,84.49,-3.0,17.93,82.37,6.09,10.61,85.19,-2.52,14.14,77.7,-6.09,10.88,84.31,-1.0,1.0,0.3122,-1.0,-1.0,1.0,-1.0,1.0,1.0,1.0,-1.0,0.5832,0.4212,-0.2551,-1.0,-1.0,-1.0,1.0,0.006,0.071,0.0,0.013,0.0,0.006,0.019,0.013,0.0,0.019,0.0,0.013,0.006,0.045,0.013,0.006,0.006,0.013,-0.0353,-0.0245,-0.0092,-0.0491,-0.0568,0.0583,0.0107,-0.0383,0.0245,0.0552,-0.0614,0.0568,-0.0537,-0.0414,-0.0123,-0.0644,-0.0568,0.046,-0.0396,-0.0342,-0.0121,-0.0542,-0.0695,0.0716,0.0113,-0.0466,0.0283,0.0606,-0.0707,0.0647,-0.0614,-0.0544,-0.0163,-0.08,-0.0692,0.0509,-0.0587,-0.0065,-0.0787,-0.0074,-0.1625,0.41,0.8379,0.3708,-1.0,-1.0,0.9626,-1.0,1.0,1.0,1.0,-1.0,1.0,-1.0,1.0,1.0,-1.0,-1.0,1.0,0.0,0.0,0.0,0.0,0.0,0.0,0.0,0.0,0.0,0.0,0.0,0.0,0.0,0
0.16,run,-1.3,4.08,0.83,-0.47,-2.52,0.0,0.0,0.0,0.071,-1.41,15.73,80.07,-3.6,13.36,82.79,-0.44,16.17,81.04,4.04,12.13,83.32,-3.96,14.77,78.31,-4.57,12.48,82.0,-4.32,17.94,83.87,-7.15,10.08,85.99,-4.38,16.43,80.87,7.59,9.11,86.69,-4.02,12.64,79.2,-7.59,9.37,85.81,-1.0,0.7234,0.5523,-1.0,0.3722,1.0,-0.1251,-0.3946,-0.5439,1.0,-1.0,1.0,-1.0,-0.3461,1.0,-1.0,-1.0,1.0,0.006,0.071,0.0,0.013,0.0,0.006,0.019,0.013,0.0,0.019,0.0,0.013,0.006,0.045,0.013,0.006,0.006,0.013,-0.0307,-0.0215,0.0,-0.0598,-0.066,0.0675,0.0092,-0.0383,0.0261,0.0629,-0.0706,0.0644,-0.0614,-0.043,0.0015,-0.0736,-0.0675,0.0552,-0.0061,-0.0095,0.0347,-0.0883,-0.0918,0.0933,0.0007,-0.0326,0.027,0.0784,-0.0927,0.0812,-0.079,-0.0453,0.0533,-0.0992,-0.0988,0.0788,-0.0635,-0.0059,-0.0841,0.0118,-0.12,-1.0,1.0,0.3122,-1.0,-1.0,1.0,-1.0,1.0,1.0,1.0,-1.0,0.5832,0.4212,-0.2551,-1.0,-1.0,-1.0,1.0,0.0,0.0,0.0,0.0,0.0,0.0,0.0,0.0,0.0,0.0,0.0,0.0,0.0,0
0.2,run,-1.22,3.82,1.54,-6.71,-1.58,0.0,0.0,0.0,0.084,-1.49,16.44,80.95,-4.31,12.92,83.5,-1.32,16.26,81.04,4.66,11.51,83.94,-3.87,14.77,78.75,-5.01,11.95,82.71,-5.82,16.44,85.37,-8.65,8.58,84.49,-5.88,14.93,82.37,9.09,7.61,88.19,-5.52,14.14,80.7,-9.09,7.87,87.31,-1.0,-0.2404,0.6729,-1.0,-1.0,-1.0,-1.0,-0.4638,1.0,1.0,-1.0,1.0,-1.0,1.0,1.0,-1.0,-1.0,1.0,0.013,0.084,0.013,0.013,0.019,0.006,0.033,0.013,0.0,0.058,0.0,0.033,0.013,0.0,0.019,0.026,0.006,0.026,-0.0276,-0.0123,0.0123,-0.069,-0.0736,0.0752,-0.0077,-0.0307,0.0291,0.069,-0.0782,0.0721,-0.066,-0.0414,0.0107,-0.0782,-0.0767,0.0644,0.007,0.0273,0.0696,-0.0958,-0.0926,0.0937,-0.0618,0.0055,0.0302,0.0776,-0.0932,0.0852,-0.0723,-0.026,0.0713,-0.0864,-0.1031,0.0892,-0.0528,-0.0077,0.0144,-0.0082,-0.0441,-1.0,0.7234,0.5523,-1.0,0.3722,1.0,-0.1251,-0.3946,-0.5439,1.0,-1.0,1.0,-1.0,-0.3461,1.0,-1.0,-1.0,1.0,0.0,0.0,0.0,0.0,0.0,0.0,0.0,0.0,0.0,0.0,0.0,0.0,0.0,0
0.24,run,-1.26,3.7,-0.46,-3.92,-3.56,0.0,0.0,0.0,0.084,-2.11,16.88,81.56,-5.27,12.39,84.2,-2.37,16.26,81.04,5.54,10.63,85.08,-4.39,13.97,79.28,-6.15,11.07,83.58,-7.32,14.94,83.87,-10.15,7.08,85.99,-7.38,16.43,83.87,10.59,6.11,89.69,-7.02,12.64,79.2,-10.59,6.37,88.81,-1.0,-1.0,0.0499,-1.0,-1.0,1.0,-1.0,1.0,1.0,1.0,-1.0,1.0,-1.0,-0.2893,-1.0,-1.0,-1.0,1.0,0.013,0.084,0.013,0.013,0.019,0.006,0.033,0.013,0.0,0.058,0.0,0.033,0.013,0.0,0.019,0.026,0.006,0.026,-0.0291,0.0,0.0276,-0.0813,-0.0813,0.0874,-0.023,-0.0291,0.0291,0.0798,-0.089,0.0828,-0.0644,-0.0414,0.0184,-0.0859,-0.0859,0.0767,-0.0008,0.0653,0.1064,-0.1132,-0.0937,0.1117,-0.101,0.0096,0.0212,0.0947,-0.1056,0.1,-0.0448,-0.0182,0.0788,-0.0893,-0.1068,0.1086,-0.0454,-0.0305,0.0269,-0.1172,-0.0275,-1.0,-0.2404,0.6729,-1.0,-1.0,-1.0,-1.0,-0.4638,1.0,1.0,-1.0,1.0,-1.0,1.0,1.0,-1.0,-1.0,1.0,0.0,0.0,0.0,0.0,0.0,0.0,0.0,0.0,0.0,0.0,0.0,0.0,0.0,0
0.28,run,-1.25,3.66,2.59,-1.81,-15.81,0.0,0.0,0.0,0.084,-2.99,16.96,82.88,-6.5,11.07,84.73,-3.6,15.73,81.21,6.86,9.49,86.22,-4.92,13.71,79.98,-7.38,9.93,84.81,-8.82,13.44,85.37,-11.65,5.58,87.49,-8.88,14.93,82.37,12.09,4.61,91.19,-8.52,14.14,80.7,-12.09,4.87,90.31,-1.0,-0.8178,0.7379,-1.0,-0.2242,1.0,-1.0,-1.0,-0.2162,1.0,-1.0,1.0,-1.0,1.0,1.0,-1.0,-1.0,1.0,0.013,0.084,0.013,0.013,0.019,0.006,0.033,0.013,0.0,0.058,0.0,0.033,0.013,0.0,0.019,0.026,0.006,0.026,-0.0399,0.0077,0.0383,-0.0982,-0.0905,0.0997,-0.0414,-0.0291,0.0291,0.0951,-0.1043,0.1028,-0.0736,-0.0552,0.0276,-0.1058,-0.1012,0.092,-0.0408,0.0744,0.1147,-0.1425,-0.1001,0.1242,-0.1397,0.0067,0.0148,0.1238,-0.1314,0.1448,-0.0659,-0.0645,0.0896,-0.1373,-0.1323,0.1335,-0.0493,-0.0412,-0.008,-0.0684,-0.0622,-1.0,-1.0,0.0499,-1.0,-1.0,1.0,-1.0,1.0,1.0,1.0,-1.0,1.0,-1.0,-0.2893,-1.0,-1.0,-1.0,1.0,0.0,0.0,0.0,0.0,0.0,0.0,0.0,0.0,0.0,0.0,0.0,0.0,0.0,0
0.32,run,-1.28,3.55,1.1,-3.64,-22.1,0.0,0.0,0.0,0.084,-4.22,16.96,83.94,-7.73,9.76,85.61,-4.92,15.21,81.83,8.35,8.17,87.71,-5.98,13.1,80.6,-8.79,9.05,86.13,-10.32,11.94,86.87,-13.15,4.08,85.99,-10.38,16.43,83.87,13.59,3.11,92.69,-10.02,12.64,82.2,-13.59,3.37,91.81,-1.0,-1.0,0.4536,-1.0,-0.974,-0.2346,-1.0,1.0,1.0,1.0,-1.0,1.0,-1.0,0.0473,1.0,-1.0,-1.0,1.0,0.033,0.006,0.013,0.019,0.019,0.006,0.026,0.0,0.0,0.033,0.006,0.026,0.0,0.0,0.006,0.019,0.026,0.019,-0.0552,0.0092,0.0614,-0.1197,-0.1135,0.1089,-0.0629,-0.0383,0.0322,0.1181,-0.1243,0.1227,-0.0828,-0.0598,0.0399,-0.1273,-0.1212,0.1135,-0.0861,0.0579,0.1666,-0.1803,-0.1563,0.1214,-0.1783,-0.0298,0.0219,0.1729,-0.1668,0.1761,-0.0806,-0.0624,0.1088,-0.1766,-0.1673,0.174,-0.0484,-0.0446,0.0452,-0.0315,-0.2759,-1.0,-0.8178,0.7379,-1.0,-0.2242,1.0,-1.0,-1.0,-0.2162,1.0,-1.0,1.0,-1.0,1.0,1.0,-1.0,-1.0,1.0,0.0,0.0,0.0,0.0,0.0,0.0,0.0,0.0,0.0,0.0,0.0,0.0,0.0,0
0.36,run,-1.34,3.51,0.21,-1.4,-21.57,0.0,0.0,0.0,0.084,-5.62,16.88,84.73,-9.14,8.35,86.48,-6.24,14.77,82.35,9.76,6.86,89.03,-7.03,12.74,80.95,-10.28,7.65,87.54,-11.82,10.44,88.37,-14.65,2.58,87.49,-11.88,14.93,85.37,15.09,1.61,94.19,-11.52,11.14,80.7,-15.09,1.87,93.31,-1.0,-1.0,1.0,-1.0,-0.0977,1.0,-1.0,0.2992,1.0,1.0,-1.0,1.0,-1.0,0.3955,-0.3861,-1.0,-1.0,1.0,0.033,0.006,0.013,0.019,0.019,0.006,0.026,0.0,0.0,0.033,0.006,0.026,0.0,0.0,0.006,0.019,0.026,0.019,-0.0767,0.0092,0.0798,-0.1411,-0.1365,0.1243,-0.0859,-0.0476,0.043,0.1442,-0.1473,0.1488,-0.1012,-0.0706,0.0506,-0.1519,-0.1365,0.1365,-0.1406,0.0405,0.1855,-0.2065,-0.1955,0.1424,-0.2109,-0.0553,0.0555,0.2186,-0.2028,0.2208,-0.1253,-0.0839,0.1163,-0.2155,-0.1745,0.2079,-0.0513,-0.0544,0.0192,-0.0635,-0.3858,-1.0,-1.0,0.4536,-1.0,-0.974,-0.2346,-1.0,1.0,1.0,1.0,-1.0,1.0,-1.0,0.0473,1.0,-1.0,-1.0,1.0,0.0,0.0,0.0,0.0,0.0,0.0,0.0,0.0,0.0,0.0,0.0,0.0,0.0,0
0.4,run,-1.47,3.78,-2.01,6.16,-20.4,0.0,0.0,0.0,0.084,-7.03,15.82,85.69,-10.55,6.94,87.1,-7.65,14.68,83.06,11.25,5.54,90.44,-8.26,12.04,81.56,-11.69,6.15,88.95,-13.32,8.94,86.87,-16.15,4.08,88.99,-13.38,13.43,86.87,16.59,0.11,95.69,-13.02,9.64,82.2,-16.59,0.37,94.81,-1.0,-1.0,-0.3363,-1.0,0.6186,1.0,-1.0,-0.4394,1.0,1.0,-1.0,1.0,-1.0,0.3654,1.0,-1.0,-1.0,1.0,0.033,0.006,0.013,0.019,0.019,0.006,0.026,0.0,0.0,0.033,0.006,0.026,0.0,0.0,0.006,0.019,0.026,0.019,-0.1012,0.0077,0.0936,-0.1657,-0.1611,0.1396,-0.1089,-0.0552,0.0522,0.1687,-0.1703,0.1718,-0.1197,-0.0767,0.0568,-0.1779,-0.1611,0.1611,-0.1911,0.0226,0.182,-0.2372,-0.2295,0.1576,-0.2345,-0.0677,0.0736,0.2457,-0.2289,0.2415,-0.1572,-0.0819,0.1046,-0.2493,-0.2148,0.2382,-0.0565,-0.0576,0.0036,-0.0244,-0.3765,-1.0,-1.0,1.0,-1.0,-0.0977,1.0,-1.0,0.2992,1.0,1.0,-1.0,1.0,-1.0,0.3955,-0.3861,-1.0,-1.0,1.0,0.0,0.0,0.0,0.0,0.0,0.0,0.0,0.0,0.0,0.0,0.0,0.0,0.0,0
0.44,run,-1.28,3.84,5.59,1.97,-24.71,0.0,0.0,0.0,0.084,-8.44,14.68,86.57,-11.95,5.62,87.54,-9.05,14.24,84.11,12.74,4.04,91.93,-9.76,11.43,81.91,-13.1,4.66,90.44,-14.82,10.44,88.37,-17.65,2.58,90.49,-14.88,11.93,88.37,18.09,-1.39,97.19,-14.52,8.14,83.7,-18.09,-1.13,96.31,-1.0,1.0,1.0,-1.0,0.0043,0.7651,-1.0,-0.9701,1.0,1.0,-1.0,1.0,-1.0,-0.703,1.0,-1.0,-1.0,1.0,0.033,0.0,0.006,0.013,0.013,0.013,0.026,0.0,0.006,0.026,0.006,0.019,0.006,0.0,0.006,0.006,0.013,0.019,-0.1258,-0.0107,0.1104,-0.1902,-0.1856,0.1503,-0.1335,-0.0568,0.0644,0.1948,-0.1933,0.1963,-0.1411,-0.089,0.0675,-0.2025,-0.1871,0.1856,-0.2254,-0.0529,0.1904,-0.2577,-0.2523,0.1504,-0.2558,-0.0531,0.0973,0.2693,-0.2461,0.2606,-0.1902,-0.1031,0.1133,-0.2661,-0.2477,0.2583,-0.0673,-0.0346,-0.0352,0.1075,-0.3561,-1.0,-1.0,-0.3363,-1.0,0.6186,1.0,-1.0,-0.4394,1.0,1.0,-1.0,1.0,-1.0,0.3654,1.0,-1.0,-1.0,1.0,0.0,0.0,0.0,0.0,0.0,0.0,0.0,0.0,0.0,0.0,0.0,0.0,0.0,0
0.48,run,-1.35,4.18,-1.82,8.81,-27.44,0.0,0.0,0.0,0.084,-9.93,13.36,87.28,-13.27,4.48,88.42,-10.46,13.71,85.25,14.06,2.72,93.34,-11.16,10.37,82.44,-14.5,3.16,91.85,-13.32,8.94,89.87,-19.15,1.08,88.99,-16.38,10.43,89.87,19.59,-2.89,98.69,-16.02,9.64,85.2,-19.59,-2.63,94.81,-0.0658,-1.0,0.3702,-1.0,-0.0999,-1.0,-1.0,-1.0,0.3737,1.0,-1.0,1.0,-1.0,1.0,1.0,-1.0,-1.0,-0.1437,0.033,0.0,0.006,0.013,0.013,0.013,0.026,0.0,0.006,0.026,0.006,0.019,0.006,0.0,0.006,0.006,0.013,0.019,-0.1503,-0.0307,0.1258,-0.2148,-0.2086,0.158,-0.158,-0.0644,0.0828,0.2209,-0.2194,0.2224,-0.1672,-0.0997,0.0736,-0.227,-0.2132,0.2117,-0.2498,-0.1118,0.1908,-0.2724,-0.2629,0.134,-0.271,-0.0659,0.1371,0.2863,-0.27,0.2802,-0.2309,-0.1124,0.1023,-0.2783,-0.2712,0.2786,-0.0512,-0.0289,0.0975,0.0343,-0.4314,-1.0,1.0,1.0,-1.0,0.0043,0.7651,-1.0,-0.9701,1.0,1.0,-1.0,1.0,-1.0,-0.703,1.0,-1.0,-1.0,1.0,0.0,0.0,0.0,0.0,0.0,0.0,0.0,0.0,0.0,0.0,0.0,0.0,0.0,0
0.52,run,-1.39,4.28,-1.39,2.3,-23.44,0.0,0.0,0.0,0.084,-11.34,12.04,87.89,-14.77,3.6,89.38,-11.87,12.83,86.4,15.47,1.32,94.75,-12.48,9.32,83.14,-16.0,1.67,93.16,-14.82,8.66,88.37,-20.65,2.58,90.49,-17.88,11.93,91.37,21.09,-4.39,100.19,-17.52,8.14,86.7,-21.09,-4.13,96.31,-1.0,0.6121,0.2401,-1.0,0.7143,1.0,-1.0,1.0,1.0,1.0,-1.0,1.0,-1.0,-0.0299,1.0,-1.0,-1.0,1.0,0.033,0.0,0.006,0.013,0.013,0.013,0.026,0.0,0.006,0.026,0.006,0.019,0.006,0.0,0.006,0.006,0.013,0.019,-0.1764,-0.0537,0.1381,-0.2378,-0.2286,0.1733,-0.1825,-0.0736,0.1028,0.2439,-0.2424,0.247,-0.1917,-0.1181,0.0828,-0.2516,-0.2393,0.2362,-0.2727,-0.1646,0.1796,-0.277,-0.2588,0.1514,-0.2818,-0.0807,0.1708,0.2867,-0.2753,0.2882,-0.2537,-0.1477,0.1061,-0.2869,-0.2876,0.2871,-0.0569,0.0011,-0.0318,0.1537,-0.4789,-0.0658,-1.0,0.3702,-1.0,-0.0999,-1.0,-1.0,-1.0,0.3737,1.0,-1.0,1.0,-1.0,1.0,1.0,-1.0,-1.0,-0.1437,0.0,0.0,0.0,0.0,0.0,0.0,0.0,0.0,0.0,0.0,0.0,0.0,0.0,0
0.56,run,-1.26,4.35,2.7,2.39,-22.42,0.0,0.0,0.0,0.084,-12.57,10.72,88.51,-16.26,2.72,90.0,-13.18,11.87,87.8,16.96,-0.09,96.24,-13.89,8.44,83.94,-17.4,0.35,94.31,-16.32,10.16,89.87,-22.15,1.08,88.99,-19.38,10.43,92.87,22.59,-5.89,101.69,-19.02,6.64,88.2,-22.59,-5.63,97.81,-1.0,1.0,0.7376,-1.0,0.0193,-1.0,-1.0,-1.0,1.0,1.0,-1.0,1.0,-1.0,-0.5348,1.0,-1.0,-1.0,1.0,0.013,0.0,0.0,0.019,0.013,0.006,0.033,0.0,0.006,0.039,0.013,0.019,0.013,0.0,0.013,0.006,0.013,0.019,-0.201,-0.0767,0.1488,-0.2638,-0.2439,0.1902,-0.2071,-0.089,0.1227,0.2684,-0.2669,0.2715,-0.2148,-0.1365,0.0951,-0.2777,-0.2654,0.2592,-0.2829,-0.2015,0.1659,-0.2916,-0.2387,0.1692,-0.2893,-0.114,0.1943,0.2927,-0.2847,0.2938,-0.2638,-0.1724,0.1203,-0.2986,-0.2991,0.2872,-0.0609,0.0092,-0.0242,0.0402,-0.4091,-1.0,0.6121,0.2401,-1.0,0.7143,1.0,-1.0,1.0,1.0,1.0,-1.0,1.0,-1.0,-0.0299,1.0,-1.0,-1.0,1.0,0.0,0.0,0.0,0.0,0.0,0.0,0.0,0.0,0.0,0.0,0.0,0.0,0.0,0
0.6,run,-1.19,4.37,0.63,1.5,-22.63,0.0,0.0,0.0,0.084,-13.89,9.58,89.03,-17.67,2.02,90.35,-14.68,11.16,89.12,18.37,-1.41,97.65,-15.29,7.56,85.25,-18.81,-1.05,95.27,-17.82,8.66,91.37,-23.65,-0.42,87.49,-20.88,8.93,94.37,24.09,-7.39,103.19,-20.52,8.14,89.7,-24.09,-7.13,96.31,-1.0,-0.5543,0.7793,-1.0,-0.4673,-0.9669,-1.0,-0.51,1.0,1.0,-1.0,1.0,-1.0,0.6573,1.0,-1.0,-1.0,-0.326,0.013,0.0,0.0,0.019,0.013,0.006,0.033,0.0,0.006,0.039,0.013,0.019,0.013,0.0,0.013,0.006,0.013,0.019,-0.2224,-0.0997,0.1595,-0.2899,-0.2592,0.201,-0.2301,-0.1058,0.1473,0.2945,-0.2915,0.2976,-0.2393,-0.1519,0.1089,-0.3022,-0.2884,0.2792,-0.2785,-0.2273,0.1564,-0.3019,-0.2246,0.1587,-0.2888,-0.143,0.228,0.3027,-0.2913,0.3034,-0.2767,-0.1782,0.136,-0.301,-0.2956,0.2758,-0.0493,0.0158,0.047,0.0416,-0.3913,-1.0,1.0,0.7376,-1.0,0.0193,-1.0,-1.0,-1.0,1.0,1.0,-1.0,1.0,-1.0,-0.5348,1.0,-1.0,-1.0,1.0,0.0,0.0,0.0,0.0,0.0,0.0,0.0,0.0,0.0,0.0,0.0,0.0,0.0,0
0.64,run,-0.98,4.21,4.15,-4.36,-21.42,0.0,0.0,0.0,0.084,-15.03,9.05,89.56,-18.98,1.58,90.26,-16.08,10.2,90.35,19.69,-2.81,99.05,-16.7,6.77,86.4,-20.3,-2.37,96.24,-19.32,7.16,89.87,-25.15,-1.92,88.99,-22.38,10.43,95.87,25.59,-8.89,104.69,-22.02,6.64,91.2,-25.59,-8.63,94.81,-1.0,0.2519,0.2256,-1.0,-0.3879,1.0,-1.0,0.9044,1.0,1.0,-0.1873,1.0,-1.0,-0.4192,1.0,-1.0,-1.0,-0.4164,0.013,0.0,0.0,0.019,0.013,0.006,0.033,0.0,0.006,0.039,0.013,0.019,0.013,0.0,0.013,0.006,0.013,0.019,-0.2454,-0.1197,0.1687,-0.3145,-0.2715,0.2071,-0.2562,-0.1181,0.1703,0.3191,-0.3145,0.3221,-0.2638,-0.1672,0.1319,-0.3267,-0.3129,0.2961,-0.2817,-0.2343,0.1442,-0.3039,-0.2035,0.1342,-0.3004,-0.1464,0.2464,0.3044,-0.2907,0.3049,-0.2862,-0.1826,0.1819,-0.3032,-0.2995,0.2567,-0.0432,0.0177,0.0109,0.0262,-0.395,-1.0,-0.5543,0.7793,-1.0,-0.4673,-0.9669,-1.0,-0.51,1.0,1.0,-1.0,1.0,-1.0,0.6573,1.0,-1.0,-1.0,-0.326,0.0,0.0,0.0,0.0,0.0,0.0,0.0,0.0,0.0,0.0,0.0,0.0,0.0,0
0.68,run,-0.82,4.1,4.21,-2.71,-23.43,0.0,0.0,0.0,0.084,-16.35,8.17,90.0,-20.48,0.79,89.74,-17.58,9.4,91.14,21.18,-4.31,100.55,-18.11,6.33,87.8,-21.62,-3.78,97.03,-17.82,8.66,91.37,-26.65,-3.42,90.49,-23.88,8.93,97.37,27.09,-7.39,103.19,-23.52,5.14,92.7,-27.09,-10.13,93.31,-0.4763,1.0,0.7767,-1.0,-1.0,1.0,-1.0,-0.8338,1.0,1.0,0.8289,0.2966,-1.0,-0.2971,1.0,-1.0,-1.0,-0.8436,0.006,0.006,0.006,0.019,0.019,0.006,0.026,0.006,0.026,0.039,0.013,0.013,0.013,0.019,0.026,0.013,0.026,0.006,-0.2654,-0.1289,0.1779,-0.3375,-0.2792,0.2056,-0.2807,-0.135,0.1917,0.3421,-0.339,0.3467,-0.2884,-0.181,0.1519,-0.3528,-0.3359,0.3129,-0.2716,-0.1984,0.1353,-0.2986,-0.1711,0.0882,-0.3019,-0.1655,0.2526,0.299,-0.2951,0.3051,-0.292,-0.1793,0.2018,-0.3096,-0.2955,0.2427,-0.0251,0.0036,0.0724,-0.0761,-0.3738,-1.0,0.2519,0.2256,-1.0,-0.3879,1.0,-1.0,0.9044,1.0,1.0,-0.1873,1.0,-1.0,-0.4192,1.0,-1.0,-1.0,-0.4164,0.0,0.0,0.0,0.0,0.0,0.0,0.0,0.0,0.0,0.0,0.0,0.0,0.0,0
0.72,run,-0.68,3.93,4.68,-4.86,-25.04,0.0,0.0,0.0,0.084,-17.49,7.56,90.44,-21.88,-0.09,89.21,-18.9,8.88,92.72,22.59,-5.62,101.87,-19.51,5.8,89.12,-23.03,-5.1,97.56,-16.32,7.16,92.87,-28.15,-4.92,91.99,-25.38,7.43,98.87,28.59,-5.89,101.69,-25.02,3.64,94.2,-25.59,-11.63,91.81,1.0,0.1048,0.641,-1.0,-1.0,1.0,-1.0,0.3407,1.0,1.0,1.0,-1.0,-1.0,-0.4831,1.0,0.5579,-1.0,-1.0,0.006,0.006,0.006,0.019,0.019,0.006,0.026,0.006,0.026,0.039,0.013,0.013,0.013,0.019,0.026,0.013,0.026,0.006,-0.2884,-0.1442,0.1856,-0.3636,-0.293,0.1963,-0.3068,-0.1488,0.2056,0.3682,-0.3651,0.3728,-0.3129,-0.1887,0.1764,-0.3758,-0.3605,0.3267,-0.2738,-0.1946,0.1226,-0.3038,-0.1699,0.0283,-0.3061,-0.166,0.227,0.304,-0.3013,0.3083,-0.2936,-0.1534,0.2304,-0.3003,-0.2961,0.22,-0.0104,-0.0067,0.0736,-0.0472,-0.409,-0.4763,1.0,0.7767,-1.0,-1.0,1.0,-1.0,-0.8338,1.0,1.0,0.8289,0.2966,-1.0,-0.2971,1.0,-1.0,-1.0,-0.8436,0.0,0.0,0.0,0.0,0.0,0.0,0.0,0.0,0.0,0.0,0.0,0.0,0.0,0
0.76,run,-0.67,4.11,2.73,3.62,-19.68,0.0,0.0,0.0,0.084,-18.37,6.94,90.97,-23.29,-1.23,89.03,-20.3,8.35,94.04,23.82,-6.68,102.83,-20.83,4.92,90.44,-24.43,-6.5,97.65,-14.82,5.66,94.37,-29.65,-6.42,93.49,-26.88,5.93,100.37,30.09,-4.39,100.19,-26.52,5.14,92.7,-24.09,-13.13,90.31,1.0,-0.3742,1.0,-1.0,-1.0,1.0,-1.0,0.2706,1.0,1.0,1.0,-1.0,-1.0,1.0,-0.0606,1.0,-0.4467,-1.0,0.006,0.006,0.006,0.019,0.019,0.006,0.026,0.006,0.026,0.039,0.013,0.013,0.013,0.019,0.026,0.013,0.026,0.006,-0.3083,-0.1549,0.1933,-0.3881,-0.3083,0.1871,-0.3298,-0.158,0.2332,0.3927,-0.3881,0.3958,-0.3375,-0.1979,0.1994,-0.4004,-0.3835,0.3359,-0.2693,-0.178,0.1157,-0.3082,-0.1787,-0.016,-0.3039,-0.152,0.2664,0.3084,-0.3005,0.3054,-0.3011,-0.1432,0.2509,-0.3058,-0.2968,0.1899,0.0017,-0.021,0.0817,-0.0848,-0.437,1.0,0.1048,0.641,-1.0,-1.0,1.0,-1.0,0.3407,1.0,1.0,1.0,-1.0,-1.0,-0.4831,1.0,0.5579,-1.0,-1.0,0.0,0.0,0.0,0.0,0.0,0.0,0.0,0.0,0.0,0.0,0.0,0.0,0.0,0
0.8,run,-0.8,4.11,-1.12,-1.15,-2.01,0.0,0.0,0.0,0.084,-18.9,6.5,91.67,-24.7,-2.46,89.3,-21.71,7.47,95.36,25.14,-7.56,103.71,-22.24,4.13,91.58,-25.49,-7.91,97.21,-13.32,4.16,95.87,-31.15,-7.92,94.99,-25.38,7.43,101.87,31.59,-2.89,98.69,-28.02,6.64,91.2,-22.59,-11.63,88.81,0.9972,0.439,0.9893,-1.0,-0.3489,1.0,-0.4035,1.0,1.0,1.0,1.0,-1.0,-1.0,0.6972,-1.0,1.0,1.0,-1.0,0.006,0.0,0.019,0.019,0.026,0.013,0.026,0.026,0.045,0.071,0.0,0.006,0.033,0.033,0.019,0.006,0.033,0.006,-0.3237,-0.1657,0.2025,-0.4126,-0.3283,0.1841,-0.3543,-0.1672,0.2562,0.4142,-0.4065,0.4126,-0.3605,-0.2132,0.2224,-0.4249,-0.408,0.3375,-0.246,-0.1648,0.1154,-0.3077,-0.1998,-0.0227,-0.3047,-0.1409,0.2727,0.2963,-0.2793,0.277,-0.297,-0.1577,0.2618,-0.306,-0.2997,0.1387,0.0026,-0.0051,0.0477,0.0632,-0.3434,1.0,-0.3742,1.0,-1.0,-1.0,1.0,-1.0,0.2706,1.0,1.0,1.0,-1.0,-1.0,1.0,-0.0606,1.0,-0.4467,-1.0,0.0,0.0,0.0,0.0,0.0,0.0,0.0,0.0,0.0,0.0,0.0,0.0,0.0,0
0.84,run,-0.79,4.48,0.94,8.1,2.54,0.0,0.0,0.0,0.084,-19.16,5.71,92.64,-26.1,-3.87,89.91,-22.94,6.77,96.77,26.46,-8.09,103.97,-23.38,3.69,92.46,-26.37,-9.23,96.42,-14.82,2.66,94.37,-32.65,-6.42,93.49,-23.88,8.93,103.37,33.09,-1.39,97.19,-29.52,5.14,89.7,-21.09,-10.13,87.31,-1.0,-0.9721,0.26,-1.0,0.7264,-1.0,1.0,1.0,1.0,1.0,1.0,-1.0,-1.0,0.0568,-1.0,1.0,1.0,-1.0,0.006,0.0,0.019,0.019,0.026,0.013,0.026,0.026,0.045,0.071,0.0,0.006,0.033,0.033,0.019,0.006,0.033,0.006,-0.3329,-0.1733,0.2148,-0.4372,-0.3497,0.1887,-0.3789,-0.1825,0.2792,0.4372,-0.4218,0.428,-0.385,-0.227,0.2424,-0.4433,-0.4326,0.3298,-0.2067,-0.1442,0.1269,-0.3075,-0.2205,0.0014,-0.3054,-0.1562,0.2773,0.2938,-0.2531,0.2515,-0.3,-0.1622,0.2581,-0.2833,-0.302,0.0683,-0.0087,-0.0058,-0.0196,-0.02,-0.0351,0.9972,0.439,0.9893,-1.0,-0.3489,1.0,-0.4035,1.0,1.0,1.0,1.0,-1.0,-1.0,0.6972,-1.0,1.0,1.0,-1.0,0.0,0.0,0.0,0.0,0.0,0.0,0.0,0.0,0.0,0.0,0.0,0.0,0.0,0
0.88,run,-0.57,4.85,5.57,9.78,-5.38,0.0,0.0,0.0,0.084,-19.07,4.92,93.6,-27.6,-5.19,91.05,-23.99,6.42,98.17,27.77,-8.17,104.06,-24.52,3.52,92.99,-26.81,-10.28,95.36,-16.32,1.16,95.87,-34.15,-7.92,91.99,-22.38,7.43,104.87,34.59,0.11,98.69,-31.02,3.64,88.2,-19.59,-8.63,85.81,-1.0,-0.802,1.0,-1.0,-0.2869,-1.0,0.8026,-1.0,1.0,1.0,1.0,0.4603,-1.0,-0.6593,-0.1518,1.0,1.0,-1.0,0.006,0.0,0.019,0.019,0.026,0.013,0.026,0.026,0.045,0.071,0.0,0.006,0.033,0.033,0.019,0.006,0.033,0.006,-0.3375,-0.1871,0.2316,-0.4617,-0.3743,0.1994,-0.4004,-0.1948,0.3037,0.4602,-0.431,0.4326,-0.405,-0.2347,0.2577,-0.4587,-0.4556,0.316,-0.162,-0.1527,0.1521,-0.3073,-0.2463,0.0412,-0.2943,-0.1553,0.2861,0.2919,-0.2117,0.1933,-0.2847,-0.1423,0.2382,-0.2558,-0.2976,-0.004,-0.0079,0.0268,0.0164,0.1413,0.0443,-1.0,-0.9721,0.26,-1.0,0.7264,-1.0,1.0,1.0,1.0,1.0,1.0,-1.0,-1.0,0.0568,-1.0,1.0,1.0,-1.0,0.0,0.0,0.0,0.0,0.0,0.0,0.0,0.0,0.0,0.0,0.0,0.0,0.0,0
0.92,run,-0.15,5.31,10.39,13.46,-5.97,0.0,0.0,0.0,0.117,-18.63,3.69,94.48,-28.92,-6.15,92.02,-24.87,6.33,99.49,29.18,-8.09,103.71,-25.66,3.43,93.34,-26.98,-11.07,94.04,-17.82,-0.34,97.37,-35.0,-9.42,90.49,-23.88,5.93,106.37,33.09,1.61,100.19,-32.52,2.14,89.7,-18.09,-7.13,84.31,-1.0,-0.3046,1.0,-1.0,-0.3989,-1.0,-1.0,-1.0,1.0,0.3593,1.0,1.0,-1.0,0.3114,1.0,1.0,1.0,-1.0,0.013,0.0,0.019,0.013,0.019,0.0,0.019,0.065,0.045,0.052,0.019,0.0,0.117,0.013,0.026,0.006,0.019,0.013,-0.3359,-0.201,0.2485,-0.4878,-0.3973,0.2194,-0.4188,-0.201,0.3283,0.4832,-0.4326,0.4341,-0.4249,-0.2378,0.2669,-0.4663,-0.474,0.2976,-0.1076,-0.1586,0.1697,-0.3128,-0.2586,0.1036,-0.275,-0.1317,0.2922,0.2906,-0.1539,0.1411,-0.274,-0.1111,0.2012,-0.2078,-0.2773,-0.0717,0.0109,0.0596,0.0971,0.1706,-0.0939,-1.0,-0.802,1.0,-1.0,-0.2869,-1.0,0.8026,-1.0,1.0,1.0,1.0,0.4603,-1.0,-0.6593,-0.1518,1.0,1.0,-1.0,0.0,0.0,0.0,0.0,0.0,0.0,0.0,0.0,0.0,0.0,0.0,0.0,0.0,0
0.96,run,0.52,5.73,16.75,11.22,-25.73,0.0,0.0,0.0,0.117,-17.93,2.29,95.19,-30.32,-7.03,92.72,-25.4,6.24,100.9,30.94,-7.56,102.74,-27.16,3.34,93.43,-26.72,-11.69,92.72,-19.32,-1.84,98.87,-35.0,-7.92,91.99,-24.99,4.43,107.87,31.59,0.11,98.69,-34.02,0.64,91.2,-16.59,-5.63,82.81,-1.0,0.3502,1.0,-1.0,0.9147,1.0,-0.7139,-1.0,1.0,-0.4811,0.4244,-1.0,-1.0,-0.4481,1.0,1.0,1.0,-1.0,0.013,0.0,0.019,0.013,0.019,0.0,0.019,0.065,0.045,0.052,0.019,0.0,0.117,0.013,0.026,0.006,0.019,0.013,-0.3283,-0.2224,0.2638,-0.5108,-0.4142,0.2362,-0.4341,-0.2025,0.3513,0.5077,-0.431,0.428,-0.4449,-0.2393,0.273,-0.4694,-0.4878,0.2746,-0.0465,-0.1917,0.1764,-0.3054,-0.2444,0.1359,-0.2501,-0.098,0.291,0.2956,-0.102,0.0757,-0.2667,-0.0835,0.1639,-0.157,-0.246,-0.1366,0.0473,0.099,0.1813,0.235,-0.1041,-1.0,-0.3046,1.0,-1.0,-0.3989,-1.0,-1.0,-1.0,1.0,0.3593,1.0,1.0,-1.0,0.3114,1.0,1.0,1.0,-1.0,0.0,0.0,0.0,0.0,0.0,0.0,0.0,0.0,0.0,0.0,0.0,0.0,0.0,0
1.0,run,0.55,5.75,2.52,5.16,-21.88,0.0,0.0,0.0,0.117,-17.67,0.97,96.06,-31.73,-7.91,93.08,-25.66,6.15,102.04,31.9,-6.59,101.78,-28.56,2.29,93.16,-25.58,-11.87,91.32,-17.82,-3.34,100.37,-35.0,-6.42,90.49,-23.49,2.93,109.37,30.09,-1.39,97.19,-35.0,2.14,92.7,-15.09,-4.13,81.31,1.0,-1.0,1.0,-1.0,1.0,-1.0,0.9852,-1.0,1.0,-1.0,-1.0,-0.1555,-1.0,1.0,0.9596,1.0,1.0,-1.0,0.013,0.0,0.019,0.013,0.019,0.0,0.019,0.065,0.045,0.052,0.019,0.0,0.117,0.013,0.026,0.006,0.019,0.013,-0.316,-0.247,0.2761,-0.5354,-0.4295,0.2485,-0.4433,-0.204,0.3758,0.5384,-0.4218,0.4111,-0.4709,-0.2408,0.2746,-0.4648,-0.4985,0.2516,0.0135,-0.2262,0.1695,-0.3058,-0.2286,0.1411,-0.2096,-0.0743,0.2957,0.322,-0.0369,-0.0103,-0.2845,-0.0642,0.1205,-0.0926,-0.2124,-0.182,0.106,0.1357,0.2923,0.1958,-0.4491,-1.0,0.3502,1.0,-1.0,0.9147,1.0,-0.7139,-1.0,1.0,-0.4811,0.4244,-1.0,-1.0,-0.4481,1.0,1.0,1.0,-1.0,0.0,0.0,0.0,0.0,0.0,0.0,0.0,0.0,0.0,0.0,0.0,0.0,0.0,0
1.04,run,0.54,5.69,3.02,2.59,-3.94,0.0,0.002,0.0,0.136,-17.84,-0.44,97.12,-32.87,-8.61,92.99,-25.66,5.27,103.27,32.61,-5.54,100.28,-30.06,1.76,92.72,-25.05,-11.69,89.91,-16.32,-4.84,101.87,-35.0,-4.92,88.99,-21.99,1.43,110.87,28.59,-2.89,98.69,-35.0,0.64,91.2,-13.59,-2.63,79.81,-0.4141,-1.0,1.0,-1.0,0.8701,-1.0,-0.4832,-1.0,1.0,-1.0,-0.4575,1.0,-1.0,0.3895,-1.0,1.0,1.0,-1.0,0.0,0.0,0.013,0.013,0.006,0.019,0.013,0.033,0.136,0.013,0.033,0.006,0.084,0.0,0.006,0.019,0.006,0.006,-0.3114,-0.27,0.2915,-0.5599,-0.4449,0.2546,-0.4479,-0.2056,0.3958,0.5553,-0.405,0.3942,-0.4955,-0.2592,0.27,-0.4449,-0.5016,0.227,0.0267,-0.2446,0.1761,-0.306,-0.2175,0.1218,-0.1639,-0.0578,0.2817,0.2886,0.0374,-0.0704,-0.2911,-0.1139,0.0671,0.0099,-0.1602,-0.2193,0.1087,0.1375,0.044,0.09,-0.3818,1.0,-1.0,1.0,-1.0,1.0,-1.0,0.9852,-1.0,1.0,-1.0,-1.0,-0.1555,-1.0,1.0,0.9596,1.0,1.0,-1.0,0.0,0.0,0.0,0.0,0.0,0.0,0.0,0.0,0.0,0.0133,0.0,0.0133,0.0,0
1.08,run,0.45,6.3,1.34,14.84,7.66,0.0,0.004,0.0,0.136,-18.02,-1.85,98.44,-33.75,-8.88,92.81,-25.49,4.13,104.59,32.96,-4.48,99.14,-31.46,0.97,91.93,-23.47,-11.25,88.59,-17.82,-6.34,103.37,-35.0,-3.42,87.49,-20.49,-0.07,112.37,27.09,-4.39,97.19,-35.0,-0.86,92.7,-12.09,-1.13,78.31,-1.0,-1.0,1.0,-1.0,1.0,-0.6938,1.0,-1.0,1.0,-1.0,0.0365,-0.3002,-1.0,-0.103,1.0,1.0,1.0,-1.0,0.0,0.0,0.013,0.013,0.006,0.019,0.013,0.033,0.136,0.013,0.033,0.006,0.084,0.0,0.006,0.019,0.006,0.006,-0.3145,-0.2945,0.3099,-0.5798,-0.4571,0.2531,-0.4479,-0.2209,0.4172,0.5676,-0.3866,0.3682,-0.5216,-0.2684,0.2623,-0.4357,-0.4985,0.2025,0.0072,-0.2633,0.1923,-0.289,-0.1983,0.0795,-0.1148,-0.098,0.2778,0.2481,0.0952,-0.1471,-0.3016,-0.1143,0.0182,0.0414,-0.1006,-0.2456,0.1077,0.1322,0.0526,0.0452,-0.0687,-0.4141,-1.0,1.0,-1.0,0.8701,-1.0,-0.4832,-1.0,1.0,-1.0,-0.4575,1.0,-1.0,0.3895,-1.0,1.0,1.0,-1.0,0.0,0.0,0.0,0.0,0.0,0.0,0.0,0.0,0.0,0.0267,0.0,0.0267,0.0,0
1.12,run,0.27,6.38,-3.93,0.77,15.23,0.0,0.006,0.0,0.136,-17.93,-3.25,99.76,-34.37,-8.88,91.76,-24.52,2.9,106.0,33.05,-3.69,98.09,-32.87,0.35,91.49,-22.15,-10.28,87.1,-16.32,-7.84,104.87,-35.0,-1.92,85.99,-18.99,-1.57,113.87,25.59,-5.89,98.69,-35.0,-2.36,94.2,-10.59,0.37,76.81,0.8449,-0.2066,1.0,-1.0,1.0,-0.5882,1.0,-1.0,1.0,-1.0,-1.0,1.0,-1.0,-1.0,0.973,1.0,1.0,-1.0,0.0,0.0,0.013,0.013,0.006,0.019,0.013,0.033,0.136,0.013,0.033,0.006,0.084,0.0,0.006,0.019,0.006,0.006,-0.3175,-0.3191,0.3329,-0.5952,-0.4617,0.25,-0.4449,-0.2408,0.4403,0.5737,-0.3682,0.3482,-0.5461,-0.2823,0.2485,-0.408,-0.4909,0.1795,-0.0065,-0.2763,0.2209,-0.2598,-0.156,0.0442,-0.0688,-0.1433,0.2807,0.1966,0.1356,-0.1777,-0.3031,-0.1317,-0.039,0.1325,-0.0417,-0.2581,0.0997,0.1858,0.0233,0.2591,0.1337,-1.0,-1.0,1.0,-1.0,1.0,-0.6938,1.0,-1.0,1.0,-1.0,0.0365,-0.3002,-1.0,-0.103,1.0,1.0,1.0,-1.0,0.0,0.0,0.0,0.0,0.0,0.0,0.0,0.0,0.0,0.04,0.0,0.04,0.0,0
1.16,run,0.24,6.61,-1.03,4.37,13.28,0.0,0.008,0.0,0.136,-17.93,-4.57,101.07,-34.72,-8.7,90.7,-23.29,1.49,107.58,32.78,-3.16,97.29,-33.75,-0.62,91.14,-20.65,-9.14,85.61,-17.82,-9.34,106.37,-35.0,-0.42,84.49,-17.49,-3.07,115.37,24.09,-7.39,100.19,-35.0,-3.86,92.7,-9.09,1.87,75.31,-1.0,-0.4405,1.0,-1.0,1.0,-1.0,1.0,-1.0,1.0,-1.0,-0.3451,1.0,-1.0,-0.1803,0.3037,1.0,1.0,-0.5906,0.033,0.0,0.019,0.0,0.013,0.026,0.026,0.0,0.097,0.013,0.065,0.0,0.026,0.0,0.019,0.013,0.019,0.013,-0.316,-0.3436,0.3559,-0.6059,-0.4617,0.2316,-0.428,-0.2623,0.4648,0.5752,-0.3543,0.3298,-0.5706,-0.293,0.2408,-0.385,-0.474,0.1534,0.0012,-0.2855,0.241,-0.2222,-0.1092,-0.0382,0.0152,-0.181,0.2886,0.1434,0.1468,-0.1935,-0.3043,-0.1325,-0.0561,0.1791,0.0342,-0.2786,0.084,0.1929,-0.0686,0.0134,0.2658,0.8449,-0.2066,1.0,-1.0,1.0,-0.5882,1.0,-1.0,1.0,-1.0,-1.0,1.0,-1.0,-1.0,0.973,1.0,1.0,-1.0,0.0,0.0,0.0,0.0,0.0,0.0,0.0,0.0,0.0,0.0533,0.0,0.0533,0.0,0
1.2,run,0.34,6.53,-0.16,-3.16,6.73,0.0,0.01,0.0,0.136,-17.93,-5.98,102.48,-34.8,-7.82,89.21,-21.88,0.09,109.07,32.34,-2.9,97.12,-34.37,-1.85,91.23,-19.34,-8.35,84.2,-19.32,-10.84,107.87,-35.0,1.08,82.99,-15.99,-4.57,116.87,22.59,-5.89,101.69,-35.0,-5.36,91.2,-7.59,3.37,76.81,-1.0,-0.4742,1.0,-1.0,1.0,0.1458,1.0,-1.0,1.0,-1.0,0.4602,1.0,-1.0,-1.0,0.0635,1.0,1.0,1.0,0.033,0.0,0.019,0.0,0.013,0.026,0.026,0.0,0.097,0.013,0.065,0.0,0.026,0.0,0.019,0.013,0.019,0.013,-0.316,-0.3666,0.3789,-0.6121,-0.4587,0.2132,-0.4065,-0.2869,0.4924,0.5706,-0.3451,0.316,-0.586,-0.3099,0.2347,-0.359,-0.4541,0.1273,0.0009,-0.2858,0.2546,-0.1784,-0.065,-0.0955,0.0908,-0.2183,0.3051,0.0832,0.1371,-0.187,-0.2703,-0.1557,-0.0622,0.2227,0.0983,-0.2924,0.0817,0.213,-0.018,0.0763,0.2317,-1.0,-0.4405,1.0,-1.0,1.0,-1.0,1.0,-1.0,1.0,-1.0,-0.3451,1.0,-1.0,-0.1803,0.3037,1.0,1.0,-0.5906,0.0,0.0,0.0,0.0,0.0,0.0,0.0,0.0,0.0,0.0667,0.0,0.0667,0.0,0
1.24,run,0.58,6.65,4.89,2.39,4.72,0.0,0.012,0.0,0.136,-18.02,-7.38,103.8,-34.8,-7.29,87.8,-20.57,-1.23,110.57,31.2,-2.9,97.21,-34.72,-2.99,91.67,-17.93,-6.59,82.62,-20.82,-12.34,109.37,-33.5,2.58,84.49,-14.49,-6.07,118.37,21.09,-7.39,100.19,-35.0,-6.86,92.7,-9.09,4.87,78.31,-1.0,-1.0,1.0,-0.3888,1.0,1.0,1.0,-1.0,1.0,-1.0,-0.2126,0.1494,-1.0,-1.0,1.0,-1.0,1.0,1.0,0.033,0.0,0.019,0.0,0.013,0.026,0.026,0.0,0.097,0.013,0.065,0.0,0.026,0.0,0.019,0.013,0.019,0.013,-0.316,-0.3912,0.4034,-0.6136,-0.4433,0.1871,-0.382,-0.3114,0.5185,0.563,-0.3405,0.3129,-0.5967,-0.3313,0.2362,-0.3359,-0.4403,0.1028,0.0006,-0.2925,0.2707,-0.1307,0.0123,-0.165,0.156,-0.2452,0.3118,0.0294,0.1133,-0.1425,-0.2296,-0.1899,-0.0377,0.2426,0.1208,-0.2971,0.0904,0.2054,-0.0028,-0.0551,0.1174,-1.0,-0.4742,1.0,-1.0,1.0,0.1458,1.0,-1.0,1.0,-1.0,0.4602,1.0,-1.0,-1.0,0.0635,1.0,1.0,1.0,0.0,0.0,0.0,0.0,0.0,0.0,0.0,0.0,0.0,0.08,0.0,0.08,0.0,0
1.28,run,0.69,6.5,1.92,-2.06,2.87,0.0,0.014,0.0,0.136,-18.72,-8.7,105.03,-34.72,-5.71,86.48,-19.25,-2.72,111.97,30.23,-2.99,97.65,-34.72,-4.22,92.11,-16.52,-5.27,81.21,-19.95,-13.84,107.87,-32.0,4.08,85.99,-12.99,-7.57,119.87,19.59,-8.89,101.69,-35.0,-8.36,94.2,-10.59,6.37,79.81,-0.5701,-0.6198,0.1744,-0.2429,1.0,1.0,1.0,-1.0,1.0,-1.0,-0.6021,0.8838,-1.0,-1.0,0.3965,-1.0,1.0,1.0,0.006,0.0,0.026,0.006,0.026,0.006,0.045,0.013,0.071,0.071,0.0,0.039,0.013,0.0,0.013,0.019,0.033,0.006,-0.3175,-0.4157,0.4264,-0.6136,-0.4341,0.1626,-0.359,-0.3344,0.5446,0.543,-0.3405,0.3145,-0.6029,-0.3513,0.2439,-0.3114,-0.4096,0.0752,-0.0053,-0.2968,0.2757,-0.0915,0.0431,-0.2076,0.1955,-0.2579,0.316,-0.0542,0.0793,-0.094,-0.1838,-0.2077,0.0023,0.2618,0.1996,-0.3115,0.1117,0.2166,0.0854,0.0418,0.0824,-1.0,-1.0,1.0,-0.3888,1.0,1.0,1.0,-1.0,1.0,-1.0,-0.2126,0.1494,-1.0,-1.0,1.0,-1.0,1.0,1.0,0.0,0.0,0.0,0.0,0.0,0.0,0.0,0.0,0.0,0.0933,0.0,0.0933,0.0,0
1.32,run,0.57,6.32,-2.2,-2.64,3.77,0.0,0.016,0.0,0.136,-19.42,-10.02,106.35,-34.45,-4.39,85.34,-17.93,-4.13,113.38,29.0,-3.69,98.44,-34.72,-5.54,92.72,-15.21,-3.87,80.16,-21.45,-15.34,106.37,-30.5,5.58,87.49,-11.49,-9.07,121.37,18.09,-10.39,100.19,-35.0,-9.86,92.7,-12.09,7.87,81.31,-1.0,-0.6087,-0.8257,1.0,0.7558,1.0,1.0,-1.0,1.0,-1.0,-0.0429,-0.6178,-1.0,-1.0,-0.2703,-1.0,0.9178,1.0,0.006,0.0,0.026,0.006,0.026,0.006,0.045,0.013,0.071,0.071,0.0,0.039,0.013,0.0,0.013,0.019,0.033,0.006,-0.3298,-0.4387,0.4479,-0.6121,-0.4065,0.1396,-0.3359,-0.3605,0.5691,0.5262,-0.3421,0.3221,-0.6029,-0.3728,0.2516,-0.2869,-0.3866,0.0506,-0.0498,-0.294,0.2736,-0.0583,0.1337,-0.2316,0.2231,-0.2784,0.3133,-0.1012,0.0498,-0.037,-0.1286,-0.2259,0.0304,0.2753,0.226,-0.3101,0.1211,0.2033,0.0336,-0.0359,0.05,-0.5701,-0.6198,0.1744,-0.2429,1.0,1.0,1.0,-1.0,1.0,-1.0,-0.6021,0.8838,-1.0,-1.0,0.3965,-1.0,1.0,1.0,0.0,0.0,0.0,0.0,0.0,0.0,0.0,0.0,0.0,0.1067,0.0,0.1067,0.0,0
1.36,run,0.34,6.18,-4.34,-0.17,-2.39,0.0,0.018,0.0,0.136,-19.95,-11.43,107.31,-33.66,-3.16,84.81,-16.61,-5.36,114.7,27.77,-4.75,99.49,-34.72,-6.86,93.52,-13.8,-2.46,79.28,-22.95,-16.84,104.87,-29.0,4.08,88.99,-9.99,-10.57,122.87,16.59,-11.89,98.69,-35.0,-11.36,91.2,-13.59,6.37,82.81,-1.0,-1.0,-1.0,1.0,-0.2967,1.0,1.0,-1.0,1.0,-1.0,-0.1667,-1.0,-1.0,-1.0,-0.1658,-1.0,0.409,1.0,0.006,0.0,0.026,0.006,0.026,0.006,0.045,0.013,0.071,0.071,0.0,0.039,0.013,0.0,0.013,0.019,0.033,0.006,-0.3421,-0.4617,0.4709,-0.6075,-0.3835,0.1197,-0.3129,-0.385,0.5937,0.5047,-0.3543,0.3359,-0.6029,-0.3958,0.2623,-0.2638,-0.362,0.0322,-0.0808,-0.2921,0.2778,-0.0235,0.1799,-0.2369,0.2425,-0.2869,0.3113,-0.1514,-0.0112,0.0259,-0.09,-0.2444,0.0615,0.279,0.2502,-0.2861,0.1104,0.1874,-0.0384,-0.0462,0.0659,-1.0,-0.6087,-0.8257,1.0,0.7558,1.0,1.0,-1.0,1.0,-1.0,-0.0429,-0.6178,-1.0,-1.0,-0.2703,-1.0,0.9178,1.0,0.0,0.0,0.0,0.0,0.0,0.0,0.0,0.0,0.0,0.12,0.0,0.12,0.0,0
1.4,run,0.1,5.79,-3.11,-9.05,-1.65,0.0,0.02,0.0,0.195,-20.92,-12.74,108.19,-32.7,-1.93,84.38,-15.29,-6.77,116.02,26.46,-6.15,100.2,-34.8,-8.17,93.96,-12.83,-1.23,78.66,-24.45,-18.34,103.37,-27.5,2.58,90.49,-8.49,-12.07,124.37,15.09,-13.39,97.19,-35.0,-12.86,92.7,-15.09,4.87,84.31,-1.0,-1.0,-1.0,1.0,-1.0,1.0,1.0,-1.0,1.0,-1.0,-0.4652,-0.4624,-1.0,-1.0,0.6435,-1.0,-0.6482,1.0,0.006,0.0,0.006,0.013,0.071,0.0,0.045,0.0,0.091,0.195,0.0,0.026,0.006,0.006,0.0,0.013,0.045,0.0,-0.3513,-0.4863,0.4878,-0.5937,-0.362,0.1104,-0.2899,-0.4065,0.6167,0.4832,-0.3728,0.3543,-0.6029,-0.4188,0.2761,-0.2393,-0.3375,0.0169,-0.0911,-0.2965,0.2577,0.0353,0.2065,-0.2003,0.256,-0.2814,0.3042,-0.1865,-0.0769,0.0872,-0.063,-0.2574,0.0949,0.2874,0.2673,-0.2578,0.0908,0.1753,-0.0757,-0.003,-0.0417,-1.0,-1.0,-1.0,1.0,-0.2967,1.0,1.0,-1.0,1.0,-1.0,-0.1667,-1.0,-1.0,-1.0,-0.1658,-1.0,0.409,1.0,0.0,0.0,0.0,0.0,0.0,0.0,0.0,0.0,0.0,0.1333,0.0,0.1333,0.0,0
1.44,run,-0.6,5.54,-18.17,-7.16,2.29,0.0,0.022,0.0,0.195,-22.15,-13.97,108.72,-31.38,-0.79,84.38,-13.71,-8.17,117.25,25.05,-7.56,100.46,-34.89,-9.67,94.04,-12.04,0.0,78.4,-25.95,-19.84,101.87,-26.0,1.08,91.99,-6.99,-13.57,125.87,13.59,-11.89,98.69,-35.0,-14.36,94.2,-16.59,3.37,85.81,-1.0,-0.6803,-1.0,1.0,-1.0,1.0,1.0,-1.0,1.0,-1.0,0.5752,0.4596,-1.0,-1.0,1.0,-1.0,-1.0,1.0,0.006,0.0,0.006,0.013,0.071,0.0,0.045,0.0,0.091,0.195,0.0,0.026,0.006,0.006,0.0,0.013,0.045,0.0,-0.3682,-0.5093,0.5031,-0.5768,-0.3405,0.1028,-0.2669,-0.431,0.6397,0.4602,-0.3973,0.3666,-0.6044,-0.4418,0.2838,-0.2224,-0.316,0.0061,-0.1271,-0.2939,0.2379,0.088,0.2251,-0.169,0.2655,-0.289,0.2993,-0.2169,-0.1459,0.107,-0.0499,-0.2665,0.0952,0.2644,0.2676,-0.2207,0.0694,0.1415,-0.0542,-0.1579,-0.0287,-1.0,-1.0,-1.0,1.0,-1.0,1.0,1.0,-1.0,1.0,-1.0,-0.4652,-0.4624,-1.0,-1.0,0.6435,-1.0,-0.6482,1.0,0.0,0.0,0.0,0.0,0.0,0.0,0.0,0.0,0.0,0.1467,0.0,0.1467,0.0,0
1.48,run,-0.74,5.31,-2.41,-7.2,1.98,0.0,0.024,0.0,0.195,-23.29,-15.38,108.9,-30.23,0.18,84.73,-12.22,-9.58,118.74,23.55,-8.96,100.55,-34.89,-10.99,93.69,-11.6,1.14,78.4,-27.45,-21.34,100.37,-24.5,-0.42,93.49,-5.49,-15.07,127.37,12.09,-10.39,97.19,-35.0,-15.86,95.7,-18.09,1.87,87.31,-1.0,-0.2086,-1.0,1.0,-1.0,1.0,1.0,-1.0,1.0,-1.0,0.3044,-1.0,-1.0,-1.0,1.0,-1.0,-1.0,1.0,0.006,0.0,0.006,0.013,0.071,0.0,0.045,0.0,0.091,0.195,0.0,0.026,0.006,0.006,0.0,0.013,0.045,0.0,-0.3896,-0.5308,0.5123,-0.5538,-0.3206,0.1028,-0.2393,-0.4556,0.6611,0.4357,-0.4218,0.3712,-0.6059,-0.4679,0.2853,-0.2086,-0.2945,0.0015,-0.1693,-0.2861,0.201,0.1477,0.2322,-0.1183,0.2892,-0.2942,0.2899,-0.2437,-0.194,0.0921,-0.0407,-0.2842,0.0724,0.2368,0.2677,-0.1717,0.0088,0.1194,-0.3171,-0.1249,0.04,-1.0,-0.6803,-1.0,1.0,-1.0,1.0,1.0,-1.0,1.0,-1.0,0.5752,0.4596,-1.0,-1.0,1.0,-1.0,-1.0,1.0,0.0,0.0,0.0,0.0,0.0,0.0,0.0,0.0,0.0,0.16,0.0,0.16,0.0,0
1.52,run,-1.4,5.0,-17.49,-8.61,1.8,0.0,0.026,0.0,0.195,-24.61,-16.7,108.9,-28.92,0.88,85.43,-10.9,-11.07,120.06,22.15,-10.11,100.11,-34.8,-12.48,93.69,-11.51,1.93,78.75,-28.95,-22.84,98.87,-23.0,-1.92,94.99,-3.99,-16.57,128.87,10.59,-8.89,95.69,-35.0,-17.36,97.2,-19.59,0.37,88.81,-1.0,-0.033,-1.0,1.0,-1.0,1.0,1.0,-1.0,1.0,-1.0,1.0,0.1325,-1.0,-1.0,1.0,-1.0,-1.0,1.0,0.019,0.006,0.019,0.013,0.084,0.039,0.033,0.0,0.091,0.071,0.0,0.0,0.006,0.0,0.013,0.006,0.13,0.039,-0.4096,-0.5553,0.5154,-0.5338,-0.3037,0.1089,-0.2132,-0.4801,0.6872,0.4096,-0.4464,0.3728,-0.6059,-0.4909,0.2792,-0.201,-0.2746,0.0015,-0.1934,-0.2924,0.1522,0.1783,0.2259,-0.0598,0.3004,-0.2981,0.3009,-0.2685,-0.228,0.0703,-0.0285,-0.2853,0.0276,0.1946,0.2623,-0.1202,-0.0036,0.0995,-0.0421,-0.1257,0.0346,-1.0,-0.2086,-1.0,1.0,-1.0,1.0,1.0,-1.0,1.0,-1.0,0.3044,-1.0,-1.0,-1.0,1.0,-1.0,-1.0,1.0,0.0,0.0,0.0,0.0,0.0,0.0,0.0,0.0,0.0,0.1733,0.0,0.1733,0.0,0
1.56,run,-1.86,4.67,-10.8,-8.22,7.36,0.0,0.028,0.0,0.195,-25.84,-18.02,108.46,-27.51,1.23,86.57,-9.49,-12.39,121.55,20.57,-10.99,99.49,-34.8,-13.89,94.39,-11.78,2.46,79.45,-30.45,-21.34,97.37,-21.5,-3.42,96.49,-2.49,-18.07,130.37,9.09,-7.39,94.19,-35.0,-18.86,98.7,-21.09,-1.13,90.31,-1.0,0.3774,-1.0,1.0,-1.0,1.0,1.0,-1.0,1.0,-1.0,0.8977,-1.0,-1.0,-1.0,1.0,-1.0,-1.0,1.0,0.019,0.006,0.019,0.013,0.084,0.039,0.033,0.0,0.091,0.071,0.0,0.0,0.006,0.0,0.013,0.006,0.13,0.039,-0.4326,-0.5783,0.5154,-0.5108,-0.2915,0.1212,-0.1902,-0.5062,0.7102,0.385,-0.4663,0.3651,-0.6044,-0.517,0.2792,-0.1994,-0.2608,0.0077,-0.2217,-0.291,0.1066,0.2111,0.2042,0.0042,0.2966,-0.3065,0.2969,-0.28,-0.2344,0.0204,-0.0142,-0.2975,0.0193,0.1419,0.2354,-0.0611,-0.0614,0.0724,-0.3052,-0.1502,0.0315,-1.0,-0.033,-1.0,1.0,-1.0,1.0,1.0,-1.0,1.0,-1.0,1.0,0.1325,-1.0,-1.0,1.0,-1.0,-1.0,1.0,0.0,0.0,0.0,0.0,0.0,0.0,0.0,0.0,0.0,0.1867,0.0,0.1867,0.0,0
1.6,run,-1.92,4.68,-0.14,3.1,2.58,0.0,0.03,0.0,0.195,-27.25,-19.25,107.31,-26.19,1.41,87.89,-8.0,-13.8,122.96,19.25,-11.69,98.53,-34.8,-15.29,95.01,-12.48,2.81,80.42,-31.95,-19.84,95.87,-20.0,-4.92,97.99,-0.99,-19.57,131.87,7.59,-5.89,92.69,-33.5,-20.36,100.2,-22.59,-2.63,91.81,-1.0,0.2474,-1.0,1.0,-1.0,1.0,1.0,-1.0,1.0,-1.0,1.0,-0.6038,-0.1127,-1.0,1.0,-1.0,-1.0,1.0,0.019,0.006,0.019,0.013,0.084,0.039,0.033,0.0,0.091,0.071,0.0,0.0,0.006,0.0,0.013,0.006,0.13,0.039,-0.4541,-0.6013,0.5077,-0.4863,-0.2853,0.1411,-0.1657,-0.5292,0.7363,0.3574,-0.4817,0.3543,-0.6044,-0.5415,0.2915,-0.204,-0.2516,0.0199,-0.2357,-0.29,0.0458,0.2398,0.1659,0.0777,0.2996,-0.3008,0.3056,-0.2995,-0.2216,-0.026,-0.0099,-0.3003,0.0595,0.0821,0.1993,0.0032,-0.1017,0.0431,-0.1885,-0.1434,0.1285,-1.0,0.3774,-1.0,1.0,-1.0,1.0,1.0,-1.0,1.0,-1.0,0.8977,-1.0,-1.0,-1.0,1.0,-1.0,-1.0,1.0,0.0,0.0,0.0,0.0,0.0,0.0,0.0,0.0,0.0,0.2,0.0,0.2,0.0,0
1.64,run,-2.36,4.84,-11.53,5.06,-7.14,0.0,0.032,0.0,0.195,-28.56,-19.95,106.0,-24.79,1.41,89.21,-6.68,-15.29,124.45,17.75,-12.13,97.03,-34.72,-16.7,96.15,-13.36,2.9,81.74,-33.45,-18.34,94.37,-18.5,-6.42,99.49,0.51,-21.07,133.37,6.09,-7.39,91.19,-32.0,-21.86,101.7,-24.09,-4.13,93.31,-1.0,1.0,-1.0,1.0,-1.0,1.0,1.0,-1.0,1.0,-1.0,0.076,-0.6865,1.0,-1.0,1.0,-1.0,-1.0,1.0,0.013,0.019,0.013,0.026,0.0,0.039,0.039,0.0,0.111,0.123,0.019,0.006,0.019,0.0,0.033,0.019,0.039,0.084,-0.4786,-0.6228,0.4878,-0.4633,-0.2823,0.1641,-0.1396,-0.5538,0.7609,0.3344,-0.4939,0.3375,-0.6044,-0.566,0.3022,-0.2163,-0.2454,0.0368,-0.257,-0.2835,-0.0427,0.2541,0.1276,0.1407,0.3075,-0.3026,0.3059,-0.296,-0.2011,-0.0814,-0.0069,-0.3022,0.0819,0.0115,0.1625,0.0655,-0.1071,0.0443,-0.0025,0.0542,0.0449,-1.0,0.2474,-1.0,1.0,-1.0,1.0,1.0,-1.0,1.0,-1.0,1.0,-0.6038,-0.1127,-1.0,1.0,-1.0,-1.0,1.0,0.0,0.0,0.0,0.0,0.0,0.0,0.0,0.0,0.0,0.2133,0.0,0.2133,0.0,0
1.68,run,-2.36,4.58,0.25,-4.81,4.36,0.0,0.034,0.0,0.195,-30.41,-21.09,104.24,-23.12,0.97,90.88,-5.1,-16.96,126.12,16.0,-12.22,95.27,-34.1,-18.46,97.82,-14.77,2.9,83.23,-34.95,-16.84,92.87,-17.0,-7.92,100.99,2.01,-22.57,134.87,4.59,-8.89,89.69,-30.5,-23.36,103.2,-25.59,-5.63,94.81,-1.0,1.0,-1.0,1.0,-0.8933,1.0,1.0,-1.0,1.0,-1.0,-0.632,-1.0,1.0,-1.0,1.0,-1.0,-1.0,1.0,0.013,0.019,0.013,0.026,0.0,0.039,0.039,0.0,0.111,0.123,0.019,0.006,0.019,0.0,0.033,0.019,0.039,0.084,-0.5016,-0.6351,0.4648,-0.4387,-0.2823,0.1871,-0.1166,-0.5798,0.7869,0.3083,-0.5016,0.3114,-0.6029,-0.5906,0.3221,-0.2316,-0.2439,0.0598,-0.2662,-0.2445,-0.1162,0.2699,0.0894,0.1847,0.3015,-0.3096,0.3119,-0.3049,-0.1695,-0.1548,0.0009,-0.3036,0.1321,-0.0495,0.1195,0.1321,-0.1452,0.058,-0.2012,0.0883,-0.1247,-1.0,1.0,-1.0,1.0,-1.0,1.0,1.0,-1.0,1.0,-1.0,0.076,-0.6865,1.0,-1.0,1.0,-1.0,-1.0,1.0,0.0,0.0,0.0,0.0,0.0,0.0,0.0,0.0,0.0,0.2267,0.0,0.2267,0.0,0
1.72,run,-2.07,4.53,8.17,-0.09,1.16,0.0,0.036,0.0,0.195,-31.64,-21.8,102.83,-21.88,0.0,92.29,-3.6,-18.46,127.44,14.68,-12.22,93.87,-33.13,-19.86,99.14,-16.26,2.29,84.55,-35.0,-15.34,91.37,-15.5,-9.42,102.49,3.51,-24.07,136.37,3.09,-7.39,91.19,-29.0,-24.86,104.7,-27.09,-7.13,96.31,-1.0,0.9445,-1.0,1.0,-1.0,1.0,1.0,-0.3887,1.0,-1.0,0.5046,0.4545,1.0,-1.0,1.0,-1.0,-1.0,1.0,0.013,0.019,0.013,0.026,0.0,0.039,0.039,0.0,0.111,0.123,0.019,0.006,0.019,0.0,0.033,0.019,0.039,0.084,-0.5338,-0.655,0.4341,-0.4096,-0.2899,0.2163,-0.089,-0.609,0.8161,0.2777,-0.5031,0.2807,-0.5921,-0.6213,0.3513,-0.2562,-0.2439,0.0859,-0.2867,-0.2333,-0.1769,0.2798,0.0386,0.2202,0.2971,-0.3076,0.3092,-0.3091,-0.1235,-0.204,0.0341,-0.3081,0.1833,-0.1112,0.0837,0.1738,-0.1454,0.0357,0.0044,-0.084,0.0761,-1.0,1.0,-1.0,1.0,-0.8933,1.0,1.0,-1.0,1.0,-1.0,-0.632,-1.0,1.0,-1.0,1.0,-1.0,-1.0,1.0,0.0,0.0,0.0,0.0,0.0,0.0,0.0,0.0,0.0,0.24,0.0,0.24,0.0,0
1.76,run,-0.74,4.91,10.32,2.71,-15.08,0.0,0.038,0.0,0.195,-34.8,-21.45,98.0,-17.31,-4.66,97.12,1.23,-22.5,132.01,9.76,-10.28,90.18,-29.09,-24.52,104.06,-20.92,-1.93,89.3,-35.0,-13.84,89.87,-14.0,-10.92,103.99,5.01,-22.57,137.87,1.59,-8.89,89.69,-27.5,-26.36,106.2,-28.59,-8.63,97.81,-1.0,1.0,-1.0,1.0,-1.0,1.0,1.0,0.0908,1.0,-1.0,-0.7062,-1.0,1.0,-1.0,1.0,-1.0,-1.0,1.0,0.006,0.019,0.019,0.039,0.0,0.065,0.033,0.026,0.163,0.111,0.091,0.0,0.013,0.0,0.013,0.039,0.0,0.104,-0.5553,-0.6673,0.4096,-0.3881,-0.3068,0.2408,-0.0629,-0.6351,0.8391,0.2546,-0.5031,0.2562,-0.5752,-0.6458,0.3743,-0.2823,-0.2546,0.1089,-0.2808,-0.209,-0.2154,0.2759,-0.0359,0.2456,0.3052,-0.3125,0.3022,-0.3021,-0.0864,-0.2343,0.0868,-0.3072,0.2141,-0.175,0.0185,0.2074,-0.1197,0.0313,0.1426,-0.0015,0.0203,-1.0,0.9445,-1.0,1.0,-1.0,1.0,1.0,-0.3887,1.0,-1.0,0.5046,0.4545,1.0,-1.0,1.0,-1.0,-1.0,1.0,0.0,0.0,0.0,0.0,0.0,0.0,0.0,0.0,0.0,0.2533,0.0,0.2533,0.0,0
1.8,run,-0.75,5.19,-0.6,6.64,-10.3,0.0,0.04,0.0,0.195,-34.98,-19.95,95.62,-16.17,-6.42,98.7,2.46,-23.12,133.51,8.0,-10.02,89.38,-28.21,-25.66,105.03,-22.68,-3.78,90.97,-35.0,-12.34,88.37,-12.5,-12.42,105.49,6.51,-21.07,139.37,0.09,-10.39,91.19,-26.0,-24.86,107.7,-30.09,-10.13,99.31,-1.0,1.0,-1.0,1.0,-1.0,1.0,1.0,1.0,1.0,-1.0,-1.0,0.482,1.0,0.4421,1.0,-1.0,-1.0,1.0,0.006,0.019,0.019,0.039,0.0,0.065,0.033,0.026,0.163,0.111,0.091,0.0,0.013,0.0,0.013,0.039,0.0,0.104,-0.6105,-0.6611,0.3252,-0.3083,-0.3881,0.3252,0.0215,-0.7056,0.9189,0.1687,-0.4694,0.1917,-0.5047,-0.7271,0.4602,-0.3636,-0.3283,0.1917,-0.2565,-0.1397,-0.2424,0.2798,-0.1134,0.2636,0.3053,-0.2954,0.2982,-0.3048,-0.0238,-0.234,0.1374,-0.3033,0.2432,-0.2108,-0.067,0.2352,-0.0037,0.0644,0.1801,0.0474,-0.2632,-1.0,1.0,-1.0,1.0,-1.0,1.0,1.0,0.0908,1.0,-1.0,-0.7062,-1.0,1.0,-1.0,1.0,-1.0,-1.0,1.0,0.0,0.0,0.0,0.0,0.0,0.0,0.0,0.0,0.0,0.2667,0.0,0.2667,0.0,0
1.84,run,-0.69,5.82,2.23,17.21,-5.2,0.0,0.042,0.0,0.195,-34.89,-18.72,94.48,-15.47,-7.82,100.11,3.34,-23.29,134.56,6.42,-10.02,89.21,-27.69,-26.1,105.64,-24.08,-5.27,92.37,-35.0,-10.84,86.87,-11.0,-13.92,106.99,8.01,-19.57,140.87,-1.41,-11.89,89.69,-24.5,-23.36,109.2,-31.59,-11.63,100.81,-1.0,1.0,-1.0,1.0,-1.0,1.0,1.0,1.0,1.0,-1.0,-1.0,-1.0,1.0,0.6941,1.0,-1.0,-0.5427,1.0,0.006,0.019,0.019,0.039,0.0,0.065,0.033,0.026,0.163,0.111,0.091,0.0,0.013,0.0,0.013,0.039,0.0,0.104,-0.6136,-0.6351,0.2838,-0.2884,-0.4188,0.3528,0.043,-0.7164,0.9449,0.1381,-0.4648,0.1779,-0.4893,-0.747,0.4771,-0.3942,-0.3605,0.2209,-0.1892,-0.0163,-0.299,0.2581,-0.1752,0.2707,0.2808,-0.2403,0.2902,-0.3092,-0.0023,-0.2069,0.1441,-0.2746,0.2229,-0.2434,-0.1475,0.2556,-0.0051,0.0886,-0.0105,0.1159,-0.1797,-1.0,1.0,-1.0,1.0,-1.0,1.0,1.0,1.0,1.0,-1.0,-1.0,0.482,1.0,0.4421,1.0,-1.0,-1.0,1.0,0.0,0.0,0.0,0.0,0.0,0.0,0.0,0.0,0.0,0.28,0.0,0.28,0.0,0
1.88,run,-0.49,6.19,5.3,8.87,0.03,0.0,0.044,0.0,0.364,-34.89,-17.58,93.16,-14.68,-9.23,101.6,4.39,-23.29,135.18,4.92,-10.02,89.21,-27.07,-26.46,106.44,-25.31,-6.68,93.69,-35.0,-9.34,85.37,-9.5,-15.42,108.49,9.51,-18.07,142.37,-2.91,-13.39,88.19,-23.0,-21.86,110.7,-33.09,-10.13,102.31,-1.0,1.0,-1.0,1.0,-0.9925,1.0,1.0,1.0,1.0,-1.0,-1.0,-1.0,1.0,1.0,1.0,-1.0,0.6704,1.0,0.0,0.052,0.006,0.045,0.0,0.065,0.039,0.149,0.364,0.052,0.0,0.006,0.019,0.013,0.033,0.052,0.0,0.163,-0.6121,-0.6136,0.2638,-0.2761,-0.4433,0.3774,0.0583,-0.7194,0.9633,0.1104,-0.4648,0.1749,-0.4801,-0.7547,0.4878,-0.4188,-0.3866,0.2454,-0.1267,0.0684,-0.2835,0.2263,-0.2139,0.2808,0.2536,-0.1796,0.2716,-0.3191,-0.0016,-0.1562,0.1351,-0.2208,0.196,-0.2616,-0.2002,0.2702,0.0002,0.144,0.0389,0.3004,-0.0908,-1.0,1.0,-1.0,1.0,-1.0,1.0,1.0,1.0,1.0,-1.0,-1.0,-1.0,1.0,0.6941,1.0,-1.0,-0.5427,1.0,0.0,0.0,0.0,0.0,0.0,0.0,0.0,0.0,0.0,0.2933,0.0,0.2933,0.0,0
1.92,run,-0.43,6.42,2.81,8.09,0.83,0.0,0.046,0.0,0.364,-34.89,-16.26,91.76,-13.54,-10.55,103.01,5.62,-23.29,135.88,3.43,-10.81,89.12,-26.1,-26.37,107.58,-26.72,-8.0,95.01,-35.0,-10.84,83.87,-8.0,-16.92,109.99,11.01,-16.57,140.87,-4.41,-14.89,86.69,-21.5,-20.36,112.2,-34.59,-8.63,103.81,-1.0,0.2002,-1.0,1.0,-1.0,1.0,1.0,1.0,0.2114,-1.0,-1.0,-1.0,1.0,1.0,1.0,-1.0,0.7846,1.0,0.0,0.052,0.006,0.045,0.0,0.065,0.039,0.149,0.364,0.052,0.0,0.006,0.019,0.013,0.033,0.052,0.0,0.163,-0.6121,-0.5937,0.2408,-0.2623,-0.4679,0.4034,0.0767,-0.7194,0.9741,0.0844,-0.4648,0.1749,-0.4694,-0.7609,0.5016,-0.4403,-0.4111,0.2684,-0.0887,0.1226,-0.2846,0.2101,-0.2416,0.2942,0.2464,-0.1257,0.2303,-0.321,-0.0011,-0.1094,0.1348,-0.1775,0.1889,-0.2635,-0.232,0.2753,0.0176,0.1759,0.0925,0.1549,0.0004,-1.0,1.0,-1.0,1.0,-0.9925,1.0,1.0,1.0,1.0,-1.0,-1.0,-1.0,1.0,1.0,1.0,-1.0,0.6704,1.0,0.0,0.0,0.0,0.0,0.0,0.0,0.0,0.0,0.0,0.3067,0.0,0.3067,0.0,0
1.96,run,-0.53,6.58,-1.08,3.0,-2.75,0.0,0.048,0.0,0.364,-34.89,-15.03,90.26,-12.22,-11.87,104.33,6.86,-22.68,136.32,1.85,-11.87,88.42,-24.87,-25.93,108.72,-27.95,-8.96,96.24,-35.0,-11.09,82.37,-6.5,-18.42,111.49,12.51,-15.07,139.37,-5.91,-16.39,85.19,-20.0,-18.86,110.7,-35.0,-7.13,105.31,-1.0,0.2529,-1.0,1.0,-1.0,1.0,1.0,1.0,-0.7236,-0.8431,-1.0,-1.0,1.0,1.0,0.1633,-1.0,0.9012,1.0,0.0,0.052,0.006,0.045,0.0,0.065,0.039,0.149,0.364,0.052,0.0,0.006,0.019,0.013,0.033,0.052,0.0,0.163,-0.6121,-0.5706,0.2163,-0.2424,-0.4909,0.428,0.0982,-0.7194,0.9863,0.0583,-0.4786,0.1733,-0.4525,-0.7593,0.5216,-0.4648,-0.4341,0.2915,-0.0621,0.1722,-0.2914,0.222,-0.2556,0.2981,0.2532,-0.088,0.2073,-0.3227,-0.0527,-0.0823,0.1577,-0.1185,0.2071,-0.2767,-0.2489,0.2792,0.0235,0.1961,0.049,0.1412,0.0146,-1.0,0.2002,-1.0,1.0,-1.0,1.0,1.0,1.0,0.2114,-1.0,-1.0,-1.0,1.0,1.0,1.0,-1.0,0.7846,1.0,0.0,0.0,0.0,0.0,0.0,0.0,0.0,0.0,0.0,0.32,0.0,0.32,0.0,0
2.0,run,-0.59,6.8,1.74,5.12,-6.26,0.0,0.05,0.0,0.799,-34.89,-14.06,88.95,-10.9,-13.27,105.82,8.17,-21.8,136.58,0.35,-13.01,87.63,-23.47,-25.31,109.78,-29.36,-9.76,97.73,-35.0,-9.59,80.87,-8.0,-19.92,112.99,14.01,-13.57,137.87,-7.41,-17.89,83.69,-18.5,-17.36,109.2,-35.0,-5.63,106.81,-1.0,1.0,-0.8199,-1.0,-1.0,1.0,1.0,1.0,-1.0,-0.3417,-1.0,-0.1569,1.0,1.0,-1.0,-1.0,0.4424,1.0,0.0,0.091,0.013,0.039,0.0,0.071,0.039,0.377,0.799,0.026,0.0,0.006,0.026,0.104,0.039,0.117,0.0,0.136,-0.6121,-0.5492,0.1902,-0.2194,-0.5139,0.451,0.1197,-0.7087,0.994,0.0307,-0.497,0.1611,-0.431,-0.7517,0.5415,-0.4863,-0.451,0.3129,-0.0435,0.2011,-0.3017,0.2417,-0.2652,0.2949,0.2577,-0.0214,0.1739,-0.3294,-0.1059,-0.1036,0.1909,-0.0542,0.2197,-0.2742,-0.2375,0.2759,0.0148,0.2103,-0.0189,0.0523,-0.0479,-1.0,0.2529,-1.0,1.0,-1.0,1.0,1.0,1.0,-0.7236,-0.8431,-1.0,-1.0,1.0,1.0,0.1633,-1.0,0.9012,1.0,0.0,0.0,0.0,0.0,0.0,0.0,0.0,0.0,0.0,0.3333,0.0,0.3333,0.0,0
2.04,run,-0.45,7.2,5.06,10.4,0.6,0.0,0.05,0.0,0.799,-35.16,-13.1,87.54,-9.58,-14.68,107.23,9.49,-20.65,136.67,-1.14,-14.24,86.48,-22.06,-24.35,110.65,-30.85,-10.46,99.23,-33.5,-8.09,82.37,-9.5,-21.42,114.49,15.51,-15.07,136.37,-8.91,-19.39,85.19,-17.0,-15.86,107.7,-35.0,-7.13,108.31,1.0,1.0,0.7594,-1.0,-1.0,1.0,1.0,-0.1023,-1.0,-0.42,-1.0,1.0,1.0,1.0,-1.0,-1.0,0.0255,1.0,0.0,0.091,0.013,0.039,0.0,0.071,0.039,0.377,0.799,0.026,0.0,0.006,0.026,0.104,0.039,0.117,0.0,0.136,-0.6121,-0.5323,0.1672,-0.1963,-0.5384,0.4771,0.1427,-0.6934,0.9986,0.0046,-0.517,0.1473,-0.4065,-0.7409,0.5599,-0.5108,-0.4648,0.339,-0.0304,0.2041,-0.2976,0.2555,-0.2777,0.3043,0.2667,0.0426,0.139,-0.3284,-0.1489,-0.1243,0.2257,0.0024,0.2229,-0.284,-0.218,0.291,0.0089,0.2294,0.0304,0.0893,-0.1092,-1.0,1.0,-0.8199,-1.0,-1.0,1.0,1.0,1.0,-1.0,-0.3417,-1.0,-0.1569,1.0,1.0,-1.0,-1.0,0.4424,1.0,0.0,0.0,0.0,0.0,0.0,0.0,0.0,0.0,0.0,0.3333,0.0,0.3333,0.0,0
2.08,run,-0.34,7.3,3.92,2.07,9.35,0.0,0.05,0.0,0.799,-35.07,-12.04,86.04,-8.53,-16.08,108.72,10.72,-19.42,136.67,-2.72,-14.94,85.52,-20.65,-23.2,111.01,-32.08,-10.63,100.63,-32.0,-6.59,83.87,-11.0,-22.92,115.99,17.01,-16.57,134.87,-7.41,-20.89,86.69,-15.5,-14.36,106.2,-35.0,-8.63,106.81,1.0,1.0,1.0,-1.0,-1.0,1.0,1.0,-1.0,-1.0,0.9941,-1.0,1.0,1.0,1.0,-1.0,-1.0,-0.2088,0.0896,0.0,0.091,0.013,0.039,0.0,0.071,0.039,0.377,0.799,0.026,0.0,0.006,0.026,0.104,0.039,0.117,0.0,0.136,-0.6167,-0.5154,0.1427,-0.1733,-0.563,0.5016,0.1657,-0.6734,1.0002,-0.0215,-0.5384,0.1273,-0.382,-0.724,0.5752,-0.5369,-0.4771,0.3651,-0.0385,0.2061,-0.3003,0.2651,-0.2864,0.305,0.273,0.1046,0.103,-0.3276,-0.1848,-0.1618,0.25,0.0649,0.2135,-0.2966,-0.1986,0.3015,0.0219,0.2641,0.0883,0.1815,0.0104,1.0,1.0,0.7594,-1.0,-1.0,1.0,1.0,-0.1023,-1.0,-0.42,-1.0,1.0,1.0,1.0,-1.0,-1.0,0.0255,1.0,0.0,0.0,0.0,0.0,0.0,0.0,0.0,0.0,0.0,0.3333,0.0,0.3333,0.0,0
2.12,run,0.24,7.54,15.44,5.55,10.38,0.0,0.05,0.0,0.799,-34.45,-10.9,84.81,-7.82,-17.4,110.21,12.13,-18.63,136.67,-4.13,-16.7,84.46,-19.25,-21.8,111.18,-33.05,-10.63,101.87,-30.5,-5.09,85.37,-12.5,-24.42,114.49,18.51,-18.07,133.37,-5.91,-22.39,88.19,-14.0,-12.86,104.7,-35.0,-10.13,105.31,1.0,1.0,1.0,-1.0,-1.0,-0.5898,1.0,-1.0,-1.0,1.0,-1.0,1.0,0.3889,1.0,-1.0,-1.0,-1.0,-1.0,0.013,0.084,0.0,0.019,0.0,0.058,0.052,0.579,0.604,0.006,0.019,0.006,0.019,0.169,0.039,0.039,0.065,0.13,-0.6151,-0.497,0.1166,-0.1549,-0.5875,0.5277,0.1871,-0.6519,1.0002,-0.0491,-0.5507,0.1104,-0.3574,-0.7041,0.5814,-0.5584,-0.4801,0.3896,-0.0212,0.2132,-0.3078,0.2545,-0.2924,0.3112,0.2715,0.1536,0.0721,-0.3327,-0.1753,-0.1764,0.2669,0.1201,0.1724,-0.288,-0.1505,0.3029,0.0313,0.273,0.0684,0.0362,0.1633,1.0,1.0,1.0,-1.0,-1.0,1.0,1.0,-1.0,-1.0,0.9941,-1.0,1.0,1.0,1.0,-1.0,-1.0,-0.2088,0.0896,0.0,0.0,0.0,0.0,0.0,0.0,0.0,0.0,0.0,0.3333,0.0,0.3333,0.0,0
2.16,run,0.46,7.63,6.92,2.59,17.19,0.0,0.05,0.0,0.799,-33.75,-9.58,83.67,-7.29,-18.72,111.53,13.54,-17.67,136.67,-5.36,-17.93,84.11,-17.67,-20.39,111.27,-33.93,-10.63,103.18,-29.0,-3.59,86.87,-14.0,-25.92,112.99,20.01,-19.57,131.87,-4.41,-23.89,89.69,-15.5,-11.36,103.2,-35.0,-11.63,103.81,1.0,1.0,1.0,-1.0,-1.0,-1.0,1.0,-1.0,-1.0,1.0,-1.0,1.0,-0.906,1.0,-1.0,-1.0,-1.0,-1.0,0.013,0.084,0.0,0.019,0.0,0.058,0.052,0.579,0.604,0.006,0.019,0.006,0.019,0.169,0.039,0.039,0.065,0.13,-0.6044,-0.4771,0.0951,-0.1427,-0.6105,0.5538,0.2117,-0.6381,1.0002,-0.0736,-0.5814,0.092,-0.3329,-0.6796,0.5844,-0.5752,-0.4801,0.4111,0.0255,0.2241,-0.2961,0.2242,-0.2911,0.3157,0.2822,0.1594,0.0505,-0.3251,-0.2379,-0.1926,0.279,0.1762,0.1322,-0.265,-0.1054,0.2927,0.082,0.2943,0.2694,0.0969,0.1811,1.0,1.0,1.0,-1.0,-1.0,-0.5898,1.0,-1.0,-1.0,1.0,-1.0,1.0,0.3889,1.0,-1.0,-1.0,-1.0,-1.0,0.0,0.0,0.0,0.0,0.0,0.0,0.0,0.0,0.0,0.3333,0.0,0.3333,0.0,0
2.2,run,1.14,7.96,17.21,8.72,21.1,0.0,0.05,0.0,0.799,-32.7,-8.35,82.88,-7.21,-20.04,112.59,15.03,-17.14,136.67,-6.42,-19.42,83.76,-16.26,-18.98,110.65,-34.28,-10.63,104.15,-27.5,-2.09,88.37,-15.5,-27.42,111.49,21.51,-21.07,130.37,-2.91,-25.39,91.19,-17.0,-9.86,101.7,-33.5,-13.13,102.31,1.0,0.4416,1.0,-1.0,-1.0,-1.0,1.0,-1.0,-1.0,1.0,-1.0,1.0,-1.0,1.0,-1.0,0.1284,-1.0,-1.0,0.013,0.084,0.0,0.019,0.0,0.058,0.052,0.579,0.604,0.006,0.019,0.006,0.019,0.169,0.039,0.039,0.065,0.13,-0.5921,-0.4541,0.0752,-0.1335,-0.6335,0.5768,0.2362,-0.6213,1.0002,-0.0951,-0.6029,0.0859,-0.3053,-0.655,0.586,-0.5906,-0.4801,0.4341,0.0638,0.2432,-0.2821,0.1915,-0.2901,0.3073,0.2896,0.1749,0.0353,-0.3081,-0.2471,-0.1579,0.2989,0.2154,0.0983,-0.243,-0.0738,0.2912,0.1009,0.302,0.1207,0.0452,0.2999,1.0,1.0,1.0,-1.0,-1.0,-1.0,1.0,-1.0,-1.0,1.0,-1.0,1.0,-0.906,1.0,-1.0,-1.0,-1.0,-1.0,0.0,0.0,0.0,0.0,0.0,0.0,0.0,0.0,0.0,0.3333,0.0,0.3333,0.0,0
2.24,run,1.49,8.06,8.4,4.66,18.1,0.0,0.05,0.0,0.799,-31.38,-7.12,82.44,-7.38,-21.53,113.47,16.44,-16.7,136.67,-7.03,-20.83,83.94,-15.21,-17.4,109.95,-34.45,-10.63,104.85,-26.0,-3.59,89.87,-17.0,-28.92,109.99,23.01,-22.57,128.87,-1.41,-26.89,92.69,-18.5,-8.36,100.2,-32.0,-14.63,100.81,1.0,0.0365,1.0,-1.0,-1.0,-1.0,1.0,-1.0,-1.0,1.0,-1.0,1.0,-1.0,1.0,-1.0,1.0,-1.0,-1.0,0.026,0.104,0.0,0.006,0.0,0.019,0.045,0.24,0.052,0.006,0.013,0.013,0.006,0.104,0.0,0.006,0.0,0.058,-0.5737,-0.4326,0.0614,-0.1319,-0.6565,0.5952,0.2623,-0.6121,1.0002,-0.1135,-0.6289,0.0798,-0.2807,-0.6305,0.5752,-0.5967,-0.4801,0.451,0.1136,0.2507,-0.2492,0.1398,-0.2892,0.2841,0.3004,0.1569,0.0247,-0.2846,-0.2706,-0.1335,0.3011,0.2427,0.0286,-0.1931,-0.0516,0.267,0.1604,0.3302,0.3003,0.1522,0.3683,1.0,0.4416,1.0,-1.0,-1.0,-1.0,1.0,-1.0,-1.0,1.0,-1.0,1.0,-1.0,1.0,-1.0,0.1284,-1.0,-1.0,0.0,0.0,0.0,0.0,0.0,0.0,0.0,0.0,0.0,0.3333,0.0,0.3333,0.0,0
2.28,run,1.79,8.07,6.48,2.63,16.89,0.0,0.05,0.0,0.799,-30.06,-5.89,82.44,-8.0,-22.94,113.91,17.93,-16.61,136.49,-7.29,-22.24,84.46,-14.5,-16.0,108.72,-34.01,-10.99,105.12,-24.5,-5.09,91.37,-18.5,-30.42,108.49,24.51,-24.07,127.37,0.09,-28.39,94.19,-20.0,-6.86,98.7,-30.5,-16.13,99.31,1.0,-0.4814,1.0,-1.0,-1.0,-1.0,1.0,-1.0,-1.0,1.0,-1.0,1.0,-1.0,1.0,-1.0,1.0,-1.0,-1.0,0.026,0.104,0.0,0.006,0.0,0.019,0.045,0.24,0.052,0.006,0.013,0.013,0.006,0.104,0.0,0.006,0.0,0.058,-0.5507,-0.4111,0.0537,-0.135,-0.6826,0.6105,0.2869,-0.6044,1.0002,-0.1243,-0.6535,0.0828,-0.2623,-0.6029,0.563,-0.5998,-0.4801,0.4633,0.166,0.2562,-0.2032,0.0863,-0.3004,0.2565,0.3025,0.1386,0.0173,-0.2396,-0.2817,-0.0819,0.28,0.2737,-0.0261,-0.1467,-0.0361,0.233,0.1912,0.3389,0.1466,0.0813,0.3159,1.0,0.0365,1.0,-1.0,-1.0,-1.0,1.0,-1.0,-1.0,1.0,-1.0,1.0,-1.0,1.0,-1.0,1.0,-1.0,-1.0,0.0,0.0,0.0,0.0,0.0,0.0,0.0,0.0,0.0,0.3333,0.0,0.3333,0.0,0
2.32,run,2.11,8.12,7.9,2.99,13.84,0.0,0.05,0.0,0.799,-28.65,-5.1,82.44,-8.44,-24.35,114.08,19.25,-16.52,135.79,-7.29,-23.73,85.52,-14.15,-14.59,107.31,-33.31,-11.87,105.21,-23.0,-6.59,92.87,-20.0,-31.92,106.99,26.01,-25.57,125.87,1.59,-29.89,95.69,-21.5,-5.36,97.2,-29.0,-17.63,97.81,1.0,-1.0,1.0,-1.0,-1.0,-1.0,0.9829,-1.0,-1.0,1.0,-1.0,1.0,-1.0,1.0,-1.0,1.0,-1.0,-1.0,0.026,0.104,0.0,0.006,0.0,0.019,0.045,0.24,0.052,0.006,0.013,0.013,0.006,0.104,0.0,0.006,0.0,0.058,-0.5277,-0.3896,0.0537,-0.1457,-0.7072,0.6182,0.3129,-0.6029,0.9971,-0.1289,-0.678,0.092,-0.25,-0.5783,0.5415,-0.5921,-0.4863,0.4679,0.2024,0.2597,-0.1423,0.0202,-0.3022,0.2083,0.3094,0.1028,0.0006,-0.1849,-0.2891,-0.0229,0.2419,0.2835,-0.0987,-0.074,-0.0483,0.1804,0.2168,0.3405,0.1131,0.0459,0.2948,1.0,-0.4814,1.0,-1.0,-1.0,-1.0,1.0,-1.0,-1.0,1.0,-1.0,1.0,-1.0,1.0,-1.0,1.0,-1.0,-1.0,0.0,0.0,0.0,0.0,0.0,0.0,0.0,0.0,0.0,0.3333,0.0,0.3333,0.0,0
2.36,run,2.07,8.16,-1.07,3.6,17.77,0.0,0.05,0.0,0.799,-27.42,-4.48,82.97,-10.02,-25.75,113.73,20.57,-16.96,135.0,-6.68,-25.14,86.66,-14.15,-13.18,106.0,-32.26,-13.01,105.12,-21.5,-8.09,94.37,-21.5,-33.42,105.49,24.51,-27.07,124.37,3.09,-31.39,97.19,-23.0,-3.86,95.7,-27.5,-19.13,96.31,1.0,-1.0,1.0,-1.0,-1.0,-1.0,0.3538,-1.0,-1.0,1.0,-1.0,1.0,-1.0,1.0,-1.0,1.0,-1.0,-1.0,0.045,0.123,0.052,0.019,0.006,0.006,0.033,0.0,0.006,0.013,0.019,0.013,0.019,0.123,0.0,0.006,0.006,0.0,-0.5031,-0.3758,0.0537,-0.1534,-0.7317,0.6213,0.3359,-0.6013,0.9848,-0.1289,-0.7041,0.1104,-0.2439,-0.5538,0.517,-0.5798,-0.5016,0.4694,0.2337,0.2336,-0.0996,-0.0146,-0.3036,0.1573,0.3029,0.0777,-0.0456,-0.1295,-0.3002,0.053,0.1924,0.2905,-0.1611,-0.0057,-0.0913,0.132,0.2451,0.3441,0.1379,0.0522,0.2416,1.0,-1.0,1.0,-1.0,-1.0,-1.0,0.9829,-1.0,-1.0,1.0,-1.0,1.0,-1.0,1.0,-1.0,1.0,-1.0,-1.0,0.0,0.0,0.0,0.0,0.0,0.0,0.0,0.0,0.0,0.3333,0.0,0.3333,0.0,0
2.4,run,1.94,7.71,-2.61,-9.87,22.52,0.0,0.05,0.0,0.799,-25.75,-4.13,84.11,-11.6,-27.33,112.85,22.15,-18.63,133.86,-5.62,-26.81,88.42,-14.59,-11.6,104.15,-30.76,-14.5,104.41,-20.0,-9.59,95.87,-23.0,-34.92,103.99,23.01,-28.57,122.87,4.59,-32.89,98.69,-24.5,-2.36,94.2,-26.0,-20.63,94.81,0.1111,-1.0,1.0,-1.0,-0.5443,-1.0,-0.1618,-1.0,-1.0,1.0,-1.0,1.0,-1.0,1.0,-1.0,1.0,-1.0,-1.0,0.045,0.123,0.052,0.019,0.006,0.006,0.033,0.0,0.006,0.013,0.019,0.013,0.019,0.123,0.0,0.006,0.006,0.0,-0.4817,-0.3651,0.0629,-0.181,-0.7563,0.6151,0.359,-0.609,0.971,-0.1181,-0.7286,0.1304,-0.2439,-0.5292,0.4939,-0.5614,-0.5216,0.4679,0.2441,0.2038,-0.0352,-0.1138,-0.3046,0.0871,0.2983,0.0256,-0.0837,-0.0504,-0.3022,0.1119,0.1347,0.2954,-0.1991,0.065,-0.1387,0.0866,0.241,0.3481,-0.0186,0.0628,0.3102,1.0,-1.0,1.0,-1.0,-1.0,-1.0,0.3538,-1.0,-1.0,1.0,-1.0,1.0,-1.0,1.0,-1.0,1.0,-1.0,-1.0,0.0,0.0,0.0,0.0,0.0,0.0,0.0,0.0,0.0,0.3333,0.0,0.3333,0.0,0
2.44,run,2.49,7.63,14.46,-0.72,31.45,0.0,0.05,0.0,0.799,-24.26,-4.13,85.43,-13.1,-28.65,111.62,23.29,-19.78,133.07,-4.66,-28.21,89.82,-15.29,-10.28,102.66,-29.36,-15.73,103.36,-21.5,-11.09,97.37,-24.5,-33.42,102.49,21.51,-27.07,121.37,6.09,-34.39,100.19,-26.0,-0.86,92.7,-24.5,-22.12,93.31,-0.9501,-1.0,1.0,-1.0,0.1202,-1.0,-1.0,0.4987,-1.0,1.0,-1.0,1.0,-1.0,1.0,-1.0,1.0,-1.0,-1.0,0.045,0.123,0.052,0.019,0.006,0.006,0.033,0.0,0.006,0.013,0.019,0.013,0.019,0.123,0.0,0.006,0.006,0.0,-0.4525,-0.359,0.0828,-0.2086,-0.7839,0.5998,0.3866,-0.6381,0.9511,-0.0997,-0.7578,0.1611,-0.2516,-0.5016,0.4617,-0.5354,-0.5476,0.4556,0.262,0.1618,0.0377,-0.166,-0.2995,0.013,0.2951,-0.0732,-0.1209,0.0223,-0.3026,0.1742,0.0703,0.2931,-0.2401,0.127,-0.1786,0.0223,0.2296,0.3083,-0.0456,-0.1723,0.3931,0.1111,-1.0,1.0,-1.0,-0.5443,-1.0,-0.1618,-1.0,-1.0,1.0,-1.0,1.0,-1.0,1.0,-1.0,1.0,-1.0,-1.0,0.0,0.0,0.0,0.0,0.0,0.0,0.0,0.0,0.0,0.3333,0.0,0.3333,0.0,0
2.48,run,2.75,7.55,6.18,-0.48,22.08,0.0,0.05,0.0,0.799,-22.85,-4.13,86.75,-14.68,-29.79,110.3,24.08,-21.27,131.66,-2.81,-29.71,91.23,-16.26,-8.88,101.25,-27.95,-16.88,102.13,-20.0,-12.59,98.87,-26.0,-31.92,100.99,20.01,-28.57,119.87,7.59,-35.89,101.69,-27.5,0.64,91.2,-23.0,-23.62,91.81,-0.433,-1.0,1.0,-1.0,0.0008,-1.0,-1.0,-1.0,-1.0,1.0,-1.0,1.0,-1.0,1.0,-1.0,1.0,-1.0,-1.0,0.019,0.0,0.058,0.019,0.019,0.019,0.019,0.0,0.039,0.006,0.019,0.006,0.065,0.195,0.0,0.013,0.026,0.019,-0.4264,-0.359,0.1058,-0.2347,-0.8069,0.5783,0.4065,-0.6581,0.9373,-0.0828,-0.7823,0.1856,-0.2638,-0.4786,0.4357,-0.5108,-0.5691,0.4372,0.2802,0.1133,0.1118,-0.213,-0.2951,-0.0706,0.2806,-0.1253,-0.1359,0.0783,-0.303,0.2131,0.0036,0.2906,-0.2649,0.1801,-0.2048,-0.0528,0.2777,0.3014,0.2524,-0.0126,0.5488,-0.9501,-1.0,1.0,-1.0,0.1202,-1.0,-1.0,0.4987,-1.0,1.0,-1.0,1.0,-1.0,1.0,-1.0,1.0,-1.0,-1.0,0.0,0.0,0.0,0.0,0.0,0.0,0.0,0.0,0.0,0.3333,0.0,0.3333,0.0,0
2.52,run,3.16,7.38,9.67,-0.95,12.34,0.0,0.05,0.0,0.799,-21.88,-4.66,88.15,-16.08,-30.59,108.81,24.61,-22.59,130.52,-1.58,-31.03,92.64,-17.49,-7.47,99.93,-26.54,-17.67,100.72,-21.5,-14.09,100.37,-27.5,-30.42,99.49,18.51,-27.07,118.37,9.09,-37.39,103.19,-29.0,2.14,89.7,-21.5,-25.12,90.31,-0.793,-1.0,1.0,-1.0,1.0,-1.0,-1.0,0.3195,-1.0,1.0,-1.0,1.0,-1.0,1.0,-1.0,1.0,-1.0,-1.0,0.019,0.0,0.058,0.019,0.019,0.019,0.019,0.0,0.039,0.006,0.019,0.006,0.065,0.195,0.0,0.013,0.026,0.019,-0.4019,-0.359,0.1289,-0.2623,-0.8268,0.5553,0.4203,-0.6842,0.9127,-0.0506,-0.8084,0.2102,-0.2807,-0.4541,0.4111,-0.4863,-0.589,0.4157,0.2882,0.0793,0.1646,-0.2527,-0.2814,-0.1357,0.2482,-0.1855,-0.1872,0.1756,-0.3099,0.2412,-0.0607,0.2955,-0.2775,0.2181,-0.2181,-0.1175,0.3006,0.2947,0.1079,-0.0085,0.3853,-0.433,-1.0,1.0,-1.0,0.0008,-1.0,-1.0,-1.0,-1.0,1.0,-1.0,1.0,-1.0,1.0,-1.0,1.0,-1.0,-1.0,0.0,0.0,0.0,0.0,0.0,0.0,0.0,0.0,0.0,0.3333,0.0,0.3333,0.0,0
2.56,run,4.09,7.05,24.22,-4.35,0.55,0.0,0.05,0.0,0.799,-21.18,-5.71,89.65,-17.58,-31.9,107.49,24.79,-23.99,129.38,-0.18,-32.52,94.04,-18.81,-6.06,98.53,-25.14,-19.34,99.67,-23.0,-15.59,101.87,-29.0,-28.92,97.99,17.01,-28.57,116.87,10.59,-38.89,104.69,-30.5,3.64,88.2,-20.0,-26.62,88.81,-1.0,-1.0,1.0,-1.0,1.0,-1.0,-1.0,-0.2553,-1.0,1.0,-0.6887,1.0,-1.0,1.0,-1.0,1.0,-0.6401,-1.0,0.019,0.0,0.058,0.019,0.019,0.019,0.019,0.0,0.039,0.006,0.019,0.006,0.065,0.195,0.0,0.013,0.026,0.019,-0.385,-0.3682,0.1534,-0.2869,-0.8406,0.5292,0.4295,-0.7072,0.8928,-0.0291,-0.8314,0.2347,-0.3022,-0.4295,0.3881,-0.4617,-0.6029,0.3912,0.2651,0.0209,0.2074,-0.269,-0.2488,-0.193,0.2083,-0.2163,-0.2059,0.2036,-0.3033,0.261,-0.1232,0.299,-0.2806,0.2448,-0.2046,-0.1744,0.3362,0.2797,0.1688,-0.0166,0.2153,-0.793,-1.0,1.0,-1.0,1.0,-1.0,-1.0,0.3195,-1.0,1.0,-1.0,1.0,-1.0,1.0,-1.0,1.0,-1.0,-1.0,0.0,0.0,0.0,0.0,0.0,0.0,0.0,0.0,0.0,0.3333,0.0,0.3333,0.0,0
2.6,run,4.81,6.76,18.97,-2.62,-5.74,0.0,0.05,0.0,0.799,-20.83,-7.12,91.05,-18.98,-32.61,106.0,24.7,-25.4,128.23,1.32,-33.93,95.45,-20.39,-4.48,97.21,-23.73,-20.83,98.0,-21.5,-17.09,103.37,-30.5,-27.42,96.49,15.51,-30.07,115.37,12.09,-37.39,106.19,-32.0,5.14,86.7,-18.5,-25.12,87.31,-0.0027,-1.0,1.0,-1.0,0.5782,-1.0,-1.0,-0.1075,-1.0,1.0,0.2983,1.0,-1.0,1.0,-0.9604,1.0,0.9982,-1.0,0.033,0.0,0.045,0.019,0.006,0.013,0.006,0.0,0.104,0.006,0.026,0.006,0.039,0.111,0.006,0.006,0.019,0.013,-0.3728,-0.3866,0.1795,-0.3129,-0.8636,0.5062,0.4326,-0.7317,0.8728,-0.0046,-0.8575,0.2592,-0.3252,-0.405,0.3636,-0.4372,-0.632,0.3728,0.2316,-0.0543,0.2428,-0.286,-0.2603,-0.2213,0.1573,-0.2433,-0.2188,0.2344,-0.31,0.2747,-0.1724,0.3012,-0.2884,0.2633,-0.2523,-0.191,0.4181,0.251,0.4228,-0.076,0.0096,-1.0,-1.0,1.0,-1.0,1.0,-1.0,-1.0,-0.2553,-1.0,1.0,-0.6887,1.0,-1.0,1.0,-1.0,1.0,-0.6401,-1.0,0.0,0.0,0.0,0.0,0.0,0.0,0.0,0.0,0.0,0.3333,0.0,0.3333,0.0,0
2.64,run,5.36,6.85,12.66,5.4,2.0,0.0,0.05,0.0,0.799,-20.83,-8.88,92.81,-20.57,-33.4,104.24,24.43,-27.16,126.56,2.9,-35.51,97.12,-22.32,-2.81,95.36,-21.97,-22.32,96.33,-23.0,-18.59,104.87,-32.0,-25.92,94.99,14.01,-28.57,113.87,13.59,-35.89,107.69,-33.5,6.64,85.2,-17.0,-23.62,85.81,-1.0,-1.0,1.0,-1.0,0.9552,-1.0,-1.0,1.0,-1.0,1.0,1.0,1.0,-1.0,1.0,-1.0,1.0,1.0,-1.0,0.033,0.0,0.045,0.019,0.006,0.013,0.006,0.0,0.104,0.006,0.026,0.006,0.039,0.111,0.006,0.006,0.019,0.013,-0.3666,-0.4111,0.204,-0.3375,-0.8759,0.4801,0.431,-0.7563,0.8529,0.0215,-0.882,0.2838,-0.3528,-0.3774,0.3405,-0.4126,-0.6581,0.3436,0.1851,-0.13,0.262,-0.2922,-0.2283,-0.2527,0.1044,-0.2624,-0.228,0.2619,-0.3091,0.2843,-0.2242,0.3144,-0.2882,0.2764,-0.2744,-0.243,0.4802,0.2258,0.3311,-0.0458,-0.1001,-0.0027,-1.0,1.0,-1.0,0.5782,-1.0,-1.0,-0.1075,-1.0,1.0,0.2983,1.0,-1.0,1.0,-0.9604,1.0,0.9982,-1.0,0.0,0.0,0.0,0.0,0.0,0.0,0.0,0.0,0.0,0.3333,0.0,0.3333,0.0,0
2.68,run,5.77,7.29,9.81,12.11,1.46,0.0,0.05,0.0,0.799,-21.09,-10.37,94.13,-21.97,-33.57,102.66,23.38,-28.3,124.98,4.39,-36.56,98.61,-23.82,-1.41,93.96,-20.65,-23.38,94.92,-24.5,-20.09,106.37,-33.5,-24.42,93.49,12.51,-27.07,112.37,15.09,-34.39,109.19,-35.0,8.14,83.7,-15.5,-22.12,84.31,-1.0,-1.0,1.0,-1.0,1.0,-1.0,-1.0,0.0872,-1.0,1.0,1.0,1.0,-1.0,1.0,-1.0,1.0,1.0,-1.0,0.033,0.0,0.045,0.019,0.006,0.013,0.006,0.0,0.104,0.006,0.026,0.006,0.039,0.111,0.006,0.006,0.019,0.013,-0.3666,-0.4418,0.2347,-0.3651,-0.8897,0.4495,0.4264,-0.7869,0.8237,0.0491,-0.9097,0.3129,-0.3866,-0.3482,0.3083,-0.382,-0.6842,0.3145,0.1296,-0.1874,0.2798,-0.2913,-0.2032,-0.2733,0.0586,-0.28,-0.2512,0.2701,-0.3031,0.2906,-0.263,0.3117,-0.3029,0.2899,-0.274,-0.2617,0.5286,0.234,0.221,0.0943,0.035,-1.0,-1.0,1.0,-1.0,0.9552,-1.0,-1.0,1.0,-1.0,1.0,1.0,1.0,-1.0,1.0,-1.0,1.0,1.0,-1.0,0.0,0.0,0.0,0.0,0.0,0.0,0.0,0.0,0.0,0.3333,0.0,0.3333,0.0,0
2.72,run,6.08,7.67,7.31,11.45,-6.35,0.0,0.05,0.0,0.799,-21.71,-11.87,95.45,-23.29,-33.05,101.25,22.06,-29.27,123.4,5.8,-37.27,100.02,-25.4,-0.26,92.55,-19.34,-24.08,93.52,-26.0,-21.59,107.87,-35.0,-22.92,91.99,11.01,-28.57,110.87,16.59,-32.89,110.69,-35.0,9.64,82.2,-14.0,-20.63,82.81,-1.0,-0.2528,1.0,-1.0,0.9421,-0.8818,-1.0,-0.1089,-1.0,1.0,1.0,1.0,-1.0,1.0,-1.0,1.0,1.0,-1.0,0.006,0.0,0.071,0.026,0.033,0.006,0.039,0.0,0.058,0.013,0.006,0.006,0.006,0.169,0.0,0.013,0.019,0.013,-0.3712,-0.4679,0.2577,-0.3896,-0.8928,0.4218,0.408,-0.8069,0.7961,0.0752,-0.9281,0.339,-0.4126,-0.3237,0.2838,-0.359,-0.7026,0.2899,0.0736,-0.228,0.2813,-0.295,-0.1536,-0.2938,-0.0273,-0.27,-0.2783,0.2858,-0.2805,0.3002,-0.2809,0.3093,-0.3031,0.2883,-0.2601,-0.2743,0.5643,0.272,0.1712,0.2114,0.0255,-1.0,-1.0,1.0,-1.0,1.0,-1.0,-1.0,0.0872,-1.0,1.0,1.0,1.0,-1.0,1.0,-1.0,1.0,1.0,-1.0,0.0,0.0,0.0,0.0,0.0,0.0,0.0,0.0,0.0,0.3333,0.0,0.3333,0.0,0
2.76,run,5.71,7.74,-11.98,-2.31,-5.32,0.0,0.05,0.0,0.799,-22.85,-13.1,96.86,-24.61,-32.26,99.93,20.92,-29.97,121.73,7.21,-37.71,101.6,-27.16,1.05,90.97,-17.84,-24.52,92.2,-27.5,-20.09,109.37,-35.0,-21.42,90.49,9.51,-30.07,109.37,18.09,-31.39,112.19,-35.0,11.14,80.7,-12.5,-19.13,81.31,-1.0,0.2557,1.0,-1.0,0.6494,-1.0,-1.0,-0.1556,-1.0,1.0,1.0,1.0,-1.0,1.0,-1.0,1.0,1.0,-1.0,0.006,0.0,0.071,0.026,0.033,0.006,0.039,0.0,0.058,0.013,0.006,0.006,0.006,0.169,0.0,0.013,0.019,0.013,-0.382,-0.4939,0.2807,-0.4126,-0.8836,0.3973,0.385,-0.8237,0.7685,0.0997,-0.9403,0.3636,-0.4403,-0.3037,0.2592,-0.3359,-0.7148,0.2654,0.0112,-0.2575,0.2833,-0.2929,-0.073,-0.2978,-0.1055,-0.2524,-0.2985,0.2923,-0.2424,0.3023,-0.3003,0.2914,-0.3044,0.2882,-0.2282,-0.2842,0.5914,0.3055,0.1276,0.1998,-0.1108,-1.0,-0.2528,1.0,-1.0,0.9421,-0.8818,-1.0,-0.1089,-1.0,1.0,1.0,1.0,-1.0,1.0,-1.0,1.0,1.0,-1.0,0.0,0.0,0.0,0.0,0.0,0.0,0.0,0.0,0.0,0.3333,0.0,0.3333,0.0,0
2.8,run,5.91,7.84,-3.88,2.28,-20.17,0.0,0.05,0.0,0.799,-24.08,-14.41,98.44,-26.19,-31.11,98.44,19.51,-30.32,119.88,8.61,-37.79,102.74,-28.3,2.37,89.47,-16.44,-24.7,90.7,-29.0,-21.59,110.87,-35.0,-19.92,88.99,8.01,-28.57,107.87,19.59,-29.89,113.69,-35.0,9.64,79.2,-11.0,-17.63,79.81,-1.0,-0.2425,1.0,-1.0,1.0,-1.0,-1.0,1.0,-1.0,1.0,1.0,1.0,-1.0,-1.0,-1.0,1.0,1.0,-1.0,0.006,0.0,0.071,0.026,0.033,0.006,0.039,0.0,0.058,0.013,0.006,0.006,0.006,0.169,0.0,0.013,0.019,0.013,-0.4019,-0.5154,0.3053,-0.4357,-0.8698,0.3743,0.3651,-0.836,0.7394,0.1243,-0.948,0.3912,-0.4709,-0.2807,0.2316,-0.3099,-0.7225,0.2424,-0.0668,-0.2607,0.2902,-0.2912,0.0006,-0.2946,-0.1485,-0.2226,-0.3181,0.2965,-0.1984,0.315,-0.3251,0.2901,-0.3165,0.2994,-0.1885,-0.2851,0.5587,0.3117,-0.2092,-0.0403,-0.0928,-1.0,0.2557,1.0,-1.0,0.6494,-1.0,-1.0,-0.1556,-1.0,1.0,1.0,1.0,-1.0,1.0,-1.0,1.0,1.0,-1.0,0.0,0.0,0.0,0.0,0.0,0.0,0.0,0.0,0.0,0.3333,0.0,0.3333,0.0,0
2.84,run,6.33,8.06,10.31,-0.01,-27.05,0.0,0.05,0.0,0.799,-25.4,-15.82,99.84,-27.6,-29.79,96.94,18.11,-30.32,118.3,10.02,-37.62,104.33,-29.88,3.78,88.07,-15.03,-24.52,89.38,-30.5,-20.09,112.37,-35.0,-18.42,87.49,6.51,-30.07,106.37,21.09,-28.39,115.19,-35.0,8.14,77.7,-9.5,-16.13,78.31,-1.0,0.7782,1.0,-1.0,0.5933,-0.8037,-1.0,-0.1667,-1.0,1.0,1.0,1.0,-1.0,-0.0549,-1.0,1.0,1.0,-1.0,0.006,0.0,0.052,0.026,0.045,0.0,0.026,0.026,0.013,0.013,0.013,0.013,0.0,0.338,0.0,0.019,0.006,0.026,-0.4234,-0.5384,0.3329,-0.4633,-0.8498,0.3482,0.3405,-0.8422,0.7072,0.1488,-0.9495,0.4111,-0.4909,-0.2577,0.2056,-0.2853,-0.7256,0.2163,-0.127,-0.2684,0.3062,-0.3069,0.0749,-0.3036,-0.1956,-0.1788,-0.3429,0.2992,-0.1446,0.295,-0.302,0.289,-0.3189,0.3012,-0.1434,-0.2969,0.5762,0.32,-0.0677,0.0398,-0.3521,-1.0,-0.2425,1.0,-1.0,1.0,-1.0,-1.0,1.0,-1.0,1.0,1.0,1.0,-1.0,-1.0,-1.0,1.0,1.0,-1.0,0.0,0.0,0.0,0.0,0.0,0.0,0.0,0.0,0.0,0.3333,0.0,0.3333,0.0,0
2.88,run,6.83,8.24,12.85,3.48,-17.03,0.0,0.05,0.0,0.799,-26.98,-17.14,101.25,-28.92,-28.56,95.54,16.52,-30.23,116.98,11.51,-36.91,105.73,-31.29,5.01,86.66,-13.54,-23.91,87.98,-29.0,-18.59,113.87,-35.0,-19.92,85.99,5.01,-31.57,104.87,20.22,-26.89,116.69,-35.0,9.64,76.2,-8.0,-14.63,76.81,-0.1247,0.8506,1.0,-1.0,-0.0474,-1.0,-1.0,-0.2737,-1.0,0.5778,1.0,1.0,-1.0,1.0,-1.0,1.0,1.0,-1.0,0.006,0.0,0.052,0.026,0.045,0.0,0.026,0.026,0.013,0.013,0.013,0.013,0.0,0.338,0.0,0.019,0.006,0.026,-0.4464,-0.563,0.3574,-0.4878,-0.8268,0.3221,0.316,-0.8422,0.6796,0.1733,-0.9465,0.4387,-0.5185,-0.2332,0.181,-0.2608,-0.7225,0.1933,-0.1752,-0.28,0.3065,-0.307,0.1388,-0.3104,-0.229,-0.1251,-0.3437,0.3015,-0.0897,0.3101,-0.315,0.2944,-0.3153,0.303,-0.0888,-0.2942,0.6128,0.3391,0.1799,-0.0002,-0.4721,-1.0,0.7782,1.0,-1.0,0.5933,-0.8037,-1.0,-0.1667,-1.0,1.0,1.0,1.0,-1.0,-0.0549,-1.0,1.0,1.0,-1.0,0.0,0.0,0.0,0.0,0.0,0.0,0.0,0.0,0.0,0.3333,0.0,0.3333,0.0,0
2.92,run,7.04,8.28,7.78,1.32,-8.61,0.0,0.05,0.0,0.799,-28.12,-18.28,102.57,-30.23,-27.33,94.04,15.12,-30.41,115.66,12.83,-35.86,107.05,-32.52,5.98,85.25,-12.13,-22.94,86.48,-27.5,-17.09,115.37,-35.0,-21.42,84.49,3.51,-33.07,103.37,18.72,-25.39,118.19,-35.0,11.14,74.7,-6.5,-13.13,75.31,0.4708,1.0,1.0,-1.0,-0.3056,-0.0398,-1.0,-0.6482,-1.0,0.2981,1.0,1.0,-1.0,1.0,-1.0,1.0,1.0,-1.0,0.006,0.0,0.052,0.026,0.045,0.0,0.026,0.026,0.013,0.013,0.013,0.013,0.0,0.338,0.0,0.019,0.006,0.026,-0.474,-0.586,0.382,-0.5108,-0.8053,0.2976,0.2884,-0.8406,0.6565,0.1994,-0.9342,0.4633,-0.543,-0.2117,0.1565,-0.2347,-0.7118,0.1687,-0.2263,-0.2824,0.3067,-0.3012,0.1778,-0.3094,-0.264,-0.0818,-0.3269,0.309,-0.0167,0.3092,-0.3127,0.2867,-0.3129,0.31,-0.0219,-0.2981,0.6565,0.355,0.2242,0.0607,-0.2972,-0.1247,0.8506,1.0,-1.0,-0.0474,-1.0,-1.0,-0.2737,-1.0,0.5778,1.0,1.0,-1.0,1.0,-1.0,1.0,1.0,-1.0,0.0,0.0,0.0,0.0,0.0,0.0,0.0,0.0,0.0,0.3333,0.0,0.3333,0.0,0
2.96,run,7.31,8.13,7.95,-2.35,-8.68,0.0,0.05,0.0,0.799,-29.18,-19.25,103.89,-31.55,-25.93,92.64,13.62,-30.94,114.26,14.24,-34.63,108.46,-33.66,7.12,83.85,-10.81,-21.71,85.08,-26.0,-15.59,116.87,-35.0,-19.92,85.99,2.01,-34.57,101.87,17.22,-23.89,119.69,-35.0,12.64,73.2,-5.0,-11.63,73.81,1.0,1.0,1.0,-1.0,0.1767,0.8123,-1.0,-0.4755,-0.2376,0.1181,1.0,0.7866,-1.0,1.0,-1.0,1.0,1.0,-1.0,0.0,0.0,0.065,0.026,0.078,0.0,0.019,0.013,0.026,0.013,0.013,0.019,0.006,0.279,0.0,0.013,0.0,0.026,-0.4939,-0.6059,0.405,-0.5338,-0.7839,0.2715,0.2638,-0.8437,0.6335,0.2224,-0.9158,0.4863,-0.5645,-0.1948,0.1319,-0.2102,-0.6949,0.1427,-0.2331,-0.2724,0.3009,-0.2971,0.2049,-0.3143,-0.2767,-0.0688,-0.3151,0.3025,0.0573,0.3027,-0.2993,0.2639,-0.311,0.3089,0.0479,-0.3064,0.6751,0.3587,0.1358,0.0231,-0.1502,0.4708,1.0,1.0,-1.0,-0.3056,-0.0398,-1.0,-0.6482,-1.0,0.2981,1.0,1.0,-1.0,1.0,-1.0,1.0,1.0,-1.0,0.0,0.0,0.0,0.0,0.0,0.0,0.0,0.0,0.0,0.3333,0.0,0.3333,0.0,0
3.0,run,7.35,8.01,1.5,-4.96,-12.19,0.0,0.05,0.0,0.799,-30.06,-19.86,105.38,-32.61,-24.61,91.14,12.13,-31.82,112.76,15.47,-33.22,109.86,-34.37,8.26,82.44,-9.32,-20.3,83.67,-24.5,-14.09,118.37,-35.0,-21.42,87.49,0.51,-36.07,103.37,15.72,-22.39,118.19,-35.0,14.14,71.7,-3.5,-10.13,72.31,1.0,1.0,1.0,-1.0,-0.0442,1.0,-1.0,-0.4524,0.6315,-0.5106,1.0,-1.0,-1.0,1.0,-1.0,1.0,1.0,-1.0,0.0,0.0,0.065,0.026,0.078,0.0,0.019,0.013,0.026,0.013,0.013,0.019,0.006,0.279,0.0,0.013,0.0,0.026,-0.5123,-0.6228,0.428,-0.5568,-0.7593,0.247,0.2378,-0.8529,0.609,0.247,-0.8943,0.5108,-0.5844,-0.1749,0.1074,-0.1871,-0.6734,0.1181,-0.2323,-0.254,0.297,-0.2943,0.2355,-0.3121,-0.2916,-0.0827,-0.3127,0.3038,0.1207,0.304,-0.2844,0.2596,-0.3098,0.3026,0.1141,-0.3066,0.699,0.3457,0.1388,-0.041,-0.1516,1.0,1.0,1.0,-1.0,0.1767,0.8123,-1.0,-0.4755,-0.2376,0.1181,1.0,0.7866,-1.0,1.0,-1.0,1.0,1.0,-1.0,0.0,0.0,0.0,0.0,0.0,0.0,0.0,0.0,0.0,0.3333,0.0,0.3333,0.0,0
3.04,run,7.36,7.81,-2.72,-2.55,-13.09,0.0,0.05,0.0,0.799,-30.41,-20.21,106.79,-33.57,-23.47,89.82,10.63,-33.13,111.45,16.61,-31.82,111.27,-34.89,9.4,80.95,-7.82,-18.9,82.27,-23.0,-12.59,119.87,-35.0,-19.92,88.99,2.01,-34.57,104.87,14.22,-20.89,116.69,-35.0,12.64,70.2,-2.0,-8.63,70.81,1.0,1.0,1.0,-1.0,0.3083,1.0,0.9445,0.2658,1.0,-1.0,1.0,-1.0,-1.0,-1.0,-1.0,1.0,1.0,-1.0,0.0,0.0,0.065,0.026,0.078,0.0,0.019,0.013,0.026,0.013,0.013,0.019,0.006,0.279,0.0,0.013,0.0,0.026,-0.5277,-0.6335,0.4541,-0.5752,-0.7363,0.2209,0.2117,-0.8682,0.5829,0.2684,-0.8698,0.5354,-0.5967,-0.1549,0.0828,-0.1611,-0.6489,0.0936,-0.2201,-0.2181,0.3057,-0.275,0.2512,-0.3163,-0.3019,-0.1154,-0.3167,0.2932,0.1765,0.3048,-0.2451,0.2565,-0.3089,0.3096,0.1719,-0.3066,0.7025,0.3352,0.0263,-0.0865,-0.2127,1.0,1.0,1.0,-1.0,-0.0442,1.0,-1.0,-0.4524,0.6315,-0.5106,1.0,-1.0,-1.0,1.0,-1.0,1.0,1.0,-1.0,0.0,0.0,0.0,0.0,0.0,0.0,0.0,0.0,0.0,0.3333,0.0,0.3333,0.0,0
3.08,run,7.57,7.99,4.6,5.77,-1.23,0.0,0.05,0.0,0.799,-30.5,-20.39,108.19,-34.1,-22.59,88.68,9.14,-34.19,109.95,17.23,-30.41,112.76,-35.07,10.46,79.54,-6.5,-17.49,80.86,-21.5,-11.09,121.37,-35.0,-18.42,90.49,3.51,-36.07,106.37,12.72,-19.39,115.19,-35.0,11.14,68.7,-0.5,-7.13,69.31,1.0,1.0,1.0,-1.0,1.0,1.0,1.0,-1.0,1.0,-1.0,1.0,-1.0,-1.0,-1.0,-1.0,1.0,1.0,-1.0,0.019,0.026,0.084,0.013,0.065,0.0,0.013,0.0,0.019,0.006,0.006,0.006,0.0,0.208,0.0,0.019,0.013,0.019,-0.5338,-0.6397,0.4786,-0.5921,-0.7164,0.1979,0.1856,-0.8912,0.5599,0.2884,-0.8452,0.5599,-0.6059,-0.135,0.0568,-0.135,-0.6243,0.069,-0.177,-0.1756,0.3058,-0.2557,0.2504,-0.3075,-0.3089,-0.1669,-0.3078,0.2799,0.2154,0.3052,-0.206,0.2542,-0.3138,0.3143,0.2122,-0.3065,0.7032,0.3176,-0.0474,-0.0444,-0.2284,1.0,1.0,1.0,-1.0,0.3083,1.0,0.9445,0.2658,1.0,-1.0,1.0,-1.0,-1.0,-1.0,-1.0,1.0,1.0,-1.0,0.0,0.0,0.0,0.0,0.0,0.0,0.0,0.0,0.0,0.3333,0.0,0.3333,0.0,0
3.12,run,7.61,7.93,0.17,-0.9,3.54,0.0,0.05,0.0,0.799,-30.06,-20.39,109.86,-34.28,-21.62,87.98,7.47,-35.33,108.37,17.67,-28.65,114.35,-35.07,11.6,77.78,-4.83,-16.0,79.1,-20.0,-9.59,122.87,-35.0,-16.92,91.99,5.01,-37.57,107.87,11.22,-17.89,113.69,-35.0,9.64,67.2,1.0,-5.63,67.81,1.0,1.0,1.0,-1.0,1.0,1.0,1.0,-1.0,1.0,-1.0,1.0,-1.0,-1.0,-0.7505,-1.0,1.0,1.0,-1.0,0.019,0.026,0.084,0.013,0.065,0.0,0.013,0.0,0.019,0.006,0.006,0.006,0.0,0.208,0.0,0.019,0.013,0.019,-0.5354,-0.6427,0.5031,-0.6013,-0.701,0.1779,0.1595,-0.9097,0.5338,0.2991,-0.8207,0.586,-0.609,-0.1166,0.0322,-0.112,-0.5998,0.0445,-0.1297,-0.1344,0.3063,-0.2136,0.2329,-0.2902,-0.3142,-0.186,-0.3134,0.2363,0.243,0.3116,-0.1557,0.2471,-0.3119,0.3065,0.2407,-0.3068,0.7217,0.3333,0.0802,0.1007,-0.0215,1.0,1.0,1.0,-1.0,1.0,1.0,1.0,-1.0,1.0,-1.0,1.0,-1.0,-1.0,-1.0,-1.0,1.0,1.0,-1.0,0.0,0.0,0.0,0.0,0.0,0.0,0.0,0.0,0.0,0.3333,0.0,0.3333,0.0,0
3.16,run,7.37,7.64,-7.76,-7.32,1.89,0.0,0.05,0.0,0.799,-29.27,-20.04,111.18,-34.28,-20.74,87.28,6.15,-35.95,107.31,17.58,-27.25,115.22,-35.07,11.95,76.29,-3.34,-14.94,77.61,-18.5,-8.09,124.37,-35.0,-15.42,93.49,6.51,-39.07,109.37,9.72,-16.39,112.19,-35.0,8.14,65.7,2.5,-4.13,66.31,1.0,1.0,1.0,-1.0,1.0,1.0,1.0,-1.0,1.0,-1.0,1.0,-1.0,-1.0,-1.0,-1.0,1.0,1.0,-1.0,0.019,0.026,0.084,0.013,0.065,0.0,0.013,0.0,0.019,0.006,0.006,0.006,0.0,0.208,0.0,0.019,0.013,0.019,-0.5277,-0.6427,0.5323,-0.6044,-0.6842,0.1657,0.1304,-0.9296,0.5062,0.3068,-0.79,0.6136,-0.609,-0.0966,0.0015,-0.0828,-0.5737,0.0138,-0.067,-0.0941,0.3049,-0.159,0.2154,-0.2412,-0.3104,-0.1921,-0.3051,0.1892,0.2653,0.3039,-0.109,0.2349,-0.3136,0.305,0.2495,-0.31,0.725,0.3282,0.0029,-0.0156,0.0617,1.0,1.0,1.0,-1.0,1.0,1.0,1.0,-1.0,1.0,-1.0,1.0,-1.0,-1.0,-0.7505,-1.0,1.0,1.0,-1.0,0.0,0.0,0.0,0.0,0.0,0.0,0.0,0.0,0.0,0.3333,0.0,0.3333,0.0,0
3.2,run,7.06,7.1,-6.51,-12.55,8.5,0.0,0.05,0.0,0.799,-28.3,-19.16,112.5,-34.28,-19.78,87.19,5.19,-36.83,106.52,17.23,-26.1,115.84,-35.07,12.22,74.88,-2.02,-13.18,76.2,-17.0,-6.59,125.87,-35.0,-13.92,94.99,8.01,-40.57,110.87,8.22,-14.89,110.69,-35.0,6.64,64.2,4.0,-2.63,64.81,1.0,0.4095,1.0,-1.0,1.0,1.0,1.0,-0.6894,1.0,-1.0,1.0,-1.0,-1.0,-1.0,-1.0,1.0,1.0,-1.0,0.039,0.143,0.091,0.019,0.111,0.039,0.013,0.013,0.013,0.013,0.045,0.0,0.0,0.123,0.0,0.026,0.019,0.013,-0.5139,-0.6366,0.5553,-0.6044,-0.6688,0.1534,0.1074,-0.9403,0.4878,0.3053,-0.7655,0.6289,-0.609,-0.0905,-0.0245,-0.0568,-0.5553,-0.0123,0.0044,-0.0431,0.2989,-0.1113,0.2078,-0.2144,-0.3028,-0.1744,-0.282,0.1267,0.2769,0.2697,-0.0763,0.1872,-0.3164,0.3104,0.243,-0.3139,0.7036,0.3025,-0.1355,-0.1277,0.033,1.0,1.0,1.0,-1.0,1.0,1.0,1.0,-1.0,1.0,-1.0,1.0,-1.0,-1.0,-1.0,-1.0,1.0,1.0,-1.0,0.0,0.0,0.0,0.0,0.0,0.0,0.0,0.0,0.0,0.3333,0.0,0.3333,0.0,0
3.24,run,6.88,6.43,-4.26,-15.84,7.74,0.0,0.05,0.0,0.799,-26.89,-17.93,113.91,-34.28,-18.63,87.36,4.48,-37.88,106.08,16.17,-24.79,116.19,-35.07,12.22,73.48,-0.62,-11.78,74.79,-15.5,-8.09,127.37,-35.0,-12.42,96.49,9.51,-42.07,112.37,6.72,-13.39,109.19,-35.0,5.14,62.7,5.5,-1.13,63.31,1.0,-0.4419,1.0,-1.0,1.0,1.0,1.0,-0.5097,1.0,-1.0,1.0,-1.0,-1.0,-1.0,-1.0,1.0,1.0,-1.0,0.039,0.143,0.091,0.019,0.111,0.039,0.013,0.013,0.013,0.013,0.045,0.0,0.0,0.123,0.0,0.026,0.019,0.013,-0.497,-0.6213,0.5783,-0.6044,-0.6519,0.1519,0.0905,-0.9557,0.474,0.2991,-0.7455,0.6397,-0.609,-0.0859,-0.0491,-0.0337,-0.5246,-0.0368,0.0665,0.0275,0.2957,-0.0779,0.2088,-0.1559,-0.2753,-0.1797,-0.2492,0.0657,0.2688,0.2291,-0.0534,0.1483,-0.3137,0.3037,0.2854,-0.3119,0.6769,0.2555,-0.1136,-0.219,0.1483,1.0,0.4095,1.0,-1.0,1.0,1.0,1.0,-0.6894,1.0,-1.0,1.0,-1.0,-1.0,-1.0,-1.0,1.0,1.0,-1.0,0.0,0.0,0.0,0.0,0.0,0.0,0.0,0.0,0.0,0.3333,0.0,0.3333,0.0,0
3.28,run,6.69,5.52,-5.78,-21.85,5.58,0.0,0.05,0.0,0.799,-25.49,-16.79,115.31,-34.28,-17.4,87.98,4.04,-39.2,106.0,15.21,-23.29,116.02,-35.07,12.04,72.07,0.79,-10.28,73.39,-14.0,-9.59,128.87,-33.5,-10.92,97.99,11.01,-40.57,113.87,5.22,-11.89,107.69,-35.0,3.64,61.2,7.0,0.37,61.81,1.0,-1.0,0.7577,-0.8925,0.7194,1.0,1.0,-0.2158,1.0,-1.0,1.0,-1.0,-1.0,-1.0,-1.0,1.0,1.0,-0.6165,0.039,0.143,0.091,0.019,0.111,0.039,0.013,0.013,0.013,0.013,0.045,0.0,0.0,0.123,0.0,0.026,0.019,0.013,-0.4725,-0.5998,0.6029,-0.6044,-0.632,0.1549,0.0782,-0.9741,0.4663,0.2807,-0.7225,0.6458,-0.609,-0.0859,-0.0736,-0.0092,-0.5001,-0.0614,0.1386,0.0998,0.299,-0.0545,0.221,-0.0976,-0.2388,-0.1948,-0.2032,-0.0231,0.2744,0.1834,-0.0374,0.1038,-0.3116,0.3046,0.2918,-0.3104,0.6609,0.1973,-0.0743,-0.2765,0.135,1.0,-0.4419,1.0,-1.0,1.0,1.0,1.0,-0.5097,1.0,-1.0,1.0,-1.0,-1.0,-1.0,-1.0,1.0,1.0,-1.0,0.0,0.0,0.0,0.0,0.0,0.0,0.0,0.0,0.0,0.3333,0.0,0.3333,0.0,0
3.32,run,6.46,4.89,-4.84,-15.38,5.99,0.0,0.05,0.0,0.799,-24.08,-15.47,116.72,-34.28,-16.08,88.86,3.96,-40.34,106.08,13.89,-22.06,115.31,-35.07,11.16,70.66,2.29,-8.7,71.98,-12.5,-11.09,127.37,-32.0,-12.42,99.49,12.51,-39.07,115.37,3.72,-10.39,106.19,-35.0,2.14,59.7,5.5,1.87,63.31,1.0,-1.0,-0.9642,1.0,-0.0251,1.0,1.0,0.8118,1.0,-1.0,1.0,-1.0,-1.0,-1.0,-1.0,-0.0059,1.0,1.0,0.033,0.182,0.104,0.0,0.149,0.163,0.006,0.006,0.013,0.019,0.033,0.0,0.006,0.0,0.0,0.026,0.006,0.013,-0.4479,-0.5798,0.6274,-0.6044,-0.6105,0.1657,0.0706,-0.9971,0.4648,0.2638,-0.6964,0.6427,-0.609,-0.089,-0.0982,0.0153,-0.474,-0.0859,0.1889,0.1445,0.3013,-0.0382,0.2351,-0.0281,-0.1959,-0.2226,-0.148,-0.0794,0.2898,0.1169,-0.0262,0.0612,-0.3101,0.3052,0.3019,-0.3092,0.6446,0.118,-0.1008,-0.3814,0.0974,1.0,-1.0,0.7577,-0.8925,0.7194,1.0,1.0,-0.2158,1.0,-1.0,1.0,-1.0,-1.0,-1.0,-1.0,1.0,1.0,-0.6165,0.0,0.0,0.0,0.0,0.0,0.0,0.0,0.0,0.0,0.3333,0.0,0.3333,0.0,0
3.36,run,6.15,4.38,-6.97,-9.03,2.27,0.0,0.05,0.0,0.799,-22.41,-14.06,118.39,-34.1,-14.85,90.26,4.31,-41.4,106.35,12.3,-20.65,114.52,-35.07,9.67,68.99,3.87,-7.12,70.22,-14.0,-12.59,125.87,-30.5,-13.92,100.99,14.01,-37.57,116.87,2.22,-8.89,104.69,-35.0,0.64,61.2,4.0,3.37,64.81,-1.0,-1.0,-1.0,1.0,-1.0,1.0,1.0,0.2785,1.0,-1.0,1.0,-1.0,-1.0,-1.0,1.0,-1.0,1.0,1.0,0.033,0.182,0.104,0.0,0.149,0.163,0.006,0.006,0.013,0.019,0.033,0.0,0.006,0.0,0.0,0.026,0.006,0.013,-0.4234,-0.5568,0.6519,-0.6044,-0.5875,0.181,0.069,-1.017,0.4663,0.2408,-0.675,0.6305,-0.609,-0.1043,-0.1227,0.0414,-0.4464,-0.1104,0.2244,0.1876,0.303,-0.0267,0.251,0.0379,-0.1429,-0.2307,-0.0978,-0.1419,0.2835,0.0358,-0.0183,-0.0148,-0.3092,0.3115,0.315,-0.3086,0.6249,0.0629,-0.0845,-0.2684,0.1046,1.0,-1.0,-0.9642,1.0,-0.0251,1.0,1.0,0.8118,1.0,-1.0,1.0,-1.0,-1.0,-1.0,-1.0,-0.0059,1.0,1.0,0.0,0.0,0.0,0.0,0.0,0.0,0.0,0.0,0.0,0.3333,0.0,0.3333,0.0,0
3.4,run,5.66,2.9,-10.87,-30.61,11.93,0.0,0.05,0.0,0.799,-21.18,-13.18,119.62,-33.31,-13.97,91.58,5.01,-41.92,107.67,11.07,-19.6,112.94,-34.98,8.53,67.68,4.83,-5.62,68.82,-15.5,-14.09,124.37,-29.0,-15.42,102.49,15.51,-36.07,118.37,0.72,-7.39,103.19,-35.0,-0.86,62.7,2.5,4.87,66.31,-1.0,-1.0,-1.0,1.0,-1.0,1.0,1.0,0.2711,1.0,-1.0,1.0,-1.0,-1.0,-1.0,1.0,-1.0,1.0,1.0,0.033,0.182,0.104,0.0,0.149,0.163,0.006,0.006,0.013,0.019,0.033,0.0,0.006,0.0,0.0,0.026,0.006,0.013,-0.3942,-0.5323,0.6811,-0.6013,-0.566,0.2056,0.0752,-1.0354,0.4709,0.2132,-0.6504,0.6167,-0.609,-0.1304,-0.1519,0.069,-0.4188,-0.1411,0.2482,0.208,0.3032,-0.0091,0.2428,0.1033,-0.0808,-0.219,-0.0541,-0.1857,0.2752,-0.0181,-0.0128,-0.0919,-0.3076,0.3044,0.3068,-0.3119,0.597,0.0186,-0.1216,-0.1575,0.0396,-1.0,-1.0,-1.0,1.0,-1.0,1.0,1.0,0.2785,1.0,-1.0,1.0,-1.0,-1.0,-1.0,1.0,-1.0,1.0,1.0,0.0,0.0,0.0,0.0,0.0,0.0,0.0,0.0,0.0,0.3333,0.0,0.3333,0.0,0
3.44,run,4.96,2.4,-14.59,-11.21,11.25,0.0,0.05,0.0,0.799,-19.42,-12.39,121.29,-31.99,-13.36,93.43,6.33,-41.92,109.07,9.67,-18.28,111.36,-34.98,6.77,66.01,5.45,-4.04,67.24,-17.0,-15.59,122.87,-27.5,-16.92,100.99,17.01,-34.57,119.87,-0.78,-5.89,101.69,-35.0,-2.36,64.2,1.0,6.37,67.81,-1.0,-1.0,-1.0,1.0,-1.0,0.1823,1.0,0.8851,1.0,-1.0,1.0,-1.0,-1.0,-1.0,1.0,-1.0,0.9614,1.0,0.033,0.175,0.078,0.013,0.13,0.182,0.013,0.013,0.045,0.136,0.156,0.0,0.0,0.0,0.0,0.013,0.026,0.006,-0.3728,-0.517,0.7026,-0.5875,-0.5507,0.2286,0.0874,-1.0446,0.4939,0.1917,-0.632,0.589,-0.6075,-0.1503,-0.1749,0.0859,-0.3927,-0.1657,0.2532,0.2024,0.2917,0.0447,0.2268,0.1575,-0.0112,-0.1874,0.0473,-0.2095,0.2607,-0.1149,-0.0033,-0.1381,-0.3004,0.2755,0.3113,-0.3092,0.5546,-0.1111,-0.1897,-0.5343,0.2083,-1.0,-1.0,-1.0,1.0,-1.0,1.0,1.0,0.2711,1.0,-1.0,1.0,-1.0,-1.0,-1.0,1.0,-1.0,1.0,1.0,0.0,0.0,0.0,0.0,0.0,0.0,0.0,0.0,0.0,0.3333,0.0,0.3333,0.0,0
3.48,run,4.65,2.34,-8.61,-3.9,8.83,0.0,0.05,0.0,0.799,-18.37,-12.04,122.17,-30.94,-13.27,94.57,7.29,-41.75,110.04,8.79,-17.4,110.21,-34.98,5.8,64.95,5.8,-2.99,66.45,-18.5,-17.09,121.37,-26.0,-18.42,99.49,18.51,-34.12,121.37,-2.28,-4.39,100.19,-35.0,-3.86,65.7,-0.5,4.87,69.31,-1.0,-1.0,-1.0,1.0,-1.0,-0.2101,1.0,-0.1659,1.0,-1.0,1.0,-1.0,-1.0,-1.0,1.0,-1.0,0.2221,1.0,0.033,0.175,0.078,0.013,0.13,0.182,0.013,0.013,0.045,0.136,0.156,0.0,0.0,0.0,0.0,0.013,0.026,0.006,-0.3421,-0.5031,0.7317,-0.5645,-0.54,0.2608,0.1104,-1.0446,0.5185,0.1672,-0.609,0.5614,-0.6075,-0.181,-0.204,0.0966,-0.3651,-0.1933,0.273,0.1847,0.2951,0.1031,0.1922,0.2107,0.064,-0.1312,0.1097,-0.2232,0.2543,-0.1666,-0.0023,-0.1924,-0.3012,0.2264,0.3041,-0.3026,0.494,-0.1544,-0.2546,-0.1956,0.1964,-1.0,-1.0,-1.0,1.0,-1.0,0.1823,1.0,0.8851,1.0,-1.0,1.0,-1.0,-1.0,-1.0,1.0,-1.0,0.9614,1.0,0.0,0.0,0.0,0.0,0.0,0.0,0.0,0.0,0.0,0.3333,0.0,0.3333,0.0,0
3.52,run,4.01,1.92,-15.17,-11.04,0.45,0.0,0.05,0.0,0.799,-17.4,-12.04,123.13,-29.71,-13.27,95.89,8.61,-40.96,111.36,7.38,-16.26,108.63,-34.89,4.39,63.98,5.54,-1.49,65.65,-20.0,-18.59,119.87,-24.5,-19.92,97.99,20.01,-35.62,122.87,-3.78,-2.89,98.69,-35.0,-5.36,67.2,-2.0,6.37,70.81,-1.0,-1.0,-1.0,1.0,-1.0,-0.6905,1.0,-0.9052,1.0,-1.0,1.0,-1.0,-1.0,-1.0,1.0,-1.0,0.7222,1.0,0.033,0.175,0.078,0.013,0.13,0.182,0.013,0.013,0.045,0.136,0.156,0.0,0.0,0.0,0.0,0.013,0.026,0.006,-0.3237,-0.497,0.747,-0.5461,-0.5384,0.2807,0.1273,-1.0416,0.5354,0.1519,-0.5937,0.5415,-0.6075,-0.1979,-0.2224,0.1028,-0.3467,-0.2071,0.276,0.1576,0.2774,0.1571,0.1416,0.2395,0.1226,-0.0777,0.1546,-0.227,0.2488,-0.2086,-0.0016,-0.2125,-0.2958,0.1868,0.2978,-0.2755,0.4663,-0.1602,-0.1503,-0.0681,0.1542,-1.0,-1.0,-1.0,1.0,-1.0,-0.2101,1.0,-0.1659,1.0,-1.0,1.0,-1.0,-1.0,-1.0,1.0,-1.0,0.2221,1.0,0.0,0.0,0.0,0.0,0.0,0.0,0.0,0.0,0.0,0.3333,0.0,0.3333,0.0,0
3.56,run,3.79,1.33,-5.7,-14.34,-6.88,0.0,0.05,0.0,0.799,-16.79,-11.95,123.84,-28.39,-13.27,97.03,9.67,-40.08,112.76,6.24,-15.12,107.23,-34.89,3.34,63.28,5.1,-0.18,65.13,-21.5,-20.09,118.37,-23.0,-21.42,96.49,21.51,-37.12,124.37,-5.28,-1.39,97.19,-35.0,-6.86,68.7,-3.5,4.87,72.31,-1.0,-1.0,-1.0,1.0,-1.0,-0.564,1.0,-0.8228,1.0,-1.0,1.0,-1.0,-1.0,-1.0,1.0,-1.0,-0.1738,1.0,0.039,0.006,0.033,0.006,0.006,0.111,0.019,0.019,0.052,0.149,0.267,0.0,0.0,0.006,0.0,0.006,0.019,0.006,-0.3068,-0.497,0.7639,-0.5246,-0.5384,0.3037,0.1503,-1.0278,0.5584,0.1273,-0.5737,0.5139,-0.6059,-0.2224,-0.2393,0.0982,-0.3206,-0.2209,0.2558,0.1103,0.2568,0.1896,0.0991,0.253,0.1712,-0.0032,0.1936,-0.2499,0.2481,-0.2484,0.0046,-0.2398,-0.2697,0.1137,0.3052,-0.2441,0.411,-0.1964,-0.2649,-0.1927,0.0079,-1.0,-1.0,-1.0,1.0,-1.0,-0.6905,1.0,-0.9052,1.0,-1.0,1.0,-1.0,-1.0,-1.0,1.0,-1.0,0.7222,1.0,0.0,0.0,0.0,0.0,0.0,0.0,0.0,0.0,0.0,0.3333,0.0,0.3333,0.0,0
3.6,run,3.74,0.83,-1.37,-12.04,-4.81,0.0,0.05,0.0,0.799,-16.35,-12.04,124.01,-27.07,-13.45,97.91,11.34,-39.11,114.08,4.75,-13.97,105.64,-34.89,1.76,63.11,4.13,1.23,64.69,-23.0,-21.59,116.87,-21.5,-22.92,94.99,23.01,-38.62,125.87,-6.78,0.11,95.69,-35.0,-8.36,70.2,-5.0,3.37,73.81,-1.0,-1.0,-1.0,1.0,-1.0,-1.0,1.0,-1.0,1.0,-1.0,1.0,-1.0,-1.0,-1.0,1.0,-1.0,-0.32,1.0,0.039,0.006,0.033,0.006,0.006,0.111,0.019,0.019,0.052,0.149,0.267,0.0,0.0,0.006,0.0,0.006,0.019,0.006,-0.2961,-0.4955,0.7762,-0.5016,-0.5384,0.3237,0.1687,-1.0124,0.5829,0.1074,-0.5538,0.4893,-0.6059,-0.2408,-0.2516,0.0905,-0.2976,-0.2301,0.2194,0.083,0.2258,0.2192,0.0694,0.252,0.189,0.0554,0.2277,-0.2499,0.2486,-0.2661,0.0032,-0.237,-0.2349,0.0507,0.3001,-0.2054,0.3911,-0.2476,-0.0995,-0.2503,-0.1201,-1.0,-1.0,-1.0,1.0,-1.0,-0.564,1.0,-0.8228,1.0,-1.0,1.0,-1.0,-1.0,-1.0,1.0,-1.0,-0.1738,1.0,0.0,0.0,0.0,0.0,0.0,0.0,0.0,0.0,0.0,0.3333,0.0,0.3333,0.0,0
3.64,run,3.6,0.76,-4.48,-1.76,-6.75,0.0,0.05,0.0,0.799,-16.35,-13.01,124.1,-25.84,-14.59,98.61,12.83,-38.5,115.31,3.34,-12.74,104.24,-34.89,0.44,63.11,3.08,2.29,65.13,-24.5,-23.09,115.37,-20.0,-24.42,93.49,24.51,-40.12,127.37,-8.28,1.61,94.19,-35.0,-9.86,71.7,-6.5,1.87,75.31,-1.0,-1.0,-1.0,1.0,-1.0,-1.0,1.0,-1.0,1.0,-1.0,1.0,-1.0,-1.0,-1.0,1.0,-1.0,-0.7177,1.0,0.039,0.006,0.033,0.006,0.006,0.111,0.019,0.019,0.052,0.149,0.267,0.0,0.0,0.006,0.0,0.006,0.019,0.006,-0.2884,-0.497,0.7793,-0.4786,-0.5415,0.339,0.1979,-0.9956,0.6059,0.0813,-0.5338,0.4617,-0.6059,-0.2684,-0.2546,0.0736,-0.273,-0.2378,0.1823,0.0524,0.1696,0.2397,0.0371,0.2339,0.2416,0.1021,0.2457,-0.2727,0.2488,-0.2898,0.0022,-0.2694,-0.1759,-0.0277,0.3021,-0.1726,0.3871,-0.2919,-0.024,-0.2102,-0.0839,-1.0,-1.0,-1.0,1.0,-1.0,-1.0,1.0,-1.0,1.0,-1.0,1.0,-1.0,-1.0,-1.0,1.0,-1.0,-0.32,1.0,0.0,0.0,0.0,0.0,0.0,0.0,0.0,0.0,0.0,0.3333,0.0,0.3333,0.0,0
3.68,run,3.75,0.94,2.54,2.39,-7.75,0.0,0.05,0.0,0.799,-16.61,-14.33,123.75,-24.87,-15.82,98.79,14.24,-38.14,116.63,1.93,-11.34,102.74,-34.89,-0.88,63.54,1.58,3.16,65.92,-26.0,-24.59,113.87,-18.5,-25.92,91.99,26.01,-41.62,128.87,-9.78,3.11,92.69,-35.0,-11.36,73.2,-8.0,0.37,76.81,-1.0,-1.0,-1.0,1.0,-1.0,-0.6874,1.0,-1.0,1.0,-1.0,0.5689,-1.0,-1.0,-0.9545,1.0,-1.0,-0.5794,1.0,0.0,0.0,0.006,0.026,0.0,0.045,0.026,0.039,0.111,0.175,0.351,0.0,0.006,0.026,0.0,0.006,0.019,0.019,-0.2884,-0.5139,0.7808,-0.4571,-0.5614,0.3513,0.224,-0.9848,0.6274,0.0568,-0.5123,0.4372,-0.6059,-0.2915,-0.2546,0.0552,-0.2546,-0.2301,0.1276,-0.0266,0.1245,0.2483,-0.0488,0.2097,0.2668,0.1117,0.2525,-0.2829,0.2546,-0.2949,0.0016,-0.2748,-0.1231,-0.0884,0.2804,-0.092,0.3752,-0.2981,-0.0782,-0.0307,-0.1179,-1.0,-1.0,-1.0,1.0,-1.0,-1.0,1.0,-1.0,1.0,-1.0,1.0,-1.0,-1.0,-1.0,1.0,-1.0,-0.7177,1.0,0.0,0.0,0.0,0.0,0.0,0.0,0.0,0.0,0.0,0.3333,0.0,0.3333,0.0,0
3.72,run,4.08,1.28,7.89,5.49,-7.26,0.0,0.05,0.0,0.799,-17.31,-15.73,122.96,-23.2,-17.05,98.88,15.56,-37.88,117.95,0.53,-9.93,101.34,-34.8,-2.29,64.51,0.26,3.78,66.88,-27.5,-26.09,112.37,-17.0,-27.42,90.49,27.51,-43.12,130.37,-11.28,1.61,91.19,-35.0,-12.86,74.7,-9.5,-1.13,78.31,-1.0,-1.0,-1.0,1.0,-1.0,-0.3897,1.0,-1.0,1.0,-1.0,-0.4113,-1.0,-1.0,-0.4473,1.0,-1.0,-0.6431,1.0,0.0,0.0,0.006,0.026,0.0,0.045,0.026,0.039,0.111,0.175,0.351,0.0,0.006,0.026,0.0,0.006,0.019,0.019,-0.293,-0.5369,0.7747,-0.4403,-0.5829,0.3543,0.2485,-0.9787,0.6504,0.0322,-0.4878,0.4111,-0.6059,-0.3145,-0.247,0.0291,-0.2393,-0.2163,0.0721,-0.1049,0.0641,0.2371,-0.1147,0.1583,0.2788,0.1012,0.263,-0.29,0.2703,-0.3042,0.0011,-0.2787,-0.0574,-0.1597,0.2538,-0.0127,0.3882,-0.2823,0.0444,0.0416,-0.1353,-1.0,-1.0,-1.0,1.0,-1.0,-0.6874,1.0,-1.0,1.0,-1.0,0.5689,-1.0,-1.0,-0.9545,1.0,-1.0,-0.5794,1.0,0.0,0.0,0.0,0.0,0.0,0.0,0.0,0.0,0.0,0.3333,0.0,0.3333,0.0,0
3.76,run,4.29,1.79,5.79,11.94,-14.63,0.0,0.05,0.0,0.799,-18.28,-17.23,121.82,-21.8,-18.28,98.53,16.79,-37.88,119.36,-0.88,-8.44,100.02,-34.89,-3.69,65.57,-1.14,4.13,68.12,-29.0,-27.59,110.87,-15.5,-28.92,88.99,29.01,-44.62,131.87,-12.78,0.11,89.69,-33.5,-11.36,76.2,-11.0,-2.63,79.81,-1.0,-1.0,-1.0,1.0,-1.0,-0.0649,1.0,-1.0,1.0,-1.0,-0.7306,-1.0,-0.35,0.2559,1.0,-1.0,-0.8205,1.0,0.0,0.0,0.006,0.026,0.0,0.045,0.026,0.039,0.111,0.175,0.351,0.0,0.006,0.026,0.0,0.006,0.019,0.019,-0.3053,-0.5614,0.7609,-0.4111,-0.6044,0.3559,0.2715,-0.9741,0.6734,0.0077,-0.4633,0.3866,-0.6044,-0.339,-0.2301,0.0061,-0.2286,-0.1994,0.0042,-0.166,-0.0072,0.2759,-0.1613,0.1166,0.2819,0.0882,0.2709,-0.2956,0.2818,-0.3055,0.0066,-0.2876,0.0234,-0.1985,0.2182,0.0548,0.4169,-0.252,0.1378,0.0959,-0.1268,-1.0,-1.0,-1.0,1.0,-1.0,-0.3897,1.0,-1.0,1.0,-1.0,-0.4113,-1.0,-1.0,-0.4473,1.0,-1.0,-0.6431,1.0,0.0,0.0,0.0,0.0,0.0,0.0,0.0,0.0,0.0,0.3333,0.0,0.3333,0.0,0
3.8,run,4.95,1.97,17.33,5.27,-11.71,0.0,0.05,0.0,0.799,-19.69,-18.63,120.59,-20.57,-19.6,97.65,18.11,-38.41,120.85,-2.29,-7.03,98.53,-34.8,-5.1,66.97,-2.37,4.04,69.35,-30.5,-29.09,109.37,-14.0,-30.42,90.49,30.51,-46.12,133.37,-14.28,-1.39,88.19,-32.0,-9.86,77.7,-12.5,-4.13,81.31,-1.0,-1.0,-1.0,1.0,-1.0,1.0,1.0,-1.0,1.0,-1.0,-1.0,-1.0,1.0,0.8595,1.0,-1.0,-0.522,1.0,0.006,0.0,0.013,0.039,0.0,0.0,0.039,0.006,0.078,0.189,0.351,0.0,0.013,0.026,0.0,0.006,0.006,0.026,-0.3221,-0.5875,0.7409,-0.3866,-0.6259,0.3497,0.293,-0.9741,0.698,-0.0169,-0.4372,0.3636,-0.6059,-0.3636,-0.2117,-0.0184,-0.2224,-0.1779,-0.0599,-0.2133,-0.0793,0.2845,-0.1929,0.0588,0.2774,0.0617,0.281,-0.2983,0.2944,-0.2996,-0.0011,-0.2928,0.085,-0.2304,0.1756,0.1183,0.4349,-0.2077,0.101,0.2084,-0.2554,-1.0,-1.0,-1.0,1.0,-1.0,-0.0649,1.0,-1.0,1.0,-1.0,-0.7306,-1.0,-0.35,0.2559,1.0,-1.0,-0.8205,1.0,0.0,0.0,0.0,0.0,0.0,0.0,0.0,0.0,0.0,0.3333,0.0,0.3333,0.0,0
3.84,run,5.65,2.19,18.1,6.14,-17.33,0.0,0.05,0.0,0.799,-21.09,-19.95,119.44,-19.25,-20.92,96.42,19.42,-39.29,122.34,-3.78,-5.54,97.12,-34.28,-6.5,68.38,-3.96,3.69,70.75,-32.0,-30.59,107.87,-12.5,-31.92,91.99,32.01,-47.62,134.87,-15.78,0.11,86.69,-30.5,-8.36,79.2,-14.0,-5.63,82.81,-1.0,-1.0,-1.0,1.0,-1.0,1.0,1.0,-0.7033,1.0,-1.0,0.563,-1.0,1.0,0.9665,1.0,-1.0,0.1777,1.0,0.006,0.0,0.013,0.039,0.0,0.0,0.039,0.006,0.078,0.189,0.351,0.0,0.013,0.026,0.0,0.006,0.006,0.026,-0.3467,-0.6121,0.7194,-0.3651,-0.6489,0.3344,0.316,-0.9833,0.724,-0.0414,-0.4126,0.3375,-0.6044,-0.3881,-0.1871,-0.0399,-0.224,-0.1565,-0.1341,-0.2415,-0.1361,0.2798,-0.2214,-0.0165,0.2805,0.0087,0.2946,-0.301,0.2982,-0.3076,0.005,-0.2971,0.1516,-0.2419,0.1171,0.1635,0.4925,-0.1924,0.3024,0.092,-0.2045,-1.0,-1.0,-1.0,1.0,-1.0,1.0,1.0,-1.0,1.0,-1.0,-1.0,-1.0,1.0,0.8595,1.0,-1.0,-0.522,1.0,0.0,0.0,0.0,0.0,0.0,0.0,0.0,0.0,0.0,0.3333,0.0,0.3333,0.0,0
3.88,run,6.42,2.44,20.93,5.18,-22.81,0.0,0.05,0.0,0.799,-22.5,-21.36,118.04,-17.84,-22.32,94.92,20.83,-40.43,123.75,-5.27,-4.39,95.8,-33.49,-7.82,69.87,-5.36,2.99,72.16,-33.5,-32.09,106.37,-11.0,-33.42,93.49,33.51,-46.12,136.37,-17.28,-1.39,85.19,-29.0,-6.86,80.7,-15.5,-4.13,84.31,-1.0,-1.0,-1.0,1.0,-1.0,1.0,1.0,0.6431,1.0,-1.0,-0.3493,-1.0,1.0,0.8346,1.0,-1.0,0.9079,1.0,0.006,0.0,0.013,0.039,0.0,0.0,0.039,0.006,0.078,0.189,0.351,0.0,0.013,0.026,0.0,0.006,0.006,0.026,-0.3712,-0.6351,0.6995,-0.3421,-0.6719,0.3129,0.339,-0.9986,0.7501,-0.0675,-0.3866,0.3129,-0.5952,-0.4126,-0.1626,-0.0675,-0.2301,-0.1319,-0.186,-0.2554,-0.1701,0.2822,-0.2413,-0.0921,0.2827,-0.0515,0.3041,-0.3085,0.3066,-0.3074,0.038,-0.3,0.1982,-0.2729,0.059,0.2065,0.5538,-0.1729,0.3159,0.1072,-0.3025,-1.0,-1.0,-1.0,1.0,-1.0,1.0,1.0,-0.7033,1.0,-1.0,0.563,-1.0,1.0,0.9665,1.0,-1.0,0.1777,1.0,0.0,0.0,0.0,0.0,0.0,0.0,0.0,0.0,0.0,0.3333,0.0,0.3333,0.0,0
3.92,run,6.64,2.74,6.91,8.07,-26.61,0.0,0.05,0.0,0.799,-23.91,-22.68,116.54,-16.35,-23.64,93.78,22.32,-41.84,125.33,-6.68,-3.52,94.39,-32.26,-8.61,71.19,-6.77,1.85,73.56,-35.0,-33.59,104.87,-9.5,-34.92,94.99,35.0,-44.62,137.87,-18.78,-2.89,83.69,-27.5,-5.36,82.2,-17.0,-2.63,85.81,-1.0,-1.0,-1.0,1.0,-1.0,1.0,1.0,1.0,1.0,-1.0,-0.0599,-1.0,1.0,1.0,1.0,-1.0,1.0,1.0,0.0,0.0,0.019,0.026,0.0,0.006,0.026,0.006,0.084,0.136,0.175,0.0,0.026,0.013,0.006,0.0,0.006,0.019,-0.3958,-0.6596,0.675,-0.3175,-0.6964,0.2869,0.3636,-1.0186,0.7747,-0.0936,-0.3666,0.2899,-0.5814,-0.4357,-0.1365,-0.092,-0.2424,-0.1074,-0.222,-0.2705,-0.2109,0.2893,-0.2607,-0.162,0.2897,-0.1106,0.3047,-0.3135,0.2892,-0.3012,0.0782,-0.2961,0.2363,-0.2828,-0.0046,0.2364,0.6208,-0.1508,0.3653,0.0904,-0.3982,-1.0,-1.0,-1.0,1.0,-1.0,1.0,1.0,0.6431,1.0,-1.0,-0.3493,-1.0,1.0,0.8346,1.0,-1.0,0.9079,1.0,0.0,0.0,0.0,0.0,0.0,0.0,0.0,0.0,0.0,0.3333,0.0,0.3333,0.0,0
3.96,run,6.78,3.21,1.29,15.15,-21.45,0.0,0.05,0.0,0.799,-25.4,-24.08,115.14,-14.77,-25.05,92.9,23.82,-43.15,126.91,-8.17,-2.64,92.9,-30.76,-9.32,72.6,-8.53,0.53,75.06,-35.0,-35.09,103.37,-8.0,-36.42,96.49,35.0,-43.12,139.37,-20.28,-4.39,82.19,-26.0,-3.86,83.7,-18.5,-1.13,87.31,-1.0,-1.0,-1.0,1.0,-1.0,1.0,1.0,1.0,1.0,-1.0,-1.0,-1.0,1.0,1.0,1.0,-1.0,1.0,1.0,0.0,0.0,0.019,0.026,0.0,0.006,0.026,0.006,0.084,0.136,0.175,0.0,0.026,0.013,0.006,0.0,0.006,0.019,-0.4203,-0.6826,0.6489,-0.2915,-0.7194,0.2669,0.3896,-1.0431,0.8023,-0.1181,-0.3513,0.2654,-0.5599,-0.4495,-0.1135,-0.1166,-0.2623,-0.0828,-0.2477,-0.2759,-0.2457,0.3006,-0.269,-0.1884,0.3009,-0.1697,0.3171,-0.3118,0.2601,-0.3032,0.1355,-0.2592,0.2519,-0.2903,-0.0782,0.2578,0.6404,-0.1247,0.1206,0.1409,-0.4644,-1.0,-1.0,-1.0,1.0,-1.0,1.0,1.0,1.0,1.0,-1.0,-0.0599,-1.0,1.0,1.0,1.0,-1.0,1.0,1.0,0.0,0.0,0.0,0.0,0.0,0.0,0.0,0.0,0.0,0.3333,0.0,0.3333,0.0,0
4.0,run,7.0,3.45,2.9,6.77,-15.23,0.0,0.05,0.0,0.799,-26.81,-25.49,113.73,-13.27,-26.28,92.29,25.31,-44.03,128.32,-9.58,-2.29,91.58,-29.44,-9.58,74.09,-9.67,-0.53,76.38,-35.0,-36.59,101.87,-6.5,-37.92,97.99,35.0,-41.62,140.87,-21.78,-5.89,80.69,-24.5,-2.36,85.2,-20.0,0.37,88.81,-1.0,-1.0,-1.0,1.0,-1.0,1.0,1.0,1.0,1.0,-1.0,-1.0,-1.0,1.0,1.0,1.0,-1.0,1.0,1.0,0.0,0.0,0.019,0.026,0.0,0.006,0.026,0.006,0.084,0.136,0.175,0.0,0.026,0.013,0.006,0.0,0.006,0.019,-0.4464,-0.7072,0.6243,-0.2638,-0.744,0.2516,0.4157,-1.0661,0.8299,-0.1442,-0.3359,0.2393,-0.5338,-0.4617,-0.089,-0.1473,-0.2853,-0.0568,-0.2717,-0.2857,-0.2645,0.3145,-0.2809,-0.1897,0.3089,-0.2056,0.3261,-0.3166,0.2399,-0.3106,0.1932,-0.2277,0.2689,-0.3189,-0.1415,0.2788,0.6526,-0.0841,0.0225,0.2644,-0.3743,-1.0,-1.0,-1.0,1.0,-1.0,1.0,1.0,1.0,1.0,-1.0,-1.0,-1.0,1.0,1.0,1.0,-1.0,1.0,1.0,0.0,0.0,0.0,0.0,0.0,0.0,0.0,0.0,0.0,0.3333,0.0,0.3333,0.0,0
4.04,run,6.61,5.44,-7.33,56.7,-18.56,0.0,0.05,0.0,0.799,-28.04,-26.72,111.53,-11.69,-27.6,92.02,26.81,-44.91,129.9,-11.16,-2.2,90.18,-28.12,-9.32,75.5,-10.81,-1.67,77.87,-35.0,-38.09,100.37,-5.0,-39.42,99.49,35.0,-40.12,142.37,-23.28,-7.39,79.19,-23.0,-0.86,86.7,-21.5,1.87,90.31,-1.0,-0.8842,-1.0,1.0,-1.0,1.0,1.0,1.0,1.0,-1.0,-1.0,-0.8081,1.0,1.0,1.0,-1.0,1.0,1.0,0.013,0.0,0.006,0.026,0.019,0.006,0.019,0.006,0.026,0.111,0.026,0.0,0.013,0.006,0.006,0.006,0.0,0.026,-0.4709,-0.7317,0.5998,-0.2378,-0.7655,0.2408,0.4418,-1.0815,0.8544,-0.1687,-0.3298,0.2163,-0.5108,-0.4663,-0.0629,-0.1672,-0.3037,-0.0337,-0.2816,-0.2914,-0.2766,0.3173,-0.2766,-0.1728,0.3134,-0.201,0.3197,-0.313,0.1908,-0.3031,0.2209,-0.1765,0.2853,-0.2975,-0.1676,0.2808,0.6715,-0.0628,0.0506,0.1181,-0.2659,-1.0,-1.0,-1.0,1.0,-1.0,1.0,1.0,1.0,1.0,-1.0,-1.0,-1.0,1.0,1.0,1.0,-1.0,1.0,1.0,0.0,0.0,0.0,0.0,0.0,0.0,0.0,0.0,0.0,0.3333,0.0,0.3333,0.0,0
4.08,run,5.65,5.9,-26.43,9.61,-26.89,0.0,0.05,0.0,0.799,-29.62,-28.04,110.48,-10.28,-28.48,92.02,28.3,-45.09,131.48,-12.83,-2.2,88.77,-26.63,-8.96,77.08,-12.92,-2.37,79.1,-35.0,-36.59,98.87,-3.5,-40.92,100.99,35.0,-38.62,143.87,-24.78,-8.89,77.69,-21.5,0.64,88.2,-23.0,3.37,91.81,-1.0,1.0,-1.0,1.0,-1.0,1.0,1.0,1.0,1.0,-1.0,-1.0,-1.0,1.0,0.5305,1.0,-1.0,1.0,1.0,0.013,0.0,0.006,0.026,0.019,0.006,0.019,0.006,0.026,0.111,0.026,0.0,0.013,0.006,0.006,0.006,0.0,0.026,-0.4924,-0.7532,0.5614,-0.2102,-0.7885,0.2362,0.4679,-1.0968,0.882,-0.1963,-0.3283,0.1917,-0.4878,-0.4617,-0.0383,-0.1871,-0.3237,-0.0077,-0.2778,-0.2846,-0.3376,0.3258,-0.28,-0.1382,0.3173,-0.1983,0.3274,-0.3228,0.1393,-0.3043,0.2411,-0.1063,0.2919,-0.2831,-0.1922,0.2945,0.6374,0.1109,-0.1279,0.9896,-0.324,-1.0,-0.8842,-1.0,1.0,-1.0,1.0,1.0,1.0,1.0,-1.0,-1.0,-0.8081,1.0,1.0,1.0,-1.0,1.0,1.0,0.0,0.0,0.0,0.0,0.0,0.0,0.0,0.0,0.0,0.3333,0.0,0.3333,0.0,0
4.12,run,5.74,5.84,-1.86,-1.69,-33.57,0.0,0.05,0.0,0.799,-30.94,-29.36,109.07,-8.88,-30.23,92.81,29.71,-45.26,132.98,-14.33,-2.55,87.36,-25.22,-8.0,78.31,-13.97,-2.72,80.42,-35.0,-35.09,97.37,-2.0,-39.42,102.49,35.0,-37.12,145.37,-26.28,-10.39,76.19,-20.0,-0.86,89.7,-24.5,4.87,93.31,-1.0,1.0,-1.0,1.0,0.0919,1.0,1.0,1.0,1.0,-1.0,-1.0,-1.0,1.0,-1.0,1.0,-1.0,1.0,1.0,0.013,0.0,0.006,0.026,0.019,0.006,0.019,0.006,0.026,0.111,0.026,0.0,0.013,0.006,0.006,0.006,0.0,0.026,-0.52,-0.7762,0.543,-0.1856,-0.8038,0.2362,0.4939,-1.0999,0.9097,-0.2255,-0.3283,0.1672,-0.4617,-0.4556,-0.0107,-0.224,-0.3359,0.0138,-0.2986,-0.286,-0.3058,0.3206,-0.2539,-0.0968,0.3205,-0.1504,0.3334,-0.3359,0.0975,-0.3056,0.2671,-0.0513,0.3085,-0.337,-0.1808,0.2871,0.5536,0.1505,-0.4614,0.1677,-0.4693,-1.0,1.0,-1.0,1.0,-1.0,1.0,1.0,1.0,1.0,-1.0,-1.0,-1.0,1.0,0.5305,1.0,-1.0,1.0,1.0,0.0,0.0,0.0,0.0,0.0,0.0,0.0,0.0,0.0,0.3333,0.0,0.3333,0.0,0
4.16,run,5.65,5.83,3.15,-2.67,-14.83,0.0,0.05,0.0,0.799,-32.26,-30.59,107.67,-7.38,-31.73,93.69,31.2,-44.65,133.95,-16.0,-3.52,86.04,-23.73,-7.21,79.72,-15.56,-2.72,81.83,-35.0,-33.59,95.87,-0.5,-40.92,103.99,35.0,-35.62,143.87,-27.78,-11.89,74.69,-18.5,-2.36,91.2,-26.0,6.37,94.81,-1.0,1.0,-1.0,1.0,-1.0,1.0,1.0,1.0,0.7721,-1.0,-1.0,-1.0,1.0,-0.1843,1.0,-1.0,1.0,1.0,0.006,0.006,0.013,0.019,0.019,0.013,0.013,0.006,0.104,0.019,0.0,0.006,0.006,0.019,0.013,0.006,0.039,0.045,-0.543,-0.7992,0.5185,-0.1611,-0.8345,0.25,0.5185,-1.1029,0.9357,-0.2516,-0.3344,0.1427,-0.4372,-0.4387,0.0107,-0.2424,-0.3421,0.0368,-0.2947,-0.286,-0.3055,0.3159,-0.292,-0.0163,0.3158,-0.1167,0.3305,-0.3323,0.0454,-0.3054,0.2784,0.027,0.296,-0.3045,-0.1494,0.2867,0.5618,0.1454,-0.0325,-0.0295,-0.5859,-1.0,1.0,-1.0,1.0,0.0919,1.0,1.0,1.0,1.0,-1.0,-1.0,-1.0,1.0,-1.0,1.0,-1.0,1.0,1.0,0.0,0.0,0.0,0.0,0.0,0.0,0.0,0.0,0.0,0.3333,0.0,0.3333,0.0,0
4.2,run,5.8,5.98,4.44,2.14,2.62,0.0,0.05,0.0,0.799,-33.31,-31.29,106.44,-5.98,-33.05,94.83,32.34,-43.77,134.82,-17.4,-4.83,84.81,-22.5,-5.62,80.95,-16.44,-2.72,83.06,-35.0,-32.09,94.37,1.0,-42.42,105.49,35.0,-34.12,142.37,-29.28,-13.39,76.19,-17.0,-3.86,92.7,-27.5,7.87,96.31,-1.0,1.0,-1.0,1.0,-1.0,1.0,1.0,1.0,-1.0,-1.0,-1.0,0.414,1.0,-0.1164,0.443,-1.0,1.0,1.0,0.006,0.006,0.013,0.019,0.019,0.013,0.013,0.006,0.104,0.019,0.0,0.006,0.006,0.019,0.013,0.006,0.039,0.045,-0.566,-0.8207,0.4939,-0.135,-0.8606,0.2654,0.5446,-1.0922,0.9526,-0.2807,-0.3513,0.1197,-0.4111,-0.4249,0.0353,-0.27,-0.3421,0.0614,-0.2927,-0.2808,-0.3059,0.319,-0.3023,0.0462,0.3189,-0.0414,0.2947,-0.342,-0.0315,-0.3001,0.2928,0.0707,0.2993,-0.3168,-0.1046,0.2928,0.5538,0.1448,0.0549,-0.0466,-0.2588,-1.0,1.0,-1.0,1.0,-1.0,1.0,1.0,1.0,0.7721,-1.0,-1.0,-1.0,1.0,-0.1843,1.0,-1.0,1.0,1.0,0.0,0.0,0.0,0.0,0.0,0.0,0.0,0.0,0.0,0.3333,0.0,0.3333,0.0,0
4.24,run,5.65,5.8,-4.41,-3.58,0.51,0.0,0.05,0.0,0.799,-34.1,-32.61,105.12,-4.66,-34.45,96.24,33.31,-42.71,135.44,-18.9,-5.98,83.41,-21.09,-4.57,82.35,-18.11,-2.11,84.29,-35.0,-30.59,92.87,2.5,-43.92,106.99,35.0,-32.62,140.87,-30.78,-14.89,77.69,-15.5,-2.36,91.2,-29.0,9.37,97.81,-1.0,1.0,-1.0,1.0,-1.0,1.0,1.0,1.0,-1.0,-1.0,-1.0,0.6047,1.0,1.0,-1.0,-1.0,1.0,1.0,0.006,0.006,0.013,0.019,0.019,0.013,0.013,0.006,0.104,0.019,0.0,0.006,0.006,0.019,0.013,0.006,0.039,0.045,-0.5844,-0.833,0.4725,-0.1104,-0.8836,0.2853,0.5645,-1.0769,0.9679,-0.3053,-0.3743,0.0982,-0.3896,-0.3973,0.0568,-0.2853,-0.3421,0.0828,-0.2738,-0.2425,-0.2946,0.3152,-0.2978,0.107,0.2979,0.0285,0.2637,-0.3313,-0.1082,-0.2905,0.2854,0.1529,0.2899,-0.2792,-0.0732,0.2854,0.5669,0.1578,0.0774,0.0374,0.0457,-1.0,1.0,-1.0,1.0,-1.0,1.0,1.0,1.0,-1.0,-1.0,-1.0,0.414,1.0,-0.1164,0.443,-1.0,1.0,1.0,0.0,0.0,0.0,0.0,0.0,0.0,0.0,0.0,0.0,0.3333,0.0,0.3333,0.0,0
4.28,run,5.49,5.65,-4.71,-2.26,-0.01,0.0,0.05,0.0,0.799,-34.72,-33.49,103.71,-3.16,-35.86,97.65,34.01,-41.57,136.05,-20.39,-7.21,82.09,-19.78,-3.87,83.67,-19.34,-1.32,85.61,-35.0,-29.09,91.37,1.0,-45.42,108.49,35.0,-31.12,139.37,-29.28,-16.39,79.19,-14.0,-1.13,89.7,-30.5,10.88,99.31,-1.0,1.0,-1.0,-0.7211,-1.0,1.0,1.0,1.0,-1.0,-0.3937,-1.0,1.0,1.0,0.434,-1.0,-1.0,1.0,1.0,0.0,0.013,0.006,0.013,0.026,0.013,0.013,0.019,0.481,0.026,0.026,0.013,0.033,0.045,0.052,0.052,0.156,0.078,-0.5983,-0.856,0.4495,-0.0874,-0.9081,0.3099,0.5814,-1.0584,0.9787,-0.3313,-0.3942,0.0736,-0.3651,-0.3789,0.0813,-0.3145,-0.3313,0.1043,-0.2435,-0.2561,-0.2926,0.307,-0.3006,0.167,0.2719,0.089,0.2249,-0.3298,-0.1506,-0.2955,0.2919,0.1761,0.2951,-0.3048,-0.011,0.2804,0.5541,0.142,-0.077,-0.0624,0.0088,-1.0,1.0,-1.0,1.0,-1.0,1.0,1.0,1.0,-1.0,-1.0,-1.0,0.6047,1.0,1.0,-1.0,-1.0,1.0,1.0,0.0,0.0,0.0,0.0,0.0,0.0,0.0,0.0,0.0,0.3333,0.0,0.3333,0.0,0
4.32,run,5.55,5.76,2.76,1.09,-1.63,0.0,0.05,0.0,0.799,-34.89,-34.01,102.22,-1.85,-37.35,99.05,34.37,-40.25,136.41,-21.88,-8.26,80.86,-18.46,-3.16,84.9,-20.57,-0.26,86.84,-33.5,-27.59,89.87,-0.5,-46.92,109.99,35.0,-29.62,137.87,-27.78,-17.89,80.69,-12.5,0.37,88.2,-32.0,9.37,100.81,-0.5839,1.0,-0.4994,-1.0,-1.0,1.0,1.0,1.0,-1.0,-0.0148,-1.0,1.0,1.0,1.0,-1.0,-1.0,-0.1913,1.0,0.0,0.013,0.006,0.013,0.026,0.013,0.013,0.019,0.481,0.026,0.026,0.013,0.033,0.045,0.052,0.052,0.156,0.078,-0.609,-0.8713,0.4249,-0.0614,-0.9327,0.3344,0.5937,-1.0385,0.9894,-0.3574,-0.4157,0.0506,-0.3421,-0.3666,0.1043,-0.3359,-0.3175,0.1273,-0.2107,-0.2368,-0.2969,0.3128,-0.3025,0.209,0.2364,0.1372,0.1977,-0.3287,-0.186,-0.2932,0.2907,0.1693,0.2929,-0.294,0.0441,0.2826,0.5398,0.1291,-0.0822,-0.0395,-0.0001,-1.0,1.0,-1.0,-0.7211,-1.0,1.0,1.0,1.0,-1.0,-0.3937,-1.0,1.0,1.0,0.434,-1.0,-1.0,1.0,1.0,0.0,0.0,0.0,0.0,0.0,0.0,0.0,0.0,0.0,0.3333,0.0,0.3333,0.0,0
4.36,run,6.17,6.01,18.23,5.95,-5.71,0.0,0.05,0.0,0.799,-34.89,-34.1,100.72,-0.7,-38.67,100.46,34.54,-39.02,136.58,-23.2,-9.93,79.72,-17.05,-2.46,86.22,-21.97,0.88,88.15,-32.0,-26.09,88.37,-2.0,-48.42,111.49,35.0,-31.12,136.37,-26.28,-19.39,82.19,-11.0,1.87,86.7,-33.5,7.87,102.31,1.0,1.0,0.2102,-1.0,-1.0,1.0,1.0,-1.0,-1.0,0.5836,-1.0,1.0,1.0,1.0,-1.0,-1.0,-0.9009,1.0,0.0,0.013,0.006,0.013,0.026,0.013,0.013,0.019,0.481,0.026,0.026,0.013,0.033,0.045,0.052,0.052,0.156,0.078,-0.6121,-0.8805,0.3988,-0.0383,-0.9587,0.359,0.5998,-1.0155,0.9956,-0.3835,-0.4341,0.0291,-0.3191,-0.3543,0.1258,-0.3574,-0.2991,0.1488,-0.159,-0.2003,-0.3055,0.3051,-0.3094,0.2383,0.1884,0.1822,0.1614,-0.3278,-0.1992,-0.2857,0.2897,0.1645,0.2855,-0.2862,0.0999,0.2783,0.545,0.1385,0.0481,0.019,-0.0285,-0.5839,1.0,-0.4994,-1.0,-1.0,1.0,1.0,1.0,-1.0,-0.0148,-1.0,1.0,1.0,1.0,-1.0,-1.0,-0.1913,1.0,0.0,0.0,0.0,0.0,0.0,0.0,0.0,0.0,0.0,0.3333,0.0,0.3333,0.0,0
4.4,run,7.09,6.33,23.82,7.57,-3.98,0.0,0.05,0.0,0.799,-34.45,-34.1,99.32,0.09,-40.17,101.95,34.54,-37.71,136.67,-24.7,-11.25,79.1,-15.64,-1.41,87.28,-23.55,2.11,89.38,-30.5,-24.59,86.87,-3.5,-49.92,112.99,35.0,-32.62,134.87,-24.78,-20.89,83.69,-9.5,3.37,85.2,-35.0,6.37,100.81,1.0,1.0,-0.0295,-1.0,-1.0,1.0,1.0,-1.0,-1.0,1.0,-1.0,1.0,1.0,1.0,-1.0,-1.0,-1.0,0.0615,0.019,0.013,0.013,0.006,0.026,0.006,0.006,0.058,0.669,0.006,0.033,0.006,0.026,0.084,0.033,0.026,0.234,0.117,-0.6121,-0.882,0.3728,-0.0184,-0.9817,0.3835,0.6029,-0.994,0.9986,-0.4065,-0.4633,0.0092,-0.2945,-0.3421,0.1488,-0.382,-0.2792,0.1718,-0.1113,-0.1459,-0.3117,0.2884,-0.303,0.2589,0.1434,0.2081,0.1245,-0.3158,-0.2488,-0.2748,0.2949,0.1612,0.2862,-0.2925,0.1447,0.2812,0.5994,0.16,0.3182,0.1039,-0.0996,1.0,1.0,0.2102,-1.0,-1.0,1.0,1.0,-1.0,-1.0,0.5836,-1.0,1.0,1.0,1.0,-1.0,-1.0,-0.9009,1.0,0.0,0.0,0.0,0.0,0.0,0.0,0.0,0.0,0.0,0.3333,0.0,0.3333,0.0,0
4.44,run,8.23,6.82,29.24,12.85,-3.62,0.0,0.05,0.0,0.799,-33.4,-33.57,97.82,0.62,-41.57,103.36,34.54,-36.3,136.67,-25.58,-12.66,78.66,-14.15,0.0,88.15,-24.96,3.16,90.79,-29.0,-23.09,88.37,-5.0,-51.42,114.49,35.0,-34.12,133.37,-23.28,-22.39,85.19,-8.0,4.87,83.7,-35.0,4.87,99.31,1.0,1.0,0.8833,-1.0,-1.0,1.0,1.0,-1.0,-1.0,1.0,-1.0,1.0,1.0,1.0,-1.0,-1.0,-1.0,-1.0,0.019,0.013,0.013,0.006,0.026,0.006,0.006,0.058,0.669,0.006,0.033,0.006,0.026,0.084,0.033,0.026,0.234,0.117,-0.6044,-0.882,0.3482,-0.0046,-1.0078,0.4096,0.6029,-0.971,1.0002,-0.4326,-0.4863,-0.0015,-0.27,-0.3237,0.1672,-0.4096,-0.2577,0.1933,-0.0491,-0.1022,-0.3103,0.2537,-0.3099,0.279,0.1004,0.232,0.0929,-0.3189,-0.2605,-0.2326,0.2985,0.1819,0.2694,-0.3083,0.1819,0.2774,0.6793,0.1884,0.4157,0.1321,-0.0695,1.0,1.0,-0.0295,-1.0,-1.0,1.0,1.0,-1.0,-1.0,1.0,-1.0,1.0,1.0,1.0,-1.0,-1.0,-1.0,0.0615,0.0,0.0,0.0,0.0,0.0,0.0,0.0,0.0,0.0,0.3333,0.0,0.3333,0.0,0
4.48,run,9.58,7.42,33.75,16.68,-5.84,0.0,0.05,0.0,0.799,-32.52,-32.7,96.42,0.79,-42.98,104.77,34.54,-35.07,136.67,-26.46,-14.06,78.66,-12.74,1.32,88.77,-26.46,3.96,92.11,-27.5,-21.59,89.87,-6.5,-52.92,112.99,35.0,-35.62,131.87,-21.78,-23.89,86.69,-6.5,6.37,82.2,-35.0,3.37,97.81,1.0,1.0,1.0,-1.0,-1.0,0.4004,1.0,-1.0,-1.0,1.0,-1.0,1.0,0.4394,1.0,-1.0,-1.0,-1.0,-1.0,0.019,0.013,0.013,0.006,0.026,0.006,0.006,0.058,0.669,0.006,0.033,0.006,0.026,0.084,0.033,0.026,0.234,0.117,-0.586,-0.8728,0.3221,0.0046,-1.0324,0.4341,0.6029,-0.9465,1.0002,-0.4479,-0.5108,-0.0092,-0.2439,-0.2991,0.1825,-0.4341,-0.2393,0.2178,0.0346,-0.037,-0.3149,0.2121,-0.3089,0.2873,0.0703,0.2544,0.065,-0.2807,-0.2743,-0.1916,0.3067,0.2193,0.2461,-0.3078,0.1963,0.2861,0.7786,0.231,0.5103,0.2243,-0.0631,1.0,1.0,0.8833,-1.0,-1.0,1.0,1.0,-1.0,-1.0,1.0,-1.0,1.0,1.0,1.0,-1.0,-1.0,-1.0,-1.0,0.0,0.0,0.0,0.0,0.0,0.0,0.0,0.0,0.0,0.3333,0.0,0.3333,0.0,0
4.52,run,10.94,8.1,33.44,17.62,-9.24,0.0,0.05,0.0,0.799,-31.11,-31.46,94.75,0.79,-44.38,106.17,34.54,-34.1,136.67,-26.81,-15.56,79.01,-11.25,2.81,89.03,-27.95,4.66,93.43,-26.0,-20.09,91.37,-8.0,-54.42,111.49,35.0,-37.12,130.37,-20.28,-25.39,88.19,-5.64,7.87,80.7,-35.0,1.87,96.31,1.0,1.0,1.0,-1.0,-1.0,0.0077,1.0,-1.0,-1.0,1.0,-1.0,1.0,-0.161,1.0,-1.0,-1.0,-1.0,-1.0,0.0,0.019,0.013,0.019,0.013,0.019,0.013,0.019,0.169,0.006,0.013,0.019,0.019,0.026,0.006,0.026,0.234,0.123,-0.5706,-0.8575,0.2976,0.0077,-1.0569,0.4587,0.6029,-0.925,1.0002,-0.4633,-0.5354,-0.0092,-0.2194,-0.2761,0.1933,-0.4602,-0.2255,0.2408,0.0818,0.0316,-0.3125,0.16,-0.3083,0.2932,0.0492,0.2586,0.0455,-0.254,-0.2841,-0.1341,0.3067,0.2398,0.2125,-0.3133,0.1892,0.2866,0.8967,0.2839,0.589,0.291,-0.102,1.0,1.0,1.0,-1.0,-1.0,0.4004,1.0,-1.0,-1.0,1.0,-1.0,1.0,0.4394,1.0,-1.0,-1.0,-1.0,-1.0,0.0,0.0,0.0,0.0,0.0,0.0,0.0,0.0,0.0,0.3333,0.0,0.3333,0.0,0
4.56,run,12.05,8.6,28.2,12.59,-9.61,0.0,0.05,0.0,0.799,-29.62,-30.85,93.52,0.7,-46.23,107.58,34.54,-33.31,136.67,-26.81,-16.96,79.98,-9.84,4.39,88.68,-29.53,5.01,94.48,-24.5,-18.59,92.87,-9.5,-55.92,109.99,33.5,-38.62,128.87,-18.78,-26.89,89.69,-7.14,9.37,79.2,-33.5,0.37,94.81,1.0,1.0,1.0,-1.0,-1.0,-0.1566,0.385,-1.0,-1.0,1.0,-1.0,1.0,-0.6307,1.0,-1.0,-0.7091,-1.0,-1.0,0.0,0.019,0.013,0.019,0.013,0.019,0.013,0.019,0.169,0.006,0.013,0.019,0.019,0.026,0.006,0.026,0.234,0.123,-0.5461,-0.836,0.2684,0.0077,-1.0815,0.4832,0.6029,-0.9081,1.0002,-0.4694,-0.5614,-0.0031,-0.1933,-0.25,0.1979,-0.4863,-0.2132,0.2638,0.1492,0.1026,-0.328,0.112,-0.3078,0.2972,0.0344,0.2443,0.0319,-0.2008,-0.2966,-0.0709,0.3124,0.2656,0.166,-0.317,0.1784,0.2869,1.0153,0.3426,0.5837,0.3076,-0.1613,1.0,1.0,1.0,-1.0,-1.0,0.0077,1.0,-1.0,-1.0,1.0,-1.0,1.0,-0.161,1.0,-1.0,-1.0,-1.0,-1.0,0.0,0.0,0.0,0.0,0.0,0.0,0.0,0.0,0.0,0.3333,0.0,0.3333,0.0,0
4.6,run,12.65,8.83,13.67,3.62,-11.31,0.0,0.05,0.0,0.799,-28.39,-29.09,92.37,-0.53,-47.81,108.9,34.63,-32.87,136.58,-26.72,-18.37,81.04,-8.53,5.8,88.07,-30.94,5.01,95.36,-23.0,-17.09,94.37,-11.0,-57.42,108.49,32.0,-40.12,127.37,-17.28,-28.39,91.19,-8.64,10.87,77.7,-32.0,-1.13,93.31,1.0,1.0,1.0,-1.0,-1.0,0.4865,-0.6739,-1.0,-1.0,1.0,-1.0,1.0,-1.0,1.0,-1.0,-0.489,-1.0,-1.0,0.0,0.019,0.013,0.019,0.013,0.019,0.013,0.019,0.169,0.006,0.013,0.019,0.019,0.026,0.006,0.026,0.234,0.123,-0.52,-0.8253,0.247,0.0061,-1.1137,0.5077,0.6029,-0.8943,1.0002,-0.4694,-0.586,0.0138,-0.1687,-0.2224,0.1917,-0.5139,-0.2071,0.2823,0.2028,0.1123,-0.3106,0.0726,-0.3369,0.3006,0.0241,0.2231,0.0223,-0.1406,-0.3002,0.014,0.3113,0.29,0.0931,-0.326,0.148,0.2702,1.1126,0.3865,0.4922,0.2198,-0.1677,1.0,1.0,1.0,-1.0,-1.0,-0.1566,0.385,-1.0,-1.0,1.0,-1.0,1.0,-0.6307,1.0,-1.0,-0.7091,-1.0,-1.0,0.0,0.0,0.0,0.0,0.0,0.0,0.0,0.0,0.0,0.3333,0.0,0.3333,0.0,0
4.64,run,13.16,9.0,12.94,3.03,-7.91,0.0,0.05,0.0,0.799,-26.98,-27.6,91.58,-1.85,-49.04,109.86,34.45,-33.13,135.88,-25.4,-19.78,82.35,-7.38,7.12,86.92,-32.08,5.01,95.98,-21.5,-15.59,95.87,-12.5,-58.92,109.99,30.5,-41.62,125.87,-15.78,-29.89,92.69,-10.14,12.37,76.2,-33.5,-2.63,91.81,1.0,1.0,1.0,-1.0,-1.0,1.0,-1.0,-1.0,-1.0,1.0,-1.0,1.0,-1.0,1.0,-1.0,-1.0,-1.0,-1.0,0.019,0.033,0.0,0.019,0.013,0.019,0.019,0.0,0.0,0.0,0.019,0.0,0.013,0.033,0.006,0.013,0.026,0.045,-0.4985,-0.7946,0.227,-0.0153,-1.1413,0.5308,0.6044,-0.8866,0.9986,-0.4679,-0.6105,0.0322,-0.1457,-0.1979,0.181,-0.5384,-0.2071,0.2976,0.2221,0.1931,-0.2918,-0.0293,-0.3389,0.2963,0.0226,0.1848,0.0099,-0.0927,-0.3017,0.0785,0.3038,0.2946,0.0251,-0.3198,0.1036,0.2464,1.1646,0.4064,0.2386,0.0632,-0.1974,1.0,1.0,1.0,-1.0,-1.0,0.4865,-0.6739,-1.0,-1.0,1.0,-1.0,1.0,-1.0,1.0,-1.0,-0.489,-1.0,-1.0,0.0,0.0,0.0,0.0,0.0,0.0,0.0,0.0,0.0,0.3333,0.0,0.3333,0.0,0
4.68,run,13.36,9.04,5.28,-0.84,-1.94,0.0,0.05,0.0,0.799,-25.58,-26.28,91.05,-3.16,-50.36,110.57,34.28,-33.57,135.09,-24.52,-21.27,83.76,-6.77,8.44,85.69,-32.78,5.01,96.15,-20.0,-14.09,97.37,-14.0,-60.42,111.49,29.0,-43.12,124.37,-14.28,-31.39,94.19,-11.64,13.87,74.7,-35.0,-4.13,90.31,1.0,1.0,1.0,-1.0,-1.0,1.0,-1.0,-1.0,-1.0,1.0,-1.0,1.0,-1.0,1.0,-1.0,-1.0,-1.0,-1.0,0.019,0.033,0.0,0.019,0.013,0.019,0.019,0.0,0.0,0.0,0.019,0.0,0.013,0.033,0.006,0.013,0.026,0.045,-0.474,-0.7685,0.2132,-0.0383,-1.1628,0.5476,0.6013,-0.8912,0.9863,-0.4449,-0.6351,0.0552,-0.1258,-0.1749,0.1611,-0.5584,-0.2071,0.3083,0.2474,0.2328,-0.256,-0.1067,-0.3176,0.2706,0.0043,0.1121,-0.039,0.0213,-0.3031,0.1411,0.2873,0.2924,-0.0571,-0.2985,0.0725,0.2127,1.2096,0.4217,0.2258,0.053,-0.138,1.0,1.0,1.0,-1.0,-1.0,1.0,-1.0,-1.0,-1.0,1.0,-1.0,1.0,-1.0,1.0,-1.0,-1.0,-1.0,-1.0,0.0,0.0,0.0,0.0,0.0,0.0,0.0,0.0,0.0,0.3333,0.0,0.3333,0.0,0
4.72,run,13.73,8.89,9.03,-4.24,10.16,0.0,0.05,0.0,0.799,-24.26,-24.96,90.97,-4.66,-51.42,111.09,33.05,-34.37,134.21,-23.2,-22.59,85.17,-6.24,9.84,84.29,-33.4,4.04,96.24,-18.5,-12.59,98.87,-15.5,-61.92,112.99,27.5,-44.62,122.87,-12.78,-32.89,95.69,-13.14,15.37,73.2,-35.0,-5.63,88.81,1.0,0.4482,1.0,-1.0,-1.0,1.0,-1.0,-1.0,-1.0,1.0,-0.6617,1.0,-1.0,1.0,-1.0,-1.0,-1.0,-1.0,0.019,0.033,0.0,0.019,0.013,0.019,0.019,0.0,0.0,0.0,0.019,0.0,0.013,0.033,0.006,0.013,0.026,0.045,-0.4495,-0.7455,0.204,-0.0614,-1.1858,0.5599,0.5983,-0.8989,0.9725,-0.4295,-0.6611,0.0798,-0.115,-0.1519,0.1396,-0.5706,-0.2071,0.3114,0.2658,0.2498,-0.2139,-0.1615,-0.3092,0.2357,-0.0085,0.0495,-0.0794,0.0728,-0.3106,0.1914,0.2416,0.2915,-0.1211,-0.2553,0.0508,0.1605,1.227,0.4252,0.0922,-0.0147,-0.0338,1.0,1.0,1.0,-1.0,-1.0,1.0,-1.0,-1.0,-1.0,1.0,-1.0,1.0,-1.0,1.0,-1.0,-1.0,-1.0,-1.0,0.0,0.0,0.0,0.0,0.0,0.0,0.0,0.0,0.0,0.3333,0.0,0.3333,0.0,0
4.76,run,14.07,8.8,8.63,-2.77,13.55,0.0,0.05,0.0,0.799,-22.85,-23.64,91.05,-6.15,-52.91,111.53,31.73,-35.68,133.33,-21.8,-24.08,86.57,-6.06,11.16,82.88,-34.1,3.08,96.24,-17.0,-14.09,100.37,-17.0,-63.42,114.49,26.0,-46.12,121.37,-11.28,-34.39,97.19,-14.64,16.87,71.7,-33.5,-7.13,87.31,1.0,-0.5941,1.0,-1.0,-1.0,1.0,-1.0,-1.0,-1.0,1.0,-0.4916,1.0,-1.0,1.0,-1.0,-0.5471,-1.0,-1.0,0.026,0.058,0.026,0.013,0.019,0.006,0.019,0.019,0.019,0.019,0.013,0.006,0.0,0.033,0.013,0.006,0.0,0.0,-0.4264,-0.7225,0.2025,-0.0874,-1.2042,0.5691,0.5768,-0.9127,0.9572,-0.4065,-0.6842,0.1043,-0.1058,-0.1273,0.115,-0.5814,-0.224,0.3129,0.2719,0.2607,-0.1555,-0.2103,-0.2851,0.1993,-0.0861,-0.0168,-0.1128,0.1368,-0.3033,0.2255,0.2035,0.2956,-0.1763,-0.2188,-0.0274,0.118,1.2589,0.412,0.1576,-0.074,0.1774,1.0,0.4482,1.0,-1.0,-1.0,1.0,-1.0,-1.0,-1.0,1.0,-0.6617,1.0,-1.0,1.0,-1.0,-1.0,-1.0,-1.0,0.0,0.0,0.0,0.0,0.0,0.0,0.0,0.0,0.0,0.3333,0.0,0.3333,0.0,0
4.8,run,14.34,8.72,7.37,-1.93,6.38,0.0,0.05,0.0,0.799,-21.53,-22.41,91.49,-7.65,-54.32,112.32,30.32,-37.18,131.92,-20.39,-25.49,88.07,-6.24,12.57,81.39,-34.63,1.93,95.45,-15.5,-15.59,101.87,-18.5,-64.92,115.99,24.5,-47.62,119.87,-9.78,-35.89,98.69,-16.14,18.37,70.2,-32.0,-8.63,85.81,1.0,-1.0,1.0,-1.0,-1.0,1.0,-1.0,-1.0,-1.0,1.0,-0.7725,1.0,-1.0,1.0,-1.0,0.3376,-1.0,-1.0,0.026,0.058,0.026,0.013,0.019,0.006,0.019,0.019,0.019,0.019,0.013,0.006,0.0,0.033,0.013,0.006,0.0,0.0,-0.4019,-0.6995,0.204,-0.1135,-1.2303,0.5768,0.5538,-0.9357,0.9419,-0.382,-0.7102,0.1289,-0.1028,-0.1043,0.0905,-0.5937,-0.2408,0.3129,0.2824,0.2688,-0.1031,-0.245,-0.2974,0.1683,-0.1465,-0.0981,-0.1365,0.1878,-0.3101,0.2499,0.1539,0.2932,-0.2154,-0.1992,-0.0824,0.0826,1.2884,0.4039,0.1506,-0.0484,0.2365,1.0,-0.5941,1.0,-1.0,-1.0,1.0,-1.0,-1.0,-1.0,1.0,-0.4916,1.0,-1.0,1.0,-1.0,-0.5471,-1.0,-1.0,0.0,0.0,0.0,0.0,0.0,0.0,0.0,0.0,0.0,0.3333,0.0,0.3333,0.0,0
4.84,run,14.48,8.83,3.64,0.16,-0.29,0.0,0.05,0.0,0.799,-20.21,-21.18,92.37,-8.96,-55.72,113.38,29.0,-38.41,130.61,-18.98,-26.89,89.47,-6.77,13.97,79.98,-34.8,0.79,94.31,-14.0,-17.09,103.37,-20.0,-66.42,117.49,23.0,-49.12,118.37,-8.28,-37.39,100.19,-17.64,19.87,68.7,-30.5,-10.13,84.31,1.0,-1.0,1.0,-1.0,-1.0,1.0,-1.0,-1.0,-1.0,1.0,-1.0,1.0,-1.0,1.0,-1.0,1.0,-0.5329,-1.0,0.026,0.058,0.026,0.013,0.019,0.006,0.019,0.019,0.019,0.019,0.013,0.006,0.0,0.033,0.013,0.006,0.0,0.0,-0.3789,-0.678,0.2117,-0.1396,-1.2548,0.5906,0.5292,-0.9618,0.9173,-0.3574,-0.7348,0.1549,-0.1058,-0.0798,0.0644,-0.6029,-0.2608,0.2991,0.2839,0.2687,-0.0434,-0.2693,-0.3002,0.1696,-0.1946,-0.1664,-0.1876,0.2235,-0.3091,0.2727,0.0963,0.2973,-0.2486,-0.1739,-0.1325,0.0061,1.3118,0.3972,0.1287,-0.0336,0.1113,1.0,-1.0,1.0,-1.0,-1.0,1.0,-1.0,-1.0,-1.0,1.0,-0.7725,1.0,-1.0,1.0,-1.0,0.3376,-1.0,-1.0,0.0,0.0,0.0,0.0,0.0,0.0,0.0,0.0,0.0,0.3333,0.0,0.3333,0.0,0
4.88,run,14.42,8.57,-1.88,-6.03,0.0,0.0,0.05,0.0,0.799,-18.9,-19.95,93.52,-10.46,-57.22,114.7,27.6,-39.9,129.2,-17.58,-28.39,90.79,-7.91,15.29,78.57,-34.8,-0.35,93.08,-12.5,-18.59,104.87,-21.5,-67.92,118.99,21.5,-50.62,116.87,-6.78,-38.89,101.69,-19.14,21.37,67.2,-29.0,-8.63,82.81,1.0,-1.0,1.0,-1.0,-1.0,0.9564,-1.0,-1.0,-1.0,1.0,-1.0,1.0,-1.0,1.0,-1.0,1.0,0.543,-1.0,0.058,0.084,0.045,0.013,0.019,0.019,0.019,0.006,0.045,0.013,0.019,0.013,0.019,0.078,0.006,0.013,0.013,0.013,-0.3559,-0.6565,0.227,-0.1626,-1.2793,0.609,0.5062,-0.9833,0.8943,-0.3329,-0.7593,0.1795,-0.115,-0.0552,0.0399,-0.6059,-0.2807,0.2792,0.2851,0.2686,0.0272,-0.2748,-0.3022,0.1878,-0.2226,-0.1971,-0.2176,0.2485,-0.3084,0.283,0.0328,0.3002,-0.2661,-0.1333,-0.1676,-0.0706,1.3243,0.4062,0.0636,0.0029,-0.005,1.0,-1.0,1.0,-1.0,-1.0,1.0,-1.0,-1.0,-1.0,1.0,-1.0,1.0,-1.0,1.0,-1.0,1.0,-0.5329,-1.0,0.0,0.0,0.0,0.0,0.0,0.0,0.0,0.0,0.0,0.3333,0.0,0.3333,0.0,0
4.92,run,14.47,8.54,0.99,-1.14,6.64,0.0,0.05,0.0,0.799,-17.49,-19.07,94.75,-11.87,-58.62,116.02,26.28,-41.31,127.88,-16.08,-29.71,92.29,-9.05,16.61,77.08,-33.93,-1.23,91.76,-11.0,-20.09,106.37,-23.0,-66.42,117.49,20.0,-50.94,115.37,-5.28,-40.39,103.19,-20.64,22.87,65.7,-27.5,-7.13,81.31,1.0,-1.0,1.0,-1.0,-0.2199,0.0734,-1.0,-0.4716,-1.0,1.0,-0.7678,1.0,-1.0,1.0,-1.0,1.0,0.8998,-1.0,0.058,0.084,0.045,0.013,0.019,0.019,0.019,0.006,0.045,0.013,0.019,0.013,0.019,0.078,0.006,0.013,0.013,0.013,-0.3329,-0.6351,0.247,-0.1887,-1.3054,0.632,0.4817,-1.0094,0.8698,-0.3083,-0.7854,0.2025,-0.135,-0.0322,0.0153,-0.6059,-0.3007,0.2577,0.2858,0.2686,0.0938,-0.2902,-0.3093,0.2177,-0.2478,-0.2357,-0.2444,0.266,-0.3137,0.2844,-0.0518,0.2964,-0.2783,-0.0933,-0.1921,-0.1299,1.3192,0.3838,-0.0329,-0.1053,0.0,1.0,-1.0,1.0,-1.0,-1.0,0.9564,-1.0,-1.0,-1.0,1.0,-1.0,1.0,-1.0,1.0,-1.0,1.0,0.543,-1.0,0.0,0.0,0.0,0.0,0.0,0.0,0.0,0.0,0.0,0.3333,0.0,0.3333,0.0,0
4.96,run,14.33,8.28,-3.14,-6.42,9.19,0.0,0.05,0.0,0.799,-16.17,-18.37,95.98,-13.27,-60.03,117.16,24.79,-42.63,126.21,-14.68,-31.2,93.69,-10.28,17.93,75.59,-32.96,-2.64,90.44,-9.5,-21.59,107.87,-24.5,-64.92,115.99,18.5,-52.44,113.87,-3.78,-39.89,104.69,-22.14,24.37,64.2,-26.0,-5.63,79.81,1.0,-1.0,1.0,-1.0,0.2542,-1.0,-1.0,-1.0,-1.0,1.0,-0.2707,1.0,-1.0,1.0,-1.0,1.0,1.0,-1.0,0.058,0.084,0.045,0.013,0.019,0.019,0.019,0.006,0.045,0.013,0.019,0.013,0.019,0.078,0.006,0.013,0.013,0.013,-0.3083,-0.6197,0.2684,-0.2132,-1.33,0.655,0.4587,-1.0339,0.8468,-0.2823,-0.8084,0.2286,-0.1549,-0.0092,-0.0107,-0.5906,-0.316,0.2347,0.2917,0.2453,0.1459,-0.2948,-0.3082,0.2383,-0.2594,-0.2567,-0.257,0.2836,-0.3055,0.2965,-0.1107,0.2934,-0.2922,-0.008,-0.1917,-0.1769,1.3232,0.3809,0.0173,-0.0199,0.1158,1.0,-1.0,1.0,-1.0,-0.2199,0.0734,-1.0,-0.4716,-1.0,1.0,-0.7678,1.0,-1.0,1.0,-1.0,1.0,0.8998,-1.0,0.0,0.0,0.0,0.0,0.0,0.0,0.0,0.0,0.0,0.3333,0.0,0.3333,0.0,0
5.0,run,13.59,7.53,-19.05,-18.82,2.69,0.0,0.05,0.0,0.799,-14.77,-17.93,97.29,-14.68,-61.35,118.12,23.29,-43.95,124.8,-13.36,-32.61,95.1,-11.69,19.16,74.09,-31.73,-4.04,89.38,-8.0,-23.09,109.37,-26.0,-63.42,114.49,17.0,-50.94,112.37,-2.28,-38.39,106.19,-23.64,25.87,62.7,-24.5,-4.13,78.31,1.0,-1.0,1.0,-1.0,0.6391,-1.0,-1.0,0.139,-1.0,1.0,0.8477,1.0,-1.0,1.0,-1.0,1.0,1.0,-1.0,0.052,0.091,0.052,0.006,0.019,0.006,0.013,0.019,0.026,0.013,0.019,0.013,0.026,0.163,0.0,0.019,0.019,0.013,-0.2853,-0.6075,0.2899,-0.2378,-1.3545,0.675,0.4326,-1.0569,0.8176,-0.2577,-0.8345,0.2531,-0.1764,0.0138,-0.0368,-0.5737,-0.3405,0.2117,0.2909,0.2179,0.183,-0.2988,-0.3081,0.2419,-0.2798,-0.2663,-0.2896,0.2909,-0.312,0.2999,-0.1584,0.292,-0.3027,0.0579,-0.2266,-0.2105,1.3116,0.3585,-0.0547,-0.1121,0.1605,1.0,-1.0,1.0,-1.0,0.2542,-1.0,-1.0,-1.0,-1.0,1.0,-0.2707,1.0,-1.0,1.0,-1.0,1.0,1.0,-1.0,0.0,0.0,0.0,0.0,0.0,0.0,0.0,0.0,0.0,0.3333,0.0,0.3333,0.0,0
5.04,run,13.13,6.73,-11.16,-19.01,-5.34,0.0,0.048,0.0,0.799,-13.27,-17.84,98.79,-16.17,-62.58,118.65,21.88,-45.35,123.49,-11.87,-34.01,96.5,-13.1,20.39,72.6,-30.32,-5.1,87.71,-9.5,-24.59,110.87,-27.5,-61.92,112.99,15.5,-49.44,110.87,-0.78,-36.89,107.69,-25.14,27.37,61.2,-23.0,-2.63,76.81,-0.7933,-1.0,1.0,-1.0,1.0,-1.0,-1.0,1.0,-1.0,1.0,1.0,1.0,-1.0,1.0,-1.0,1.0,1.0,-1.0,0.052,0.091,0.052,0.006,0.019,0.006,0.013,0.019,0.026,0.013,0.019,0.013,0.026,0.163,0.0,0.019,0.019,0.013,-0.2608,-0.5998,0.3129,-0.2623,-1.3775,0.6918,0.4065,-1.0799,0.7931,-0.2347,-0.859,0.2777,-0.201,0.0353,-0.0629,-0.5522,-0.3651,0.1933,0.296,0.1814,0.2147,-0.3015,-0.3023,0.2328,-0.294,-0.273,-0.2951,0.2902,-0.3108,0.3023,-0.2032,0.2852,-0.31,0.1214,-0.251,-0.2166,1.2468,0.2927,-0.3325,-0.3285,0.0469,1.0,-1.0,1.0,-1.0,0.6391,-1.0,-1.0,0.139,-1.0,1.0,0.8477,1.0,-1.0,1.0,-1.0,1.0,1.0,-1.0,0.0,0.0,0.0,0.0,0.0,0.0,0.0,0.0,0.0,0.32,0.0,0.32,0.0,0
5.08,run,12.76,5.93,-7.99,-20.84,-6.78,0.0,0.046,0.0,0.799,-11.87,-17.75,100.2,-17.58,-63.54,118.83,20.48,-46.67,121.99,-10.37,-35.33,98.0,-14.5,21.62,71.19,-28.92,-5.89,86.31,-11.0,-26.09,112.37,-29.0,-60.42,111.49,14.0,-47.94,109.37,0.72,-35.39,109.19,-26.64,28.87,59.7,-21.5,-1.13,75.31,-1.0,-1.0,1.0,-1.0,1.0,-1.0,-1.0,1.0,-1.0,1.0,1.0,1.0,-1.0,1.0,-1.0,1.0,1.0,-1.0,0.052,0.091,0.052,0.006,0.019,0.006,0.013,0.019,0.026,0.013,0.019,0.013,0.026,0.163,0.0,0.019,0.019,0.013,-0.2347,-0.5983,0.339,-0.2884,-1.399,0.701,0.382,-1.1045,0.7701,-0.2086,-0.8836,0.3022,-0.2255,0.0568,-0.089,-0.5277,-0.3835,0.1641,0.3052,0.1327,0.2482,-0.309,-0.2923,0.1976,-0.298,-0.2833,-0.293,0.3011,-0.3098,0.3038,-0.2345,0.2804,-0.315,0.1772,-0.2449,-0.2611,1.2069,0.2231,-0.1948,-0.3318,-0.0932,-0.7933,-1.0,1.0,-1.0,1.0,-1.0,-1.0,1.0,-1.0,1.0,1.0,1.0,-1.0,1.0,-1.0,1.0,1.0,-1.0,0.0,0.0,0.0,0.0,0.0,0.0,0.0,0.0,0.0,0.3067,0.0,0.3067,0.0,0
