t_s,phase,roll_deg,pitch_deg,gyro_x_dps,gyro_y_dps,gyro_z_dps,height_ref_mm,vx_ref_mps,vy_ref_mps,max_cur_a,q0_deg,q1_deg,q2_deg,q3_deg,q4_deg,q5_deg,q6_deg,q7_deg,q8_deg,q9_deg,q10_deg,q11_deg,q12_deg,q13_deg,q14_deg,q15_deg,q16_deg,q17_deg,cmd0_deg,cmd1_deg,cmd2_deg,cmd3_deg,cmd4_deg,cmd5_deg,cmd6_deg,cmd7_deg,cmd8_deg,cmd9_deg,cmd10_deg,cmd11_deg,cmd12_deg,cmd13_deg,cmd14_deg,cmd15_deg,cmd16_deg,cmd17_deg,act0,act1,act2,act3,act4,act5,act6,act7,act8,act9,act10,act11,act12,act13,act14,act15,act16,act17,cur0_a,cur1_a,cur2_a,cur3_a,cur4_a,cur5_a,cur6_a,cur7_a,cur8_a,cur9_a,cur10_a,cur11_a,cur12_a,cur13_a,cur14_a,cur15_a,cur16_a,cur17_a,obs0,obs1,obs2,obs3,obs4,obs5,obs6,obs7,obs8,obs9,obs10,obs11,obs12,obs13,obs14,obs15,obs16,obs17,obs18,obs19,obs20,obs21,obs22,obs23,obs24,obs25,obs26,obs27,obs28,obs29,obs30,obs31,obs32,obs33,obs34,obs35,obs36,obs37,obs38,obs39,obs40,obs41,obs42,obs43,obs44,obs45,obs46,obs47,obs48,obs49,obs50,obs51,obs52,obs53,obs54,obs55,obs56,obs57,obs58,obs59,obs60,obs61,obs62,obs63,obs64,obs65,obs66,obs67,obs68,obs69,obs70,obs71,rot60_k
0.0,run,1.76,-0.58,0.25,0.26,-0.13,0.0,-0.0,0.0,0.026,-0.18,19.25,79.8,-0.09,16.35,79.01,-0.09,19.42,80.6,0.62,16.88,79.1,0.0,19.16,79.28,-0.09,17.75,79.1,-1.68,17.75,78.3,-1.59,15.11,80.34,1.41,17.92,81.83,1.85,15.64,80.6,1.5,17.57,77.78,-1.59,16.34,80.43,-1.0,-1.0,-0.3702,-1.0,-1.0,1.0,1.0,-1.0,1.0,1.0,-1.0,1.0,0.2009,-1.0,-0.5023,-1.0,-1.0,1.0,0.013,0.006,0.006,0.006,0.0,0.0,0.006,0.019,0.0,0.006,0.0,0.013,0.013,0.026,0.013,0.019,0.006,0.006,0.0,0.0,0.0,0.0,-0.0031,0.0031,0.0,0.0,0.0,0.0046,-0.0031,0.0,0.0,0.0015,0.0,0.0,-0.0015,0.0031,0.0,0.0,0.0,0.0,-0.0075,0.0075,0.0,0.0,0.0,0.0107,-0.007,0.0,0.0,0.0032,0.0,0.0,-0.0032,0.0075,0.0,0.0,-0.0197,-0.0025,0.0302,0.0,0.0,0.0,0.0,0.0,0.0,0.0,0.0,0.0,0.0,0.0,0.0,0.0,0.0,0.0,0.0,0.0,0.0,0.0,0.0,0.0,0.0,0.0,0.0,0.0,0.0,0.0,-0.0,0.0,-0.0,0.0,0
0.04,run,1.67,-0.53,-1.74,-0.01,1.61,0.0,-0.0,0.0,0.026,-0.35,19.07,79.8,-0.26,16.17,79.19,-0.09,19.16,80.77,0.79,16.61,79.37,0.09,18.9,79.1,-0.26,17.49,79.28,-3.18,19.25,79.8,-3.09,13.61,81.84,-0.09,16.42,80.33,3.35,14.14,82.1,0.0,16.07,79.28,-3.09,14.84,81.93,-1.0,1.0,1.0,-1.0,-1.0,1.0,-1.0,-1.0,-1.0,1.0,-1.0,1.0,-1.0,0.3206,1.0,-1.0,-1.0,1.0,0.013,0.006,0.006,0.006,0.0,0.0,0.006,0.019,0.0,0.006,0.0,0.013,0.013,0.026,0.013,0.019,0.006,0.006,0.0,0.0,0.0,0.0,-0.0046,0.0031,0.0,0.0,0.0046,0.0046,-0.0046,0.0,0.0,0.0015,0.0,0.0,-0.0015,0.0031,0.0,0.0,0.0,0.0,-0.0078,0.0052,0.0,0.0,0.0076,0.0075,-0.0074,0.0,0.0,0.0023,0.0,0.0,-0.0023,0.0052,0.0013,0.0024,0.0044,0.0045,-0.0022,-1.0,-1.0,-0.3702,-1.0,-1.0,1.0,1.0,-1.0,1.0,1.0,-1.0,1.0,0.2009,-1.0,-0.5023,-1.0,-1.0,1.0,0.0,0.0,0.0,0.0,0.0,0.0,0.0,0.0,0.0,-0.0,0.0,-0.0,0.0,0
0.08,run,1.57,-0.6,-1.81,-3.01,-0.6,0.0,-0.0,0.0,0.026,-1.32,18.54,79.28,-0.88,15.64,79.98,0.18,18.46,81.21,1.49,16.0,80.07,0.88,18.11,78.22,-1.32,16.96,79.89,-4.68,20.75,81.3,-4.59,12.11,83.34,-1.59,17.92,81.83,4.85,12.64,83.6,-1.5,17.57,80.78,-4.59,13.34,83.43,-0.5882,1.0,0.2047,-1.0,-1.0,0.6933,-1.0,1.0,1.0,1.0,-1.0,1.0,-0.7879,1.0,1.0,-1.0,-1.0,1.0,0.013,0.006,0.006,0.006,0.0,0.0,0.006,0.019,0.0,0.006,0.0,0.013,0.013,0.026,0.013,0.019,0.006,0.006,-0.0031,-0.0031,0.0,-0.0031,-0.0077,0.0061,0.0,-0.0046,0.0077,0.0077,-0.0092,0.0046,0.0015,-0.0031,-0.0031,-0.0031,-0.0061,0.0061,-0.0115,-0.0115,0.0,-0.0115,-0.017,0.0152,0.0,-0.0173,0.0168,0.0168,-0.0225,0.0173,0.0058,-0.0157,-0.0115,-0.0115,-0.0189,0.0152,-0.007,0.0063,-0.0304,-0.0002,0.028,-1.0,1.0,1.0,-1.0,-1.0,1.0,-1.0,-1.0,-1.0,1.0,-1.0,1.0,-1.0,0.3206,1.0,-1.0,-1.0,1.0,0.0,0.0,0.0,0.0,0.0,0.0,0.0,0.0,0.0,-0.0,0.0,-0.0,0.0,0
0.12,run,1.36,-0.48,-4.08,0.8,-5.47,0.0,-0.0,0.0,0.026,-2.2,18.28,79.1,-1.67,14.77,80.86,0.7,17.84,81.56,2.37,15.12,81.12,0.88,17.4,78.22,-2.11,16.17,80.68,-6.18,22.25,82.8,-6.09,10.61,84.84,-3.09,19.42,83.33,6.35,11.14,85.1,0.0,16.07,79.28,-6.09,11.84,84.93,-1.0,1.0,0.2446,-1.0,-1.0,1.0,-1.0,1.0,1.0,1.0,-1.0,1.0,0.9314,0.5563,-0.9791,-1.0,-1.0,1.0,0.019,0.0,0.0,0.013,0.013,0.013,0.0,0.013,0.0,0.013,0.0,0.006,0.0,0.013,0.006,0.026,0.013,0.006,-0.0199,-0.0123,-0.0092,-0.0138,-0.0169,0.0199,0.0046,-0.0169,0.0153,0.0199,-0.0199,0.0169,0.0153,-0.0169,-0.0184,-0.0215,-0.0153,0.0169,-0.0713,-0.0425,-0.0345,-0.0483,-0.0463,0.0624,0.0172,-0.0581,0.0405,0.0577,-0.0559,0.0581,0.0558,-0.0627,-0.0655,-0.077,-0.0477,0.0509,-0.0153,0.0005,-0.0316,-0.0526,-0.0105,-0.5882,1.0,0.2047,-1.0,-1.0,0.6933,-1.0,1.0,1.0,1.0,-1.0,1.0,-0.7879,1.0,1.0,-1.0,-1.0,1.0,0.0,0.0,0.0,0.0,0.0,0.0,0.0,0.0,0.0,-0.0,0.0,-0.0,0.0,0
0.16,run,1.24,-0.33,-1.72,2.54,-5.71,0.0,-0.0,0.0,0.026,-3.52,18.28,79.1,-2.81,13.71,82.09,0.7,17.49,82.0,3.25,13.97,82.27,0.88,16.88,78.22,-3.43,15.03,81.83,-7.68,23.75,81.3,-7.59,9.11,86.34,-4.59,17.92,81.83,7.85,9.64,86.6,1.5,17.57,80.78,-7.59,10.34,86.43,-1.0,1.0,-0.0524,-1.0,-0.6541,1.0,-0.6769,0.7564,-0.2174,1.0,-1.0,1.0,1.0,0.7783,1.0,-1.0,-1.0,1.0,0.019,0.0,0.0,0.013,0.013,0.013,0.0,0.013,0.0,0.013,0.0,0.006,0.0,0.013,0.006,0.026,0.013,0.006,-0.0353,-0.0169,-0.0123,-0.0276,-0.0322,0.0353,0.0138,-0.0276,0.0215,0.0353,-0.0353,0.0353,0.0153,-0.0291,-0.0184,-0.0353,-0.0291,0.0307,-0.1077,-0.0471,-0.0357,-0.0859,-0.0903,0.1015,0.0468,-0.0811,0.0515,0.0982,-0.097,0.11,0.039,-0.0902,-0.0459,-0.106,-0.0854,0.0876,-0.0333,0.0107,-0.0713,0.0139,-0.0955,-1.0,1.0,0.2446,-1.0,-1.0,1.0,-1.0,1.0,1.0,1.0,-1.0,1.0,0.9314,0.5563,-0.9791,-1.0,-1.0,1.0,0.0,0.0,0.0,0.0,0.0,0.0,0.0,0.0,0.0,-0.0,0.0,-0.0,0.0,0
0.2,run,1.12,-0.64,-2.42,-8.5,-6.52,0.0,-0.0,0.0,0.026,-4.75,18.46,79.54,-3.96,12.39,83.41,0.7,17.67,82.62,4.83,12.66,83.67,0.18,16.08,79.19,-4.57,13.8,82.97,-9.18,25.25,82.8,-9.09,7.61,87.84,-6.09,19.42,83.33,9.35,8.14,88.1,3.0,16.07,82.28,-9.09,8.84,87.93,-1.0,1.0,0.6231,-1.0,-1.0,1.0,-1.0,1.0,0.5851,1.0,-1.0,1.0,1.0,0.1099,1.0,-1.0,-1.0,1.0,0.019,0.0,0.0,0.013,0.013,0.013,0.0,0.013,0.0,0.013,0.0,0.006,0.0,0.013,0.006,0.026,0.013,0.006,-0.0583,-0.0169,-0.0123,-0.0476,-0.0506,0.0568,0.0138,-0.0337,0.0291,0.0506,-0.0552,0.0552,0.0153,-0.0383,-0.0184,-0.0583,-0.0491,0.0506,-0.1619,-0.033,-0.025,-0.135,-0.1324,0.1517,0.0327,-0.0798,0.0649,0.1264,-0.1428,0.152,0.0273,-0.0977,-0.0321,-0.1606,-0.1347,0.1363,-0.0442,0.0239,-0.03,0.0443,-0.0996,-1.0,1.0,-0.0524,-1.0,-0.6541,1.0,-0.6769,0.7564,-0.2174,1.0,-1.0,1.0,1.0,0.7783,1.0,-1.0,-1.0,1.0,0.0,0.0,0.0,0.0,0.0,0.0,0.0,0.0,0.0,-0.0,0.0,-0.0,0.0,0
0.24,run,0.71,-0.78,-9.85,-3.57,-7.07,0.0,-0.0,0.0,0.058,-6.06,19.07,80.33,-5.1,11.07,84.73,-0.44,18.11,83.14,6.06,11.25,84.81,0.18,15.91,79.89,-5.98,12.48,84.2,-10.68,23.75,84.3,-10.59,6.11,89.34,-7.59,20.92,81.83,10.85,6.64,89.6,4.5,14.57,83.78,-10.59,7.34,89.43,-1.0,0.4117,0.3024,-1.0,-0.7192,1.0,-1.0,1.0,0.0335,1.0,-1.0,1.0,1.0,0.6432,0.4264,-1.0,-1.0,1.0,0.006,0.058,0.013,0.013,0.0,0.006,0.013,0.013,0.0,0.019,0.0,0.019,0.0,0.0,0.033,0.013,0.013,0.013,-0.0798,-0.0138,-0.0046,-0.0675,-0.0736,0.0798,0.0138,-0.0307,0.0399,0.0782,-0.0782,0.0798,0.0031,-0.0522,-0.0015,-0.0782,-0.0706,0.0706,-0.1934,-0.0117,0.0111,-0.1689,-0.1785,0.192,0.0229,-0.0445,0.0854,0.1915,-0.1858,0.1979,-0.0266,-0.1199,0.0405,-0.1868,-0.1744,0.1698,-0.0551,-0.0029,-0.0422,-0.1483,-0.1137,-1.0,1.0,0.6231,-1.0,-1.0,1.0,-1.0,1.0,0.5851,1.0,-1.0,1.0,1.0,0.1099,1.0,-1.0,-1.0,1.0,0.0,0.0,0.0,0.0,0.0,0.0,0.0,0.0,0.0,-0.0,0.0,-0.0,0.0,0
0.28,run,0.55,-1.2,-3.79,-10.43,-6.06,0.0,-0.0,0.0,0.058,-7.56,19.95,81.47,-6.68,9.76,86.22,-1.58,18.81,83.14,7.38,9.84,86.31,0.26,15.64,80.95,-7.38,11.43,85.08,-12.18,25.25,85.8,-12.09,4.61,90.84,-9.09,22.42,80.33,12.35,5.14,91.1,6.0,13.07,85.28,-12.09,5.84,90.93,-1.0,1.0,0.4694,-1.0,0.1904,1.0,-1.0,1.0,-0.3473,1.0,-1.0,1.0,1.0,-0.4099,0.3068,-1.0,-1.0,1.0,0.006,0.058,0.013,0.013,0.0,0.006,0.013,0.013,0.0,0.019,0.0,0.019,0.0,0.0,0.033,0.013,0.013,0.013,-0.1028,-0.0031,0.0092,-0.0874,-0.0966,0.1028,-0.0061,-0.023,0.0491,0.0997,-0.1028,0.0997,0.0031,-0.0552,0.0107,-0.1028,-0.0936,0.092,-0.2211,0.0318,0.0592,-0.1925,-0.2106,0.2201,-0.0582,-0.0026,0.0941,0.214,-0.2215,0.2128,-0.0187,-0.0953,0.074,-0.2222,-0.2078,0.1988,-0.0905,-0.0158,-0.172,-0.0623,-0.1235,-1.0,0.4117,0.3024,-1.0,-0.7192,1.0,-1.0,1.0,0.0335,1.0,-1.0,1.0,1.0,0.6432,0.4264,-1.0,-1.0,1.0,0.0,0.0,0.0,0.0,0.0,0.0,0.0,0.0,0.0,-0.0,0.0,-0.0,0.0,0
0.32,run,0.35,-1.42,-4.62,-7.12,-2.18,0.0,-0.0,0.0,0.058,-8.7,20.65,82.53,-7.82,8.44,87.54,-3.08,19.95,83.23,8.7,8.44,87.71,1.14,14.94,82.18,-8.7,10.28,86.75,-13.68,23.75,84.3,-13.59,3.11,89.34,-10.59,20.92,78.83,13.85,3.64,92.6,7.5,11.57,86.78,-13.59,4.34,92.43,-1.0,-1.0,-0.1465,-1.0,0.0053,-1.0,-1.0,0.8296,-1.0,1.0,-1.0,1.0,0.4053,0.151,1.0,-1.0,-1.0,1.0,0.006,0.058,0.013,0.013,0.0,0.006,0.013,0.013,0.0,0.019,0.0,0.019,0.0,0.0,0.033,0.013,0.013,0.013,-0.1289,0.0123,0.0291,-0.115,-0.1197,0.1289,-0.0261,-0.0107,0.0491,0.1227,-0.1273,0.1258,0.0046,-0.0598,0.0291,-0.1273,-0.112,0.1074,-0.2526,0.0798,0.1162,-0.2383,-0.2337,0.2519,-0.1155,0.0442,0.0659,0.2361,-0.2471,0.2468,-0.0073,-0.084,0.1208,-0.2476,-0.2145,0.1967,-0.104,-0.0521,-0.0662,-0.1821,-0.1057,-1.0,1.0,0.4694,-1.0,0.1904,1.0,-1.0,1.0,-0.3473,1.0,-1.0,1.0,1.0,-0.4099,0.3068,-1.0,-1.0,1.0,0.0,0.0,0.0,0.0,0.0,0.0,0.0,0.0,0.0,-0.0,0.0,-0.0,0.0,0
0.36,run,0.12,-1.78,-4.66,-10.97,1.51,0.0,-0.0,0.0,0.123,-10.11,21.53,83.67,-9.4,7.12,88.77,-4.48,21.01,83.14,10.11,7.12,89.03,2.02,13.97,83.41,-10.2,8.7,88.15,-15.18,22.25,85.8,-15.09,1.61,90.84,-12.09,22.42,77.33,15.35,2.14,94.1,6.0,10.07,88.28,-15.09,2.84,93.93,-1.0,-1.0,0.9293,-1.0,0.4694,0.3125,-1.0,1.0,-0.1459,1.0,-1.0,1.0,-1.0,-0.204,1.0,-1.0,-1.0,1.0,0.019,0.123,0.013,0.019,0.006,0.0,0.019,0.0,0.071,0.026,0.0,0.019,0.026,0.0,0.033,0.013,0.026,0.013,-0.1488,0.0245,0.0476,-0.135,-0.1427,0.1519,-0.0522,0.0092,0.0506,0.1457,-0.1519,0.1503,0.0199,-0.0721,0.0506,-0.1503,-0.1319,0.1365,-0.2517,0.102,0.1505,-0.2417,-0.2501,0.2628,-0.1789,0.1059,0.0519,0.2517,-0.2652,0.265,0.0525,-0.1049,0.1653,-0.2598,-0.2251,0.2472,-0.1222,-0.0715,-0.0806,-0.1242,-0.0381,-1.0,-1.0,-0.1465,-1.0,0.0053,-1.0,-1.0,0.8296,-1.0,1.0,-1.0,1.0,0.4053,0.151,1.0,-1.0,-1.0,1.0,0.0,0.0,0.0,0.0,0.0,0.0,0.0,0.0,0.0,-0.0,0.0,-0.0,0.0,0
0.4,run,-0.08,-2.11,-4.48,-10.31,3.65,0.0,-0.0,0.0,0.123,-11.51,22.32,84.46,-10.81,5.89,89.74,-5.89,21.88,82.53,11.51,5.71,90.26,3.34,12.83,84.81,-11.6,7.38,89.74,-16.68,20.75,84.3,-16.59,3.11,89.34,-13.59,20.92,78.83,16.85,0.64,95.6,4.5,8.57,89.78,-16.59,1.34,95.43,-1.0,-1.0,-0.5685,-1.0,0.7626,-1.0,-1.0,-0.0351,0.9866,1.0,-1.0,1.0,-0.7352,0.2494,1.0,-1.0,-1.0,1.0,0.019,0.123,0.013,0.019,0.006,0.0,0.019,0.0,0.071,0.026,0.0,0.019,0.026,0.0,0.033,0.013,0.026,0.013,-0.1733,0.0399,0.0675,-0.1626,-0.1657,0.1733,-0.0767,0.0276,0.0491,0.1703,-0.1749,0.1733,0.0353,-0.089,0.0721,-0.1764,-0.1595,0.1611,-0.2682,0.1289,0.1801,-0.2727,-0.2613,0.2644,-0.2172,0.1431,0.0306,0.2682,-0.2719,0.2717,0.0943,-0.1367,0.1962,-0.2796,-0.261,0.265,-0.1417,-0.103,-0.0813,-0.1914,0.0264,-1.0,-1.0,0.9293,-1.0,0.4694,0.3125,-1.0,1.0,-0.1459,1.0,-1.0,1.0,-1.0,-0.204,1.0,-1.0,-1.0,1.0,0.0,0.0,0.0,0.0,0.0,0.0,0.0,0.0,0.0,-0.0,0.0,-0.0,0.0,0
0.44,run,-0.27,-2.67,-4.41,-16.41,2.7,0.0,-0.0,0.0,0.123,-12.92,22.85,84.64,-12.22,4.57,90.53,-7.21,22.24,81.65,12.92,4.22,91.67,4.39,11.51,86.13,-13.01,5.98,91.32,-18.18,19.25,82.8,-18.09,4.61,87.84,-15.09,19.42,80.33,18.35,-0.86,97.1,3.0,7.07,91.28,-18.09,-0.16,96.93,-1.0,-1.0,0.1816,-1.0,1.0,-1.0,-1.0,0.593,1.0,1.0,-1.0,1.0,-1.0,0.2698,0.6334,-1.0,-1.0,1.0,0.019,0.123,0.013,0.019,0.006,0.0,0.019,0.0,0.071,0.026,0.0,0.019,0.026,0.0,0.033,0.013,0.026,0.013,-0.1979,0.0537,0.0813,-0.1871,-0.1871,0.1902,-0.1012,0.043,0.0383,0.1948,-0.1994,0.1948,0.0583,-0.1089,0.0966,-0.201,-0.1825,0.1887,-0.2804,0.1423,0.1782,-0.2836,-0.264,0.2488,-0.2447,0.1581,-0.0191,0.2804,-0.283,0.2713,0.1529,-0.171,0.23,-0.2884,-0.2696,0.2898,-0.1592,-0.1314,-0.0782,-0.1799,0.0637,-1.0,-1.0,-0.5685,-1.0,0.7626,-1.0,-1.0,-0.0351,0.9866,1.0,-1.0,1.0,-0.7352,0.2494,1.0,-1.0,-1.0,1.0,0.0,0.0,0.0,0.0,0.0,0.0,0.0,0.0,0.0,-0.0,0.0,-0.0,0.0,0
0.48,run,0.55,-2.88,23.02,-6.19,2.58,0.0,-0.0,0.0,0.123,-14.33,23.12,85.25,-13.62,3.6,90.53,-8.61,22.24,80.86,14.5,2.81,93.08,5.19,10.2,87.63,-14.5,4.66,92.64,-19.68,17.75,81.3,-19.59,6.11,86.34,-16.59,20.92,81.83,19.85,-2.36,98.6,1.5,5.57,89.78,-19.59,-1.66,98.43,-1.0,-1.0,-0.3859,-1.0,1.0,-1.0,-1.0,1.0,1.0,1.0,-0.0447,1.0,-0.5744,0.3805,0.1462,-1.0,-1.0,0.9232,0.019,0.065,0.0,0.013,0.0,0.0,0.013,0.006,0.084,0.019,0.0,0.039,0.006,0.006,0.013,0.006,0.039,0.006,-0.2224,0.0629,0.0844,-0.2117,-0.2102,0.204,-0.1243,0.0491,0.023,0.2194,-0.2255,0.2194,0.0767,-0.1319,0.1197,-0.2255,-0.2071,0.2163,-0.2876,0.1339,0.1362,-0.2898,-0.2704,0.2255,-0.2569,0.1335,-0.0705,0.2876,-0.2951,0.2812,0.1755,-0.2053,0.2466,-0.2932,-0.28,0.3056,-0.1759,-0.1802,-0.077,-0.2864,0.0472,-1.0,-1.0,0.1816,-1.0,1.0,-1.0,-1.0,0.593,1.0,1.0,-1.0,1.0,-1.0,0.2698,0.6334,-1.0,-1.0,1.0,0.0,0.0,0.0,0.0,0.0,0.0,0.0,0.0,0.0,-0.0,0.0,-0.0,0.0,0
0.52,run,1.52,-3.34,26.63,-12.85,2.72,0.0,-0.0,0.0,0.123,-15.82,23.2,85.17,-15.12,2.2,90.7,-10.02,22.06,80.24,16.0,1.32,94.48,5.62,8.88,89.03,-16.0,3.25,93.96,-21.18,16.25,79.8,-21.09,4.61,84.84,-18.09,19.42,83.33,21.35,-0.86,100.1,-0.0,7.07,91.28,-21.09,-3.16,96.93,-1.0,-1.0,-0.1826,-1.0,-0.73,-1.0,-1.0,-1.0,1.0,1.0,1.0,1.0,-1.0,1.0,1.0,-1.0,-1.0,-0.2059,0.019,0.065,0.0,0.013,0.0,0.0,0.013,0.006,0.084,0.019,0.0,0.039,0.006,0.006,0.013,0.006,0.039,0.006,-0.247,0.0675,0.0951,-0.2362,-0.227,0.204,-0.1488,0.0491,0.0092,0.247,-0.25,0.2439,0.0905,-0.1549,0.1457,-0.2516,-0.2301,0.2393,-0.2939,0.1111,0.1358,-0.2955,-0.2529,0.1579,-0.2724,0.0934,-0.1014,0.3055,-0.2992,0.2895,0.1749,-0.2305,0.271,-0.3036,-0.2828,0.3007,-0.1047,-0.1984,0.4018,-0.1081,0.0451,-1.0,-1.0,-0.3859,-1.0,1.0,-1.0,-1.0,1.0,1.0,1.0,-0.0447,1.0,-0.5744,0.3805,0.1462,-1.0,-1.0,0.9232,0.0,0.0,0.0,0.0,0.0,0.0,0.0,0.0,0.0,-0.0,0.0,-0.0,0.0,0
0.56,run,2.08,-4.34,14.37,-26.41,-3.92,0.0,-0.0,0.0,0.123,-17.23,23.2,84.9,-16.52,1.76,90.18,-11.43,21.45,79.98,17.4,-0.09,95.98,5.8,7.82,90.09,-17.31,1.76,95.27,-19.68,14.75,78.3,-22.59,3.11,86.34,-19.59,17.92,84.83,22.85,0.64,101.6,-1.5,8.57,92.78,-19.59,-4.66,95.43,0.4656,-1.0,0.1246,-1.0,-1.0,1.0,-1.0,0.6687,1.0,1.0,1.0,1.0,-1.0,1.0,1.0,1.0,-1.0,-1.0,0.019,0.065,0.0,0.013,0.0,0.0,0.013,0.006,0.084,0.019,0.0,0.039,0.006,0.006,0.013,0.006,0.039,0.006,-0.273,0.069,0.0936,-0.2623,-0.2516,0.2071,-0.1733,0.046,-0.0015,0.273,-0.2761,0.2684,0.0982,-0.1779,0.1703,-0.2777,-0.2546,0.2623,-0.3041,0.0835,0.0893,-0.3052,-0.2696,0.1221,-0.2832,0.0538,-0.1115,0.3122,-0.3077,0.2952,0.1514,-0.2481,0.2823,-0.3109,-0.2905,0.2973,-0.0199,-0.2387,0.4647,-0.2243,0.0475,-1.0,-1.0,-0.1826,-1.0,-0.73,-1.0,-1.0,-1.0,1.0,1.0,1.0,1.0,-1.0,1.0,1.0,-1.0,-1.0,-0.2059,0.0,0.0,0.0,0.0,0.0,0.0,0.0,0.0,0.0,-0.0,0.0,-0.0,0.0,0
0.6,run,3.53,-5.3,32.44,-23.24,-1.6,0.0,-0.0,0.0,0.123,-18.9,22.76,83.94,-17.93,1.67,89.21,-12.74,20.74,79.8,19.07,-1.23,97.29,5.62,6.68,90.97,-18.72,0.35,96.42,-18.18,13.25,78.15,-24.09,1.61,84.84,-21.09,19.42,86.33,24.35,2.14,100.1,-0.0,10.07,91.28,-18.09,-6.16,93.93,1.0,-1.0,0.1547,-1.0,-1.0,-0.1949,-1.0,1.0,1.0,1.0,1.0,-1.0,1.0,1.0,-1.0,1.0,-1.0,-1.0,0.006,0.0,0.013,0.013,0.0,0.026,0.019,0.111,0.026,0.0,0.006,0.026,0.013,0.006,0.006,0.006,0.039,0.0,-0.2976,0.069,0.089,-0.2869,-0.2592,0.1979,-0.1979,0.0353,-0.0061,0.2976,-0.3007,0.2945,0.1012,-0.1963,0.1887,-0.3007,-0.2807,0.2853,-0.3043,0.0585,0.0454,-0.305,-0.2173,0.0512,-0.2897,-0.0023,-0.0952,0.3099,-0.3068,0.3037,0.1174,-0.2422,0.2661,-0.3033,-0.3005,0.2938,0.0287,-0.3261,0.2509,-0.4609,-0.0684,0.4656,-1.0,0.1246,-1.0,-1.0,1.0,-1.0,0.6687,1.0,1.0,1.0,1.0,-1.0,1.0,1.0,1.0,-1.0,-1.0,0.0,0.0,0.0,0.0,0.0,0.0,0.0,0.0,0.0,-0.0,0.0,-0.0,0.0,0
0.64,run,4.81,-6.38,32.79,-25.53,-2.58,0.0,-0.0,0.0,0.123,-19.6,21.8,82.88,-19.6,1.58,87.89,-14.15,20.13,79.89,20.39,-2.02,98.61,4.75,6.15,91.93,-19.69,-1.05,97.29,-16.68,11.75,79.65,-25.59,0.11,83.34,-19.59,20.92,84.83,25.85,3.64,98.6,1.5,11.57,89.78,-16.59,-7.66,92.43,1.0,-1.0,1.0,-1.0,-1.0,-1.0,-0.2527,1.0,-0.1202,1.0,1.0,-0.0307,1.0,1.0,-1.0,1.0,-1.0,-1.0,0.006,0.0,0.013,0.013,0.0,0.026,0.019,0.111,0.026,0.0,0.006,0.026,0.013,0.006,0.006,0.006,0.039,0.0,-0.3267,0.0614,0.0721,-0.3114,-0.2608,0.181,-0.2209,0.023,-0.0092,0.3267,-0.3206,0.3175,0.0982,-0.2163,0.204,-0.3252,-0.3053,0.3053,-0.3219,0.0123,-0.0313,-0.3053,-0.1578,-0.0273,-0.2888,-0.0475,-0.0781,0.3259,-0.2893,0.2986,0.0707,-0.2441,0.2436,-0.3041,-0.3021,0.2802,0.1552,-0.4098,0.5662,-0.4056,-0.0279,1.0,-1.0,0.1547,-1.0,-1.0,-0.1949,-1.0,1.0,1.0,1.0,1.0,-1.0,1.0,1.0,-1.0,1.0,-1.0,-1.0,0.0,0.0,0.0,0.0,0.0,0.0,0.0,0.0,0.0,-0.0,0.0,-0.0,0.0,0
0.68,run,5.97,-7.61,28.05,-28.28,0.78,0.0,-0.0,0.0,0.123,-20.48,20.57,81.65,-21.27,1.23,86.48,-15.38,19.6,80.16,21.71,-2.64,99.58,3.78,5.71,92.46,-20.39,-2.46,97.91,-15.18,10.25,81.15,-27.09,-1.39,81.84,-21.09,22.42,83.33,27.35,5.14,100.1,3.0,13.07,88.28,-15.09,-9.16,90.93,1.0,-1.0,1.0,-1.0,-1.0,-1.0,-1.0,1.0,-1.0,1.0,1.0,0.872,1.0,1.0,-1.0,1.0,-1.0,-1.0,0.006,0.0,0.013,0.013,0.0,0.026,0.019,0.111,0.026,0.0,0.006,0.026,0.013,0.006,0.006,0.006,0.039,0.0,-0.339,0.0445,0.0537,-0.3405,-0.2623,0.158,-0.2454,0.0123,-0.0077,0.3497,-0.3344,0.3405,0.0828,-0.2255,0.2209,-0.3421,-0.3298,0.3206,-0.2714,-0.0547,-0.0909,-0.3229,-0.1162,-0.1053,-0.2942,-0.0735,-0.0489,0.3144,-0.2543,0.2953,-0.008,-0.2054,0.2338,-0.2761,-0.3035,0.2536,0.2675,-0.5038,0.5724,-0.4456,-0.045,1.0,-1.0,1.0,-1.0,-1.0,-1.0,-0.2527,1.0,-0.1202,1.0,1.0,-0.0307,1.0,1.0,-1.0,1.0,-1.0,-1.0,0.0,0.0,0.0,0.0,0.0,0.0,0.0,0.0,0.0,-0.0,0.0,-0.0,0.0,0
0.72,run,7.54,-8.46,37.92,-19.03,10.97,0.0,-0.0,0.0,0.149,-20.65,19.25,80.51,-22.41,0.53,85.08,-16.79,19.42,81.3,23.2,-2.81,100.2,2.72,5.71,92.64,-20.65,-3.87,98.17,-13.68,8.75,82.65,-28.59,-2.89,80.34,-22.59,23.92,81.83,28.85,6.64,98.6,4.5,14.57,89.78,-13.59,-10.66,89.43,1.0,-1.0,0.9445,-1.0,-1.0,-1.0,-1.0,1.0,-1.0,1.0,1.0,-0.9783,1.0,1.0,0.6328,1.0,-1.0,-1.0,0.0,0.0,0.006,0.006,0.0,0.0,0.033,0.149,0.0,0.013,0.026,0.019,0.006,0.0,0.0,0.006,0.033,0.0,-0.3543,0.023,0.0322,-0.3697,-0.2684,0.1335,-0.2669,0.0031,-0.0031,0.3728,-0.3451,0.3574,0.066,-0.2332,0.2301,-0.3543,-0.3543,0.3313,-0.2474,-0.1187,-0.1441,-0.3352,-0.1043,-0.1656,-0.2863,-0.0859,-0.017,0.3062,-0.2182,0.2699,-0.0688,-0.1725,0.1981,-0.2392,-0.3043,0.2178,0.3687,-0.6118,0.4896,-0.4935,0.0136,1.0,-1.0,1.0,-1.0,-1.0,-1.0,-1.0,1.0,-1.0,1.0,1.0,0.872,1.0,1.0,-1.0,1.0,-1.0,-1.0,0.0,0.0,0.0,0.0,0.0,0.0,0.0,0.0,0.0,-0.0,0.0,-0.0,0.0,0
0.76,run,8.88,-9.39,34.64,-23.16,13.63,0.0,-0.0,0.0,0.149,-20.74,17.84,79.72,-23.73,-0.53,83.58,-18.11,19.42,82.27,24.7,-2.81,100.55,2.02,6.24,92.37,-20.83,-5.27,98.17,-12.18,7.25,84.15,-30.09,-4.39,78.84,-24.09,25.42,80.33,30.35,8.14,100.1,6.0,16.07,88.28,-12.09,-12.16,87.93,1.0,-1.0,1.0,-1.0,-1.0,-1.0,-1.0,1.0,-1.0,1.0,1.0,1.0,1.0,1.0,-0.1536,1.0,-1.0,-1.0,0.0,0.0,0.006,0.006,0.0,0.0,0.033,0.149,0.0,0.013,0.026,0.019,0.006,0.0,0.0,0.006,0.033,0.0,-0.3574,0.0,0.0123,-0.3896,-0.2807,0.1089,-0.2915,0.0,0.0169,0.3988,-0.3482,0.3682,0.0476,-0.2332,0.2332,-0.359,-0.3789,0.3359,-0.1847,-0.1695,-0.1757,-0.3095,-0.1191,-0.2081,-0.2926,-0.0717,0.063,0.3123,-0.1643,0.2293,-0.1173,-0.1207,0.1502,-0.1847,-0.3052,0.1697,0.5055,-0.6855,0.6618,-0.3322,0.1915,1.0,-1.0,0.9445,-1.0,-1.0,-1.0,-1.0,1.0,-1.0,1.0,1.0,-0.9783,1.0,1.0,0.6328,1.0,-1.0,-1.0,0.0,0.0,0.0,0.0,0.0,0.0,0.0,0.0,0.0,-0.0,0.0,-0.0,0.0,0
0.8,run,10.3,-10.09,35.34,-16.82,16.54,0.0,-0.0,0.0,0.149,-20.48,16.52,79.45,-25.14,-1.76,82.09,-19.42,19.42,83.14,26.1,-2.81,100.55,1.67,7.12,91.67,-20.13,-6.68,97.65,-10.68,5.75,85.65,-31.59,-5.89,77.34,-25.59,26.92,78.83,31.85,9.64,101.6,7.5,17.57,86.78,-10.59,-13.66,86.43,1.0,-1.0,1.0,-1.0,-1.0,-1.0,-1.0,1.0,-1.0,1.0,1.0,0.735,1.0,1.0,0.1874,1.0,-1.0,-1.0,0.0,0.0,0.006,0.006,0.0,0.0,0.033,0.149,0.0,0.013,0.026,0.019,0.006,0.0,0.0,0.006,0.033,0.0,-0.359,-0.0245,-0.0015,-0.4126,-0.2991,0.0828,-0.3145,0.0,0.0337,0.4249,-0.3482,0.3743,0.0353,-0.224,0.2286,-0.362,-0.4034,0.3359,-0.1351,-0.2114,-0.1752,-0.3037,-0.153,-0.2443,-0.2918,-0.0502,0.1079,0.3172,-0.115,0.1837,-0.1285,-0.0497,0.0877,-0.1409,-0.3064,0.1188,0.6227,-0.7671,0.6046,-0.4043,0.2379,1.0,-1.0,1.0,-1.0,-1.0,-1.0,-1.0,1.0,-1.0,1.0,1.0,1.0,1.0,1.0,-0.1536,1.0,-1.0,-1.0,0.0,0.0,0.0,0.0,0.0,0.0,0.0,0.0,0.0,-0.0,0.0,-0.0,0.0,0
0.84,run,11.83,-10.83,39.96,-19.76,13.63,0.0,-0.0,0.0,0.254,-19.6,15.12,79.01,-26.54,-3.08,80.68,-20.83,19.95,83.76,27.51,-2.55,100.46,1.67,8.17,90.7,-19.42,-8.09,96.86,-9.18,4.25,87.15,-33.09,-7.39,75.84,-27.09,28.42,77.33,33.35,11.14,103.1,9.0,19.07,85.28,-9.09,-15.16,84.93,1.0,-1.0,1.0,-1.0,-1.0,-1.0,-1.0,1.0,-1.0,1.0,1.0,1.0,1.0,1.0,0.1915,1.0,-1.0,-1.0,0.026,0.006,0.006,0.006,0.0,0.0,0.033,0.0,0.019,0.0,0.254,0.045,0.006,0.019,0.013,0.019,0.039,0.026,-0.3543,-0.0476,-0.0061,-0.4372,-0.3206,0.0568,-0.3375,0.0,0.0491,0.4495,-0.3482,0.3743,0.0291,-0.2086,0.2163,-0.3497,-0.428,0.3267,-0.0775,-0.2334,-0.1397,-0.3037,-0.1868,-0.2678,-0.2897,-0.0351,0.1325,0.3132,-0.0805,0.1286,-0.1127,0.0222,0.0159,-0.0531,-0.3056,0.049,0.746,-0.8275,0.6169,-0.2936,0.2888,1.0,-1.0,1.0,-1.0,-1.0,-1.0,-1.0,1.0,-1.0,1.0,1.0,0.735,1.0,1.0,0.1874,1.0,-1.0,-1.0,0.0,0.0,0.0,0.0,0.0,0.0,0.0,0.0,0.0,-0.0,0.0,-0.0,0.0,0
0.88,run,11.74,-9.32,-6.79,38.96,-7.5,0.0,-0.0,0.0,0.254,-18.54,13.71,79.01,-28.12,-4.39,79.19,-22.24,21.09,83.94,28.92,-1.58,100.46,1.93,9.23,89.21,-18.28,-9.49,95.62,-7.68,2.75,88.65,-34.59,-8.89,74.34,-28.59,29.92,75.83,34.85,12.64,104.6,10.5,20.57,86.78,-7.59,-16.66,83.43,1.0,-1.0,1.0,-1.0,-1.0,-1.0,-1.0,1.0,-1.0,1.0,1.0,1.0,1.0,1.0,0.4095,1.0,-1.0,-1.0,0.026,0.006,0.006,0.006,0.0,0.0,0.033,0.0,0.019,0.0,0.254,0.045,0.006,0.019,0.013,0.019,0.039,0.026,-0.339,-0.0721,-0.0138,-0.4617,-0.3436,0.0322,-0.362,0.0092,0.0598,0.474,-0.3436,0.3728,0.0291,-0.1902,0.1994,-0.3375,-0.4525,0.3129,0.0037,-0.2561,-0.1268,-0.3053,-0.2177,-0.2802,-0.2955,0.0102,0.1333,0.3119,-0.039,0.0842,-0.0789,0.085,-0.0526,0.0092,-0.3066,-0.0179,0.8796,-0.8925,0.6975,-0.3449,0.2379,1.0,-1.0,1.0,-1.0,-1.0,-1.0,-1.0,1.0,-1.0,1.0,1.0,1.0,1.0,1.0,0.1915,1.0,-1.0,-1.0,0.0,0.0,0.0,0.0,0.0,0.0,0.0,0.0,0.0,-0.0,0.0,-0.0,0.0,0
0.92,run,12.85,-8.49,23.44,22.72,-3.73,0.0,-0.0,0.0,0.254,-17.4,12.39,79.37,-29.44,-5.62,77.78,-23.64,22.32,83.94,30.32,-0.18,100.72,2.99,10.81,88.24,-16.88,-10.81,94.31,-6.18,1.25,90.15,-35.0,-10.39,75.84,-30.09,28.42,77.33,35.0,11.14,106.1,9.0,22.07,88.28,-6.09,-15.16,81.93,1.0,-1.0,1.0,-1.0,0.1672,1.0,-1.0,-1.0,1.0,1.0,0.5911,1.0,-0.3957,1.0,0.8714,1.0,1.0,-1.0,0.026,0.006,0.006,0.006,0.0,0.0,0.033,0.0,0.019,0.0,0.254,0.045,0.006,0.019,0.013,0.019,0.039,0.026,-0.3206,-0.0966,-0.0138,-0.4893,-0.3666,0.0061,-0.3866,0.0291,0.0629,0.4985,-0.3267,0.3728,0.0337,-0.1718,0.1733,-0.3175,-0.4771,0.2915,0.072,-0.2718,-0.0887,-0.3178,-0.2392,-0.2945,-0.2994,0.0823,0.1049,0.3109,0.0364,0.0589,-0.0379,0.1289,-0.1352,0.0817,-0.3072,-0.0935,0.8719,-0.7604,-0.1186,0.68,-0.1309,1.0,-1.0,1.0,-1.0,-1.0,-1.0,-1.0,1.0,-1.0,1.0,1.0,1.0,1.0,1.0,0.4095,1.0,-1.0,-1.0,0.0,0.0,0.0,0.0,0.0,0.0,0.0,0.0,0.0,-0.0,0.0,-0.0,0.0,0
0.96,run,13.24,-7.68,11.02,17.86,-0.81,0.0,-0.0,0.0,0.254,-15.91,10.9,79.8,-30.76,-7.03,76.55,-25.14,23.73,83.94,31.46,1.41,101.69,3.96,12.13,87.01,-15.47,-12.13,93.08,-4.68,-0.25,91.65,-35.0,-11.89,74.34,-31.59,26.92,78.83,33.5,12.64,107.6,7.5,23.57,86.78,-4.59,-13.66,80.43,1.0,-1.0,1.0,-1.0,-1.0,-0.1534,-1.0,-1.0,1.0,0.2795,1.0,0.6765,-1.0,1.0,0.0307,1.0,1.0,-1.0,0.033,0.0,0.006,0.006,0.0,0.0,0.026,0.0,0.175,0.013,0.24,0.247,0.013,0.019,0.0,0.013,0.039,0.033,-0.3007,-0.1197,-0.0077,-0.5123,-0.3881,-0.0184,-0.4111,0.0506,0.0629,0.5231,-0.3022,0.3774,0.0522,-0.1442,0.1565,-0.293,-0.5001,0.2684,0.1248,-0.2761,-0.0392,-0.3083,-0.2475,-0.2977,-0.3011,0.1377,0.0734,0.3092,0.117,0.0584,0.0421,0.1932,-0.1576,0.1487,-0.3009,-0.1513,0.9689,-0.688,0.409,0.3966,-0.0651,1.0,-1.0,1.0,-1.0,0.1672,1.0,-1.0,-1.0,1.0,1.0,0.5911,1.0,-0.3957,1.0,0.8714,1.0,1.0,-1.0,0.0,0.0,0.0,0.0,0.0,0.0,0.0,0.0,0.0,-0.0,0.0,-0.0,0.0,0
1.0,run,13.7,-7.02,13.02,20.19,6.87,0.0,-0.0,0.0,0.254,-14.5,9.4,81.21,-31.64,-8.35,75.5,-26.72,24.87,83.67,33.05,2.72,102.74,5.36,13.45,86.22,-14.06,-13.18,91.67,-3.18,-1.75,93.15,-35.0,-13.39,75.84,-33.09,25.42,80.33,32.0,14.14,106.1,6.0,25.07,85.28,-3.09,-12.16,78.93,1.0,-1.0,1.0,-1.0,-1.0,1.0,-1.0,-1.0,1.0,-0.0415,1.0,0.336,-1.0,1.0,-0.6956,1.0,1.0,-1.0,0.033,0.0,0.006,0.006,0.0,0.0,0.026,0.0,0.175,0.013,0.24,0.247,0.013,0.019,0.0,0.013,0.039,0.033,-0.2746,-0.1457,0.0,-0.5354,-0.4126,-0.0399,-0.4372,0.0752,0.0629,0.543,-0.2746,0.3942,0.069,-0.1212,0.135,-0.2684,-0.5231,0.247,0.1856,-0.2915,0.0014,-0.3025,-0.2657,-0.2893,-0.309,0.1889,0.0514,0.2915,0.1859,0.1045,0.0931,0.222,-0.1912,0.1965,-0.2973,-0.1868,1.0029,-0.618,0.1924,0.3117,-0.0142,1.0,-1.0,1.0,-1.0,-1.0,-0.1534,-1.0,-1.0,1.0,0.2795,1.0,0.6765,-1.0,1.0,0.0307,1.0,1.0,-1.0,0.0,0.0,0.0,0.0,0.0,0.0,0.0,0.0,0.0,-0.0,0.0,-0.0,0.0,0
1.04,run,14.39,-6.22,19.47,21.81,-1.39,0.0,-0.002,0.0,0.254,-13.1,7.91,82.53,-32.87,-9.58,74.79,-28.3,25.84,83.06,33.93,4.04,104.06,6.24,14.85,85.69,-12.66,-13.89,90.26,-1.68,-3.25,94.65,-33.5,-14.89,77.34,-34.59,23.92,81.83,30.5,12.64,104.6,7.5,26.57,83.78,-1.59,-10.66,80.43,1.0,-1.0,1.0,0.6157,-1.0,0.4503,-1.0,-1.0,1.0,-1.0,0.4696,-1.0,1.0,1.0,-0.825,1.0,1.0,1.0,0.033,0.0,0.006,0.006,0.0,0.0,0.026,0.0,0.175,0.013,0.24,0.247,0.013,0.019,0.0,0.013,0.039,0.033,-0.25,-0.1718,0.0245,-0.5507,-0.4357,-0.0583,-0.4648,0.0951,0.0583,0.5706,-0.2516,0.4126,0.0936,-0.0982,0.1212,-0.2439,-0.5415,0.2224,0.2215,-0.3013,0.0926,-0.269,-0.2718,-0.2712,-0.3193,0.2066,0.0188,0.3071,0.216,0.1418,0.1567,0.2412,-0.1853,0.2291,-0.2768,-0.2223,1.0433,-0.5598,0.2272,0.3523,0.12,1.0,-1.0,1.0,-1.0,-1.0,1.0,-1.0,-1.0,1.0,-0.0415,1.0,0.336,-1.0,1.0,-0.6956,1.0,1.0,-1.0,0.0,0.0,0.0,0.0,0.0,0.0,0.0,0.0,0.0,-0.0133,0.0,-0.0133,0.0,3
1.08,run,15.06,-5.58,18.86,16.9,-1.55,0.0,-0.004,0.0,0.254,-11.69,6.42,83.94,-33.75,-10.99,74.36,-29.71,26.37,82.35,34.54,5.36,105.03,6.94,16.26,84.9,-11.25,-14.33,88.95,-3.18,-4.75,96.15,-32.0,-16.39,75.84,-35.0,22.42,83.33,29.0,11.14,103.1,9.0,28.07,85.28,-0.09,-9.16,81.93,-0.8233,-1.0,0.8451,0.9979,-1.0,-1.0,-1.0,-1.0,1.0,-1.0,-0.2219,-1.0,1.0,1.0,0.6004,1.0,0.4041,1.0,0.045,0.0,0.019,0.013,0.0,0.006,0.019,0.0,0.24,0.006,0.214,0.156,0.0,0.026,0.006,0.026,0.026,0.065,-0.2255,-0.1979,0.0476,-0.5722,-0.4571,-0.0706,-0.4924,0.112,0.0476,0.586,-0.2286,0.4357,0.1089,-0.0736,0.112,-0.2194,-0.5538,0.1979,0.2476,-0.3093,0.1515,-0.2692,-0.2713,-0.2361,-0.3276,0.2082,-0.0273,0.2728,0.2379,0.186,0.1675,0.2614,-0.1644,0.2529,-0.24,-0.2482,1.1034,-0.4902,0.3399,0.3807,-0.0243,1.0,-1.0,1.0,0.6157,-1.0,0.4503,-1.0,-1.0,1.0,-1.0,0.4696,-1.0,1.0,1.0,-0.825,1.0,1.0,1.0,0.0,0.0,0.0,0.0,0.0,0.0,0.0,0.0,0.0,-0.0267,0.0,-0.0267,0.0,3
1.12,run,15.67,-5.06,16.37,13.41,0.22,0.0,-0.006,0.0,0.254,-10.46,5.01,85.34,-34.28,-12.39,74.09,-31.03,26.81,82.0,34.8,6.59,105.56,7.56,17.58,84.2,-9.76,-14.5,87.63,-4.68,-6.25,94.65,-30.5,-17.89,74.34,-35.0,20.92,84.83,27.5,9.64,101.6,10.5,29.57,86.78,1.41,-10.66,83.43,-1.0,-1.0,-0.1856,0.6646,-1.0,-0.9121,-1.0,-1.0,1.0,-1.0,-0.4649,-1.0,1.0,1.0,1.0,1.0,-0.4284,1.0,0.045,0.0,0.019,0.013,0.0,0.006,0.019,0.0,0.24,0.006,0.214,0.156,0.0,0.026,0.006,0.026,0.026,0.065,-0.201,-0.224,0.0721,-0.5875,-0.4817,-0.0782,-0.517,0.1212,0.0353,0.5967,-0.2056,0.4525,0.1212,-0.0491,0.0982,-0.1948,-0.5614,0.1749,0.2646,-0.3135,0.1974,-0.2455,-0.2812,-0.1938,-0.3207,0.18,-0.0648,0.2309,0.2522,0.193,0.1629,0.2743,-0.1665,0.2684,-0.1965,-0.2593,1.1615,-0.434,0.3292,0.2949,-0.027,-0.8233,-1.0,0.8451,0.9979,-1.0,-1.0,-1.0,-1.0,1.0,-1.0,-0.2219,-1.0,1.0,1.0,0.6004,1.0,0.4041,1.0,0.0,0.0,0.0,0.0,0.0,0.0,0.0,0.0,0.0,-0.04,0.0,-0.04,0.0,3
1.16,run,16.81,-4.18,29.24,20.25,5.22,0.0,-0.008,0.0,0.254,-9.23,3.69,86.66,-34.45,-13.89,74.27,-32.34,26.89,81.91,34.89,7.73,105.91,8.44,19.07,84.02,-8.35,-14.5,86.31,-6.18,-7.75,93.15,-29.0,-19.39,72.84,-35.0,19.42,86.33,26.0,8.14,100.1,12.0,30.0,88.28,2.91,-12.16,84.93,-1.0,-1.0,-0.6375,0.4542,-1.0,-0.9407,-1.0,-1.0,1.0,-1.0,-1.0,-1.0,1.0,1.0,1.0,1.0,-0.6266,1.0,0.045,0.0,0.019,0.013,0.0,0.006,0.019,0.0,0.24,0.006,0.214,0.156,0.0,0.026,0.006,0.026,0.026,0.065,-0.1795,-0.2485,0.0966,-0.5967,-0.5062,-0.0828,-0.54,0.1289,0.0291,0.6013,-0.1841,0.4617,0.1319,-0.0261,0.0859,-0.1687,-0.5645,0.1519,0.2664,-0.3123,0.231,-0.2067,-0.2896,-0.1531,-0.3115,0.155,-0.0685,0.179,0.2577,0.1699,0.1546,0.279,-0.1629,0.2865,-0.1492,-0.2685,1.2147,-0.389,0.2858,0.234,0.0039,-1.0,-1.0,-0.1856,0.6646,-1.0,-0.9121,-1.0,-1.0,1.0,-1.0,-0.4649,-1.0,1.0,1.0,1.0,1.0,-0.4284,1.0,0.0,0.0,0.0,0.0,0.0,0.0,0.0,0.0,0.0,-0.0533,0.0,-0.0533,0.0,3
1.2,run,17.62,-3.87,18.73,9.13,11.25,0.0,-0.01,0.0,0.254,-8.0,2.2,88.07,-34.45,-15.29,74.18,-33.22,26.63,81.83,34.54,8.7,106.0,9.67,20.48,83.85,-6.94,-14.15,85.17,-7.68,-9.25,91.65,-27.5,-20.89,71.34,-35.0,17.92,87.83,24.5,6.64,98.6,13.5,30.0,89.78,4.41,-13.66,86.43,-0.9656,-1.0,-0.8426,0.4567,-1.0,-1.0,-1.0,-1.0,1.0,-1.0,-1.0,-1.0,1.0,1.0,1.0,1.0,0.1261,1.0,0.065,0.0,0.019,0.006,0.0,0.0,0.013,0.039,0.045,0.033,0.143,0.071,0.013,0.026,0.039,0.019,0.006,0.039,-0.158,-0.2715,0.1197,-0.5998,-0.5323,-0.0798,-0.563,0.1304,0.0276,0.6029,-0.1641,0.4679,0.1473,0.0,0.0828,-0.1442,-0.5645,0.1289,0.2664,-0.3042,0.2473,-0.1561,-0.2998,-0.0957,-0.3036,0.1142,-0.0537,0.131,0.2546,0.1418,0.1653,0.2923,-0.1255,0.2918,-0.1044,-0.2736,1.3142,-0.3119,0.5104,0.3534,0.091,-1.0,-1.0,-0.6375,0.4542,-1.0,-0.9407,-1.0,-1.0,1.0,-1.0,-1.0,-1.0,1.0,1.0,1.0,1.0,-0.6266,1.0,0.0,0.0,0.0,0.0,0.0,0.0,0.0,0.0,0.0,-0.0667,0.0,-0.0667,0.0,3
1.24,run,18.38,-3.45,20.33,10.68,10.78,0.0,-0.012,0.0,0.254,-6.94,0.88,89.38,-33.93,-16.61,73.65,-33.84,25.93,81.83,33.93,9.32,106.0,10.81,21.88,84.29,-5.54,-13.45,84.38,-9.18,-10.75,90.15,-26.0,-22.39,69.84,-35.0,16.42,89.33,23.0,5.14,97.1,15.0,30.0,91.28,5.91,-15.16,87.93,-0.3713,-1.0,-1.0,0.781,-1.0,-1.0,-1.0,-1.0,1.0,-1.0,-1.0,-1.0,1.0,1.0,1.0,1.0,-0.9111,1.0,0.065,0.0,0.019,0.006,0.0,0.0,0.013,0.039,0.045,0.033,0.143,0.071,0.013,0.026,0.039,0.019,0.006,0.039,-0.1365,-0.2976,0.1442,-0.5998,-0.5568,-0.0813,-0.5783,0.1258,0.0261,0.5967,-0.1473,0.4694,0.1687,0.0245,0.0798,-0.1197,-0.5584,0.1089,0.2668,-0.3105,0.2649,-0.1093,-0.3016,-0.0727,-0.2699,0.0627,-0.0433,0.0688,0.2413,0.105,0.1961,0.2964,-0.0993,0.2961,-0.0501,-0.2661,1.3854,-0.2853,0.327,0.1593,0.1964,-0.9656,-1.0,-0.8426,0.4567,-1.0,-1.0,-1.0,-1.0,1.0,-1.0,-1.0,-1.0,1.0,1.0,1.0,1.0,0.1261,1.0,0.0,0.0,0.0,0.0,0.0,0.0,0.0,0.0,0.0,-0.08,0.0,-0.08,0.0,3
1.28,run,18.8,-3.25,10.89,6.46,11.33,0.0,-0.014,0.0,0.254,-6.24,-0.53,90.44,-33.13,-17.93,72.77,-34.19,24.96,82.09,32.87,9.58,105.29,12.22,23.2,85.08,-4.13,-12.92,83.67,-10.68,-12.25,88.65,-24.5,-23.89,68.34,-35.0,14.92,90.83,21.5,3.64,95.6,16.5,30.0,92.78,7.41,-16.66,89.43,-0.3879,-1.0,-1.0,1.0,-1.0,-1.0,-1.0,-1.0,1.0,-1.0,-1.0,-1.0,1.0,1.0,1.0,1.0,-0.5704,1.0,0.065,0.0,0.019,0.006,0.0,0.0,0.013,0.039,0.045,0.033,0.143,0.071,0.013,0.026,0.039,0.019,0.006,0.039,-0.1181,-0.3206,0.1672,-0.5906,-0.5798,-0.0905,-0.589,0.1135,0.0261,0.586,-0.1365,0.4694,0.1887,0.0491,0.0874,-0.0951,-0.5461,0.0951,0.2565,-0.3045,0.2727,-0.0416,-0.2984,-0.0858,-0.2296,-0.0026,-0.0303,0.0074,0.2096,0.0735,0.2128,0.3005,-0.0404,0.3003,0.0114,-0.2386,1.4516,-0.2485,0.3548,0.1863,0.1882,-0.3713,-1.0,-1.0,0.781,-1.0,-1.0,-1.0,-1.0,1.0,-1.0,-1.0,-1.0,1.0,1.0,1.0,1.0,-0.9111,1.0,0.0,0.0,0.0,0.0,0.0,0.0,0.0,0.0,0.0,-0.0933,0.0,-0.0933,0.0,3
1.32,run,19.29,-1.53,2.53,9.02,-4.81,0.0,-0.016,0.0,0.254,-7.47,-7.38,91.76,-26.63,-23.64,67.32,-34.37,18.63,88.15,25.84,7.12,99.32,17.49,28.21,91.14,2.55,-14.15,85.52,-9.18,-13.75,87.15,-23.0,-25.39,66.84,-35.0,13.42,92.33,20.0,2.14,94.1,18.0,30.0,94.28,8.91,-18.16,90.93,-0.1224,-1.0,-1.0,1.0,-1.0,-0.3805,-1.0,-1.0,1.0,-1.0,-0.9067,-1.0,1.0,1.0,1.0,1.0,-1.0,1.0,0.0,0.0,0.019,0.013,0.006,0.006,0.013,0.111,0.0,0.033,0.006,0.006,0.006,0.111,0.058,0.033,0.078,0.006,-0.1058,-0.3451,0.1856,-0.5768,-0.6029,-0.1058,-0.5952,0.0966,0.0307,0.5676,-0.1319,0.4571,0.2132,0.0721,0.1012,-0.0706,-0.5369,0.0828,0.2251,-0.3043,0.2592,0.0221,-0.2943,-0.117,-0.1835,-0.0645,-0.0041,-0.0631,0.1638,0.0059,0.2401,0.2958,0.023,0.3013,0.0422,-0.2126,1.4885,-0.2306,0.19,0.1128,0.1978,-0.3879,-1.0,-1.0,1.0,-1.0,-1.0,-1.0,-1.0,1.0,-1.0,-1.0,-1.0,1.0,1.0,1.0,1.0,-0.5704,1.0,0.0,0.0,0.0,0.0,0.0,0.0,0.0,0.0,0.0,-0.1067,0.0,-0.1067,0.0,3
1.36,run,19.28,-1.29,-2.11,7.32,-5.29,0.0,-0.018,0.0,0.254,-8.26,-8.53,91.05,-25.58,-24.35,66.97,-34.37,17.4,89.21,24.52,6.15,98.17,17.75,28.39,91.93,3.69,-14.94,86.66,-7.68,-15.25,85.65,-21.5,-26.89,65.34,-35.0,11.92,93.83,18.5,0.64,92.6,19.5,30.0,92.78,10.41,-19.54,92.43,0.2398,-1.0,-0.2756,1.0,-1.0,-0.1592,-1.0,-1.0,1.0,-1.0,-0.4263,-1.0,1.0,1.0,-0.4402,1.0,0.0993,1.0,0.0,0.0,0.019,0.013,0.006,0.006,0.013,0.111,0.0,0.033,0.006,0.006,0.006,0.111,0.058,0.033,0.078,0.006,-0.1273,-0.4648,0.2086,-0.4633,-0.7026,-0.201,-0.5983,-0.0138,0.1365,0.4449,-0.1749,0.3528,0.3053,0.1595,0.2071,0.046,-0.5584,0.115,0.141,-0.3055,0.1992,0.1032,-0.2831,-0.1554,-0.1308,-0.1305,0.0789,-0.139,0.0815,-0.0765,0.2392,0.2746,0.0979,0.301,0.0129,-0.1239,1.5305,-0.0809,0.0441,0.1574,-0.0839,-0.1224,-1.0,-1.0,1.0,-1.0,-0.3805,-1.0,-1.0,1.0,-1.0,-0.9067,-1.0,1.0,1.0,1.0,1.0,-1.0,1.0,0.0,0.0,0.0,0.0,0.0,0.0,0.0,0.0,0.0,-0.12,0.0,-0.12,0.0,3
1.4,run,19.3,-0.79,-0.59,13.65,3.1,0.0,-0.02,0.0,0.254,-8.79,-9.84,90.18,-24.52,-24.96,66.71,-34.37,16.08,90.53,22.94,5.01,97.03,18.02,28.56,92.64,5.19,-15.91,88.07,-6.18,-16.75,84.15,-20.0,-28.39,63.84,-35.0,10.42,95.33,17.0,1.91,91.1,21.0,30.0,91.28,11.91,-18.04,93.93,-0.012,-1.0,-0.5917,1.0,-1.0,-0.4332,-1.0,-1.0,1.0,-1.0,0.4892,-1.0,1.0,1.0,0.1021,1.0,0.3823,1.0,0.0,0.0,0.019,0.013,0.006,0.006,0.013,0.111,0.0,0.033,0.006,0.006,0.006,0.111,0.058,0.033,0.078,0.006,-0.1411,-0.4847,0.1963,-0.4449,-0.7148,-0.2071,-0.5983,-0.0353,0.1549,0.4218,-0.1917,0.3329,0.3099,0.1626,0.2209,0.066,-0.5722,0.135,0.0366,-0.3035,0.0843,0.1551,-0.2533,-0.1364,-0.0916,-0.1879,0.138,-0.2008,-0.0189,-0.1433,0.1882,0.2061,0.1306,0.3004,-0.0531,0.003,1.5298,-0.0602,-0.0368,0.1278,-0.0923,0.2398,-1.0,-0.2756,1.0,-1.0,-0.1592,-1.0,-1.0,1.0,-1.0,-0.4263,-1.0,1.0,1.0,-0.4402,1.0,0.0993,1.0,0.0,0.0,0.0,0.0,0.0,0.0,0.0,0.0,0.0,-0.1333,0.0,-0.1333,0.0,3
1.44,run,19.29,-0.32,-1.07,12.03,11.06,0.0,-0.022,0.0,0.254,-9.23,-11.25,88.51,-23.38,-25.58,66.09,-34.54,14.77,91.85,21.45,3.87,95.36,18.54,28.56,93.08,6.68,-16.79,89.3,-4.68,-18.25,82.65,-18.5,-29.89,62.34,-35.0,8.92,96.83,15.5,2.05,89.6,22.5,28.5,89.78,13.41,-16.54,95.43,0.5037,-1.0,-0.6344,1.0,-1.0,-1.0,-1.0,-1.0,1.0,-1.0,0.4918,-1.0,1.0,0.779,-0.402,1.0,1.0,1.0,0.013,0.006,0.013,0.019,0.019,0.013,0.013,0.104,0.0,0.006,0.0,0.006,0.006,0.078,0.045,0.026,0.058,0.006,-0.1503,-0.5077,0.181,-0.4264,-0.7256,-0.2117,-0.5983,-0.0583,0.1779,0.3942,-0.2117,0.3129,0.3145,0.1657,0.2332,0.092,-0.589,0.1595,-0.0089,-0.2987,0.0015,0.1775,-0.2176,-0.1127,-0.0641,-0.2178,0.1829,-0.2441,-0.0879,-0.175,0.149,0.1557,0.1374,0.308,-0.1004,0.094,1.5318,-0.0165,-0.0102,0.2383,0.0541,-0.012,-1.0,-0.5917,1.0,-1.0,-0.4332,-1.0,-1.0,1.0,-1.0,0.4892,-1.0,1.0,1.0,0.1021,1.0,0.3823,1.0,0.0,0.0,0.0,0.0,0.0,0.0,0.0,0.0,0.0,-0.1467,0.0,-0.1467,0.0,3
1.48,run,19.47,0.26,6.85,16.45,6.18,0.0,-0.024,0.0,0.254,-9.23,-12.57,87.19,-22.15,-26.37,65.39,-34.54,13.27,93.16,20.13,2.55,94.04,19.25,28.56,93.34,8.09,-17.58,90.79,-3.18,-19.75,81.15,-17.0,-31.39,60.84,-35.0,7.42,98.33,14.0,3.55,88.1,24.0,27.0,88.28,14.91,-15.04,96.93,0.4985,-1.0,-0.7083,1.0,-1.0,-1.0,-1.0,-1.0,1.0,-1.0,1.0,-1.0,1.0,0.4021,0.2682,1.0,1.0,1.0,0.013,0.006,0.013,0.019,0.019,0.013,0.013,0.104,0.0,0.006,0.0,0.006,0.006,0.078,0.045,0.026,0.058,0.006,-0.158,-0.5323,0.1519,-0.4065,-0.7363,-0.2224,-0.6013,-0.0813,0.201,0.3682,-0.2316,0.2838,0.3237,0.1657,0.2408,0.1181,-0.6044,0.181,-0.0347,-0.3004,-0.1074,0.1985,-0.1923,-0.1189,-0.0563,-0.2381,0.2136,-0.2679,-0.1357,-0.2309,0.1385,0.109,0.1247,0.3126,-0.1273,0.1457,1.5311,0.0247,-0.0186,0.21,0.1931,0.5037,-1.0,-0.6344,1.0,-1.0,-1.0,-1.0,-1.0,1.0,-1.0,0.4918,-1.0,1.0,0.779,-0.402,1.0,1.0,1.0,0.0,0.0,0.0,0.0,0.0,0.0,0.0,0.0,0.0,-0.16,0.0,-0.16,0.0,3
1.52,run,19.87,1.13,9.54,23.84,-0.49,0.0,-0.026,0.0,0.254,-8.7,-13.8,85.69,-20.57,-27.51,64.34,-34.54,11.78,94.48,18.54,1.85,92.55,20.3,28.39,93.34,9.58,-18.02,92.2,-1.68,-21.25,79.65,-15.5,-32.89,59.34,-35.0,5.92,99.83,12.5,5.05,86.6,25.5,25.5,89.78,16.41,-13.54,98.43,0.7738,-1.0,-1.0,1.0,-1.0,-1.0,-1.0,-1.0,1.0,-1.0,1.0,-1.0,1.0,0.412,0.6874,1.0,1.0,0.6524,0.013,0.006,0.013,0.019,0.019,0.013,0.013,0.104,0.0,0.006,0.0,0.006,0.006,0.078,0.045,0.026,0.058,0.006,-0.158,-0.5553,0.1289,-0.385,-0.7501,-0.2347,-0.6013,-0.1074,0.224,0.3451,-0.2546,0.2608,0.3359,0.1657,0.2454,0.1427,-0.6182,0.2071,-0.0243,-0.2967,-0.1616,0.2196,-0.1864,-0.1293,-0.0394,-0.2646,0.236,-0.2739,-0.1815,-0.2481,0.1431,0.0763,0.1046,0.311,-0.141,0.2,1.5468,0.0755,0.1195,0.2872,0.1078,0.4985,-1.0,-0.7083,1.0,-1.0,-1.0,-1.0,-1.0,1.0,-1.0,1.0,-1.0,1.0,0.4021,0.2682,1.0,1.0,1.0,0.0,0.0,0.0,0.0,0.0,0.0,0.0,0.0,0.0,-0.1733,0.0,-0.1733,0.0,3
1.56,run,20.21,2.01,8.47,23.21,-1.84,0.0,-0.028,0.0,0.254,-7.91,-15.38,84.29,-18.98,-28.83,62.93,-34.54,10.28,95.8,17.14,1.32,91.23,21.62,27.51,92.55,11.07,-18.11,93.52,-0.18,-22.75,78.15,-14.0,-34.39,57.84,-35.0,4.42,101.33,11.0,6.55,85.1,27.0,24.0,91.28,17.91,-12.04,96.93,1.0,-1.0,-0.8166,1.0,-1.0,-1.0,-1.0,-1.0,1.0,-1.0,0.99,-1.0,1.0,0.1826,0.4133,1.0,1.0,0.002,0.033,0.013,0.019,0.026,0.033,0.006,0.013,0.084,0.0,0.013,0.0,0.019,0.013,0.013,0.006,0.026,0.006,0.006,-0.1488,-0.5768,0.1028,-0.3574,-0.7701,-0.2531,-0.6013,-0.1335,0.247,0.3175,-0.2669,0.2347,0.3543,0.1626,0.2454,0.1687,-0.6259,0.2316,0.0175,-0.2883,-0.211,0.2574,-0.2054,-0.1596,-0.0276,-0.2831,0.2515,-0.2954,-0.1731,-0.2716,0.1692,0.0419,0.0732,0.3156,-0.1275,0.2321,1.5815,0.1515,0.1665,0.4162,-0.0085,0.7738,-1.0,-1.0,1.0,-1.0,-1.0,-1.0,-1.0,1.0,-1.0,1.0,-1.0,1.0,0.412,0.6874,1.0,1.0,0.6524,0.0,0.0,0.0,0.0,0.0,0.0,0.0,0.0,0.0,-0.1867,0.0,-0.1867,0.0,3
1.6,run,20.76,3.86,15.87,47.74,2.35,0.0,-0.03,0.0,0.254,-6.86,-16.88,82.18,-18.19,-30.15,61.44,-34.54,8.79,97.21,15.82,1.23,89.82,22.94,26.37,91.85,12.48,-18.19,94.75,1.32,-24.25,76.65,-12.5,-35.89,56.34,-35.0,2.92,102.83,9.5,8.05,83.6,28.5,22.5,92.78,19.41,-10.54,95.43,1.0,-1.0,-0.5417,1.0,-1.0,-1.0,-1.0,-1.0,1.0,-1.0,1.0,-1.0,1.0,0.5378,1.0,1.0,1.0,-0.992,0.033,0.013,0.019,0.026,0.033,0.006,0.013,0.084,0.0,0.013,0.0,0.019,0.013,0.013,0.006,0.026,0.006,0.006,-0.135,-0.6044,0.0782,-0.3298,-0.7931,-0.2777,-0.6013,-0.1595,0.27,0.293,-0.2761,0.2117,0.3774,0.1473,0.2316,0.1948,-0.6274,0.2546,0.0639,-0.305,-0.2394,0.2833,-0.2297,-0.2034,-0.0193,-0.2956,0.2621,-0.2985,-0.1556,-0.2761,0.2044,-0.028,-0.0003,0.3184,-0.095,0.2485,1.6113,0.228,0.1479,0.4051,-0.0322,1.0,-1.0,-0.8166,1.0,-1.0,-1.0,-1.0,-1.0,1.0,-1.0,0.99,-1.0,1.0,0.1826,0.4133,1.0,1.0,0.002,0.0,0.0,0.0,0.0,0.0,0.0,0.0,0.0,0.0,-0.2,0.0,-0.2,0.0,3
1.64,run,21.52,5.72,17.18,47.93,2.34,0.0,-0.032,0.0,0.254,-5.54,-18.37,81.21,-16.96,-31.46,60.12,-34.54,7.29,98.53,14.24,1.23,88.42,24.35,25.14,91.41,13.97,-17.58,95.89,2.82,-25.75,78.15,-11.0,-37.39,54.84,-35.0,1.42,104.33,8.0,6.55,82.1,30.0,24.0,91.28,20.91,-9.04,93.93,1.0,-1.0,0.2991,1.0,-1.0,-1.0,-1.0,-1.0,1.0,-1.0,-0.3076,-1.0,1.0,0.9191,0.2543,1.0,1.0,-1.0,0.033,0.013,0.019,0.026,0.033,0.006,0.013,0.084,0.0,0.013,0.0,0.019,0.013,0.013,0.006,0.026,0.006,0.006,-0.1166,-0.6305,0.0414,-0.316,-0.8161,-0.3037,-0.6013,-0.1856,0.2945,0.27,-0.2777,0.1871,0.4004,0.1273,0.2194,0.2194,-0.6289,0.2761,0.1135,-0.311,-0.3052,0.2499,-0.2468,-0.2399,-0.0135,-0.3044,0.2752,-0.295,-0.1146,-0.285,0.2291,-0.0942,-0.0461,0.3146,-0.0722,0.2542,1.6594,0.389,0.277,0.8332,0.0411,1.0,-1.0,-0.5417,1.0,-1.0,-1.0,-1.0,-1.0,1.0,-1.0,1.0,-1.0,1.0,0.5378,1.0,1.0,1.0,-0.992,0.0,0.0,0.0,0.0,0.0,0.0,0.0,0.0,0.0,-0.2133,0.0,-0.2133,0.0,3
1.68,run,22.45,7.28,21.08,40.28,-1.45,0.0,-0.034,0.0,0.254,-4.31,-19.86,79.89,-15.29,-32.87,58.62,-34.54,5.8,99.93,12.92,1.85,87.01,25.84,23.99,91.14,15.38,-16.61,96.68,4.32,-27.25,79.65,-9.5,-38.89,53.34,-35.0,-0.08,105.83,6.5,5.05,80.6,31.5,25.5,92.78,22.41,-7.54,92.43,1.0,-1.0,0.8584,1.0,-1.0,-1.0,-1.0,-1.0,1.0,-1.0,-0.4028,-1.0,1.0,1.0,0.7552,1.0,1.0,-1.0,0.058,0.0,0.006,0.013,0.033,0.019,0.006,0.045,0.006,0.013,0.013,0.013,0.013,0.0,0.019,0.013,0.019,0.0,-0.0936,-0.6565,0.0245,-0.2945,-0.8391,-0.3267,-0.6013,-0.2117,0.3175,0.2424,-0.2777,0.1626,0.4249,0.1058,0.2117,0.2454,-0.6182,0.2961,0.1661,-0.3159,-0.2772,0.2558,-0.2594,-0.2545,-0.0095,-0.3113,0.2793,-0.3104,-0.0802,-0.2919,0.2528,-0.1467,-0.0612,0.3184,-0.0101,0.253,1.7252,0.5517,0.2998,0.8365,0.0408,1.0,-1.0,0.2991,1.0,-1.0,-1.0,-1.0,-1.0,1.0,-1.0,-0.3076,-1.0,1.0,0.9191,0.2543,1.0,1.0,-1.0,0.0,0.0,0.0,0.0,0.0,0.0,0.0,0.0,0.0,-0.2267,0.0,-0.2267,0.0,3
1.72,run,22.98,8.21,14.0,23.6,5.05,0.0,-0.036,0.0,0.254,-2.99,-21.27,78.75,-13.89,-34.19,57.3,-34.54,4.39,101.25,11.51,2.72,85.61,27.25,23.29,91.14,16.7,-16.08,97.29,5.82,-28.75,81.15,-8.0,-40.39,51.84,-35.0,-1.58,107.33,5.0,3.55,79.1,33.0,27.0,94.28,23.91,-6.04,90.93,1.0,-1.0,1.0,1.0,-1.0,-0.6237,-1.0,-1.0,1.0,-1.0,-0.3745,-1.0,1.0,1.0,0.8462,1.0,1.0,-1.0,0.058,0.0,0.006,0.013,0.033,0.019,0.006,0.045,0.006,0.013,0.013,0.013,0.013,0.0,0.019,0.013,0.019,0.0,-0.0721,-0.6826,0.0015,-0.2654,-0.8636,-0.3528,-0.6013,-0.2378,0.3421,0.2194,-0.2669,0.1381,0.451,0.0859,0.2071,0.27,-0.6013,0.3099,0.1965,-0.3185,-0.28,0.2879,-0.2733,-0.2756,-0.0066,-0.3153,0.2872,-0.3032,-0.0161,-0.296,0.2744,-0.1772,-0.06,0.3146,0.0559,0.2287,1.807,0.6883,0.368,0.703,-0.0253,1.0,-1.0,0.8584,1.0,-1.0,-1.0,-1.0,-1.0,1.0,-1.0,-0.4028,-1.0,1.0,1.0,0.7552,1.0,1.0,-1.0,0.0,0.0,0.0,0.0,0.0,0.0,0.0,0.0,0.0,-0.24,0.0,-0.24,0.0,3
1.76,run,22.92,8.34,-1.93,0.39,19.59,0.0,-0.038,0.0,0.254,-1.58,-22.59,78.05,-12.39,-35.6,55.81,-34.54,2.9,102.66,10.02,3.69,84.2,28.65,22.68,91.58,18.11,-14.5,97.29,7.32,-30.25,82.65,-6.5,-41.89,53.34,-35.0,-3.08,108.83,3.5,2.05,77.6,31.5,28.5,95.78,25.41,-4.54,89.43,1.0,-1.0,1.0,1.0,-1.0,0.2165,-1.0,-1.0,1.0,-1.0,-0.1926,-1.0,0.8906,1.0,1.0,1.0,1.0,-1.0,0.058,0.0,0.006,0.013,0.033,0.019,0.006,0.045,0.006,0.013,0.013,0.013,0.013,0.0,0.019,0.013,0.019,0.0,-0.0491,-0.7072,-0.0184,-0.2408,-0.8866,-0.3758,-0.6013,-0.2623,0.3651,0.1948,-0.2516,0.1135,0.4755,0.0736,0.2071,0.293,-0.5921,0.3206,0.2243,-0.3155,-0.2712,0.2941,-0.2781,-0.2797,-0.0046,-0.3133,0.2878,-0.3048,0.0466,-0.2998,0.2846,-0.1703,-0.042,0.307,0.0739,0.2006,1.8528,0.7693,0.2444,0.4119,0.0881,1.0,-1.0,1.0,1.0,-1.0,-0.6237,-1.0,-1.0,1.0,-1.0,-0.3745,-1.0,1.0,1.0,0.8462,1.0,1.0,-1.0,0.0,0.0,0.0,0.0,0.0,0.0,0.0,0.0,0.0,-0.2533,0.0,-0.2533,0.0,3
1.8,run,22.6,8.51,-9.85,4.92,13.46,0.0,-0.04,0.0,0.254,0.0,-23.91,77.43,-11.07,-37.09,54.4,-34.63,1.49,103.97,8.61,4.39,82.71,29.97,22.24,92.55,19.51,-13.1,97.29,8.82,-31.75,84.15,-5.0,-43.39,54.84,-35.0,-4.58,110.33,2.0,0.55,76.1,30.48,30.0,97.28,26.91,-3.04,87.93,1.0,-1.0,1.0,1.0,-1.0,1.0,-1.0,-1.0,1.0,-1.0,0.2787,-1.0,0.8709,1.0,1.0,1.0,1.0,-1.0,0.013,0.013,0.0,0.026,0.026,0.006,0.006,0.045,0.006,0.013,0.0,0.019,0.006,0.019,0.045,0.033,0.045,0.026,-0.0245,-0.7302,-0.0307,-0.2148,-0.9112,-0.4019,-0.6013,-0.2884,0.3896,0.1687,-0.2347,0.089,0.5001,0.0629,0.2148,0.3175,-0.5645,0.3206,0.2488,-0.3069,-0.2357,0.3034,-0.2864,-0.2933,-0.0032,-0.3168,0.2932,-0.3109,0.0957,-0.3016,0.291,-0.1594,-0.0007,0.3066,0.1549,0.1404,1.8478,0.7806,-0.0337,0.0067,0.3419,1.0,-1.0,1.0,1.0,-1.0,0.2165,-1.0,-1.0,1.0,-1.0,-0.1926,-1.0,0.8906,1.0,1.0,1.0,1.0,-1.0,0.0,0.0,0.0,0.0,0.0,0.0,0.0,0.0,0.0,-0.2667,0.0,-0.2667,0.0,3
1.84,run,22.35,8.14,-6.48,-8.51,8.02,0.0,-0.042,0.0,0.254,1.58,-25.22,77.34,-9.58,-38.5,53.44,-34.72,0.0,105.29,7.21,4.75,81.3,31.03,22.15,93.52,20.92,-11.78,96.77,10.32,-33.25,85.65,-3.5,-44.89,56.34,-35.0,-6.08,111.83,0.5,-0.95,74.6,28.98,30.0,98.78,28.41,-1.54,86.43,1.0,-1.0,1.0,1.0,-1.0,1.0,-1.0,-1.0,1.0,-1.0,-0.1955,-1.0,0.0335,1.0,0.5128,1.0,1.0,-1.0,0.013,0.013,0.0,0.026,0.026,0.006,0.006,0.045,0.006,0.013,0.0,0.019,0.006,0.019,0.045,0.033,0.045,0.026,0.0031,-0.7532,-0.0414,-0.1917,-0.9373,-0.4264,-0.6029,-0.3129,0.4126,0.1442,-0.2224,0.0629,0.5231,0.0552,0.2316,0.3421,-0.54,0.3206,0.278,-0.3014,-0.2054,0.2989,-0.2986,-0.2976,-0.008,-0.3141,0.2918,-0.31,0.1132,-0.3092,0.2903,-0.1404,0.063,0.307,0.2008,0.0983,1.8196,0.7949,-0.1719,0.0859,0.2349,1.0,-1.0,1.0,1.0,-1.0,1.0,-1.0,-1.0,1.0,-1.0,0.2787,-1.0,0.8709,1.0,1.0,1.0,1.0,-1.0,0.0,0.0,0.0,0.0,0.0,0.0,0.0,0.0,0.0,-0.28,0.0,-0.28,0.0,3
1.88,run,22.13,7.56,-5.71,-13.06,-0.32,0.0,-0.044,0.0,0.254,3.16,-26.02,77.34,-8.26,-39.9,52.73,-34.72,-1.41,106.52,5.8,4.75,79.89,31.64,22.5,94.92,22.15,-10.46,95.8,11.82,-34.75,87.15,-2.0,-46.39,57.84,-35.0,-7.58,113.33,-1.0,0.55,73.1,27.48,30.0,100.28,29.91,-0.04,84.93,1.0,-1.0,1.0,1.0,-1.0,1.0,-1.0,-1.0,1.0,-1.0,0.7352,-1.0,-0.0717,1.0,0.8596,1.0,1.0,-1.0,0.013,0.013,0.0,0.026,0.026,0.006,0.006,0.045,0.006,0.013,0.0,0.019,0.006,0.019,0.045,0.033,0.045,0.026,0.0307,-0.7762,-0.043,-0.1657,-0.9618,-0.4433,-0.6044,-0.339,0.4357,0.1197,-0.2163,0.0383,0.5415,0.0537,0.2485,0.3666,-0.517,0.3114,0.2987,-0.2977,-0.1496,0.3075,-0.3015,-0.2719,-0.0114,-0.3182,0.291,-0.3095,0.1023,-0.309,0.2726,-0.1041,0.1077,0.3074,0.2273,0.0341,1.7984,0.7629,-0.1131,-0.1485,0.1399,1.0,-1.0,1.0,1.0,-1.0,1.0,-1.0,-1.0,1.0,-1.0,-0.1955,-1.0,0.0335,1.0,0.5128,1.0,1.0,-1.0,0.0,0.0,0.0,0.0,0.0,0.0,0.0,0.0,0.0,-0.2933,0.0,-0.2933,0.0,3
1.92,run,21.82,6.8,-6.63,-16.58,1.93,0.0,-0.046,0.0,0.254,4.66,-27.77,78.05,-6.86,-41.31,52.38,-34.72,-2.81,108.11,4.31,4.57,78.49,32.08,23.12,96.24,23.64,-8.96,94.48,13.32,-36.25,88.65,-0.5,-47.89,59.34,-35.0,-9.08,114.83,-2.5,2.05,71.6,25.98,30.0,98.78,31.41,1.46,83.43,1.0,-1.0,1.0,1.0,-1.0,1.0,-1.0,-1.0,1.0,-1.0,1.0,-1.0,-0.3652,1.0,-0.0615,1.0,1.0,-1.0,0.013,0.006,0.019,0.013,0.033,0.006,0.006,0.033,0.006,0.006,0.019,0.013,0.006,0.136,0.065,0.058,0.045,0.019,0.0583,-0.79,-0.043,-0.1427,-0.9863,-0.4556,-0.6044,-0.3636,0.4571,0.0951,-0.2163,0.0138,0.5522,0.0598,0.273,0.3881,-0.4939,0.2945,0.312,-0.2598,-0.1047,0.301,-0.3025,-0.2361,-0.008,-0.3142,0.2837,-0.3081,0.0716,-0.3077,0.2308,-0.05,0.1668,0.2952,0.2448,-0.039,1.7785,0.7126,-0.0996,-0.228,-0.0056,1.0,-1.0,1.0,1.0,-1.0,1.0,-1.0,-1.0,1.0,-1.0,0.7352,-1.0,-0.0717,1.0,0.8596,1.0,1.0,-1.0,0.0,0.0,0.0,0.0,0.0,0.0,0.0,0.0,0.0,-0.3067,0.0,-0.3067,0.0,3
1.96,run,21.8,6.25,-0.75,-12.93,5.49,0.0,-0.048,0.0,0.254,6.06,-29.27,79.1,-5.36,-42.71,52.38,-34.72,-4.22,109.51,2.99,3.78,77.08,32.17,24.08,97.38,24.96,-7.47,93.16,14.82,-37.75,90.15,1.0,-49.39,60.84,-35.0,-10.58,116.33,-4.0,3.55,70.1,24.48,30.0,97.28,32.91,2.96,81.93,1.0,-1.0,1.0,1.0,-1.0,1.0,-1.0,-1.0,1.0,-1.0,1.0,-1.0,-0.4038,1.0,-0.3345,1.0,1.0,-1.0,0.013,0.006,0.019,0.013,0.033,0.006,0.006,0.033,0.006,0.006,0.019,0.013,0.006,0.136,0.065,0.058,0.045,0.019,0.0844,-0.8207,-0.0307,-0.1181,-1.0109,-0.4617,-0.6044,-0.3881,0.4847,0.069,-0.2194,-0.0107,0.5599,0.0706,0.2961,0.4142,-0.4679,0.2715,0.3162,-0.2969,-0.0273,0.3027,-0.3038,-0.1883,-0.0056,-0.3119,0.3021,-0.3134,0.0386,-0.3074,0.1903,0.0053,0.2031,0.3044,0.2692,-0.1136,1.7515,0.6459,-0.1156,-0.2894,0.0336,1.0,-1.0,1.0,1.0,-1.0,1.0,-1.0,-1.0,1.0,-1.0,1.0,-1.0,-0.3652,1.0,-0.0615,1.0,1.0,-1.0,0.0,0.0,0.0,0.0,0.0,0.0,0.0,0.0,0.0,-0.32,0.0,-0.32,0.0,3
2.0,run,21.99,5.85,4.65,-8.82,9.81,0.0,-0.05,0.0,0.254,7.65,-30.67,80.33,-4.04,-44.12,52.65,-34.72,-5.71,110.92,1.49,3.08,75.67,31.73,25.22,98.35,26.19,-6.06,91.85,16.32,-39.25,91.65,2.5,-50.89,62.34,-35.0,-12.08,117.83,-5.5,5.05,68.6,22.98,30.0,95.78,34.41,4.46,80.43,1.0,-1.0,1.0,1.0,-1.0,1.0,-1.0,-1.0,1.0,-1.0,1.0,-1.0,-0.1755,1.0,-0.179,1.0,1.0,-1.0,0.013,0.006,0.019,0.013,0.033,0.006,0.006,0.033,0.006,0.006,0.019,0.013,0.006,0.136,0.065,0.058,0.045,0.019,0.1089,-0.8468,-0.0123,-0.092,-1.0354,-0.4617,-0.6044,-0.4126,0.5093,0.046,-0.2332,-0.0353,0.5614,0.0874,0.316,0.4372,-0.4418,0.2485,0.3139,-0.3063,0.0504,0.3103,-0.3053,-0.1318,-0.0039,-0.311,0.3041,-0.3062,-0.025,-0.3078,0.139,0.0674,0.2174,0.2999,0.2868,-0.1663,1.75,0.5979,-0.013,-0.2258,0.0958,1.0,-1.0,1.0,1.0,-1.0,1.0,-1.0,-1.0,1.0,-1.0,1.0,-1.0,-0.4038,1.0,-0.3345,1.0,1.0,-1.0,0.0,0.0,0.0,0.0,0.0,0.0,0.0,0.0,0.0,-0.3333,0.0,-0.3333,0.0,3
2.04,run,22.34,5.65,8.95,-4.55,12.86,0.0,-0.05,0.0,0.254,9.05,-32.08,81.74,-2.55,-45.53,53.61,-34.72,-7.21,112.32,0.09,2.64,74.27,30.94,26.46,98.88,27.6,-4.75,90.44,17.82,-40.75,93.15,4.0,-52.39,63.84,-35.0,-13.58,119.33,-7.0,6.55,67.1,21.48,28.5,94.28,35.0,5.96,78.93,1.0,-1.0,1.0,1.0,-1.0,1.0,-1.0,-1.0,1.0,-1.0,1.0,-1.0,0.0888,0.8653,0.1381,1.0,1.0,-1.0,0.013,0.026,0.006,0.019,0.019,0.006,0.0,0.026,0.019,0.006,0.0,0.019,0.019,0.136,0.045,0.065,0.058,0.026,0.1365,-0.8713,0.0092,-0.069,-1.06,-0.4571,-0.6044,-0.4387,0.5338,0.0199,-0.2454,-0.0598,0.5538,0.1074,0.3329,0.4587,-0.4172,0.2255,0.3228,-0.306,0.1154,0.3031,-0.3053,-0.0751,-0.0027,-0.315,0.3045,-0.3117,-0.0633,-0.3071,0.0687,0.1216,0.2151,0.2901,0.2924,-0.2023,1.7665,0.5631,0.0811,-0.1539,0.1712,1.0,-1.0,1.0,1.0,-1.0,1.0,-1.0,-1.0,1.0,-1.0,1.0,-1.0,-0.1755,1.0,-0.179,1.0,1.0,-1.0,0.0,0.0,0.0,0.0,0.0,0.0,0.0,0.0,0.0,-0.3333,0.0,-0.3333,0.0,3
2.08,run,22.91,5.74,13.34,4.0,20.59,0.0,-0.05,0.0,0.254,10.2,-33.49,83.14,-1.05,-47.02,54.67,-34.72,-8.61,113.73,-1.23,2.46,72.77,29.97,27.51,99.4,29.0,-3.52,89.03,19.32,-42.25,94.65,5.5,-53.89,65.34,-35.0,-15.08,120.83,-8.5,8.05,65.6,19.98,27.0,95.78,35.0,7.46,77.43,1.0,-1.0,1.0,1.0,-1.0,1.0,-1.0,-1.0,1.0,-1.0,1.0,-1.0,0.1789,0.7016,0.6983,1.0,1.0,-1.0,0.013,0.026,0.006,0.019,0.019,0.006,0.0,0.026,0.019,0.006,0.0,0.019,0.019,0.136,0.045,0.065,0.058,0.026,0.1611,-0.8958,0.0337,-0.043,-1.0845,-0.4403,-0.6044,-0.4648,0.5584,-0.0046,-0.2531,-0.0844,0.54,0.1289,0.3421,0.4832,-0.3942,0.201,0.318,-0.3062,0.1728,0.3099,-0.3057,0.0107,-0.0019,-0.3182,0.3051,-0.3102,-0.0731,-0.3069,-0.0037,0.1656,0.1851,0.2951,0.2909,-0.2336,1.7974,0.5454,0.1562,-0.0795,0.2244,1.0,-1.0,1.0,1.0,-1.0,1.0,-1.0,-1.0,1.0,-1.0,1.0,-1.0,0.0888,0.8653,0.1381,1.0,1.0,-1.0,0.0,0.0,0.0,0.0,0.0,0.0,0.0,0.0,0.0,-0.3333,0.0,-0.3333,0.0,3
2.12,run,23.36,5.93,10.95,5.69,22.8,0.0,-0.05,0.0,0.254,11.95,-34.89,84.55,0.26,-48.43,55.99,-34.72,-10.11,115.05,-2.81,2.64,71.37,28.65,28.39,99.49,30.41,-2.46,87.71,20.82,-43.75,96.15,7.0,-55.39,66.84,-35.0,-16.58,122.33,-10.0,9.55,64.1,18.48,25.5,97.28,35.0,8.96,75.93,1.0,-1.0,0.7326,1.0,-1.0,0.4106,-1.0,-1.0,1.0,-1.0,1.0,-1.0,-0.413,0.5079,0.9386,1.0,1.0,-1.0,0.013,0.026,0.006,0.019,0.019,0.006,0.0,0.026,0.019,0.006,0.0,0.019,0.019,0.136,0.045,0.065,0.058,0.026,0.181,-0.9204,0.0583,-0.0169,-1.1106,-0.4218,-0.6044,-0.4893,0.5829,-0.0276,-0.2562,-0.1104,0.5231,0.1473,0.3513,0.5077,-0.3728,0.1764,0.2978,-0.3069,0.2135,0.3153,-0.3123,0.0769,-0.0013,-0.3153,0.3061,-0.3039,-0.0627,-0.3132,-0.0662,0.1853,0.1643,0.2991,0.2846,-0.2561,1.8467,0.5532,0.2329,0.0699,0.3594,1.0,-1.0,1.0,1.0,-1.0,1.0,-1.0,-1.0,1.0,-1.0,1.0,-1.0,0.1789,0.7016,0.6983,1.0,1.0,-1.0,0.0,0.0,0.0,0.0,0.0,0.0,0.0,0.0,0.0,-0.3333,0.0,-0.3333,0.0,3
2.16,run,23.81,6.21,10.86,8.16,23.65,0.0,-0.05,0.0,0.254,13.36,-36.39,85.96,1.67,-49.83,57.48,-34.72,-11.6,116.46,-4.04,3.34,69.96,27.16,29.0,99.23,31.9,-1.49,86.13,22.32,-45.25,97.65,8.5,-56.89,68.34,-35.0,-18.08,123.83,-11.5,11.05,62.6,16.98,24.0,98.78,35.0,10.46,74.43,1.0,-1.0,0.8172,1.0,-1.0,0.4099,-1.0,-1.0,1.0,-1.0,1.0,-1.0,-1.0,0.5337,1.0,1.0,1.0,-1.0,0.019,0.026,0.013,0.019,0.026,0.006,0.006,0.019,0.033,0.013,0.006,0.013,0.013,0.026,0.0,0.045,0.123,0.026,0.2117,-0.9449,0.0828,0.0061,-1.1351,-0.3988,-0.6044,-0.5154,0.6059,-0.0552,-0.2531,-0.135,0.5001,0.1626,0.3528,0.5323,-0.3543,0.1534,0.3228,-0.3063,0.2409,0.3065,-0.3101,0.1396,-0.0009,-0.3179,0.3001,-0.3157,-0.0325,-0.3107,-0.1321,0.1869,0.1207,0.3009,0.2679,-0.265,1.8857,0.5704,0.1912,0.0993,0.3979,1.0,-1.0,0.7326,1.0,-1.0,0.4106,-1.0,-1.0,1.0,-1.0,1.0,-1.0,-0.413,0.5079,0.9386,1.0,1.0,-1.0,0.0,0.0,0.0,0.0,0.0,0.0,0.0,0.0,0.0,-0.3333,0.0,-0.3333,0.0,3
2.2,run,24.14,6.04,8.06,-1.79,22.85,0.0,-0.05,0.0,0.254,14.5,-37.53,87.36,3.08,-51.15,58.89,-34.72,-12.92,117.77,-5.62,4.31,68.55,25.75,29.27,98.7,33.13,0.35,84.73,23.82,-46.75,99.15,10.0,-58.39,69.84,-35.0,-19.58,125.33,-13.0,12.55,61.1,15.48,22.5,100.28,35.0,11.96,72.93,1.0,-1.0,1.0,1.0,-1.0,0.2884,-1.0,-1.0,1.0,-0.9252,1.0,-0.3426,-1.0,0.755,0.9119,1.0,1.0,-1.0,0.019,0.026,0.013,0.019,0.026,0.006,0.006,0.019,0.033,0.013,0.006,0.013,0.013,0.026,0.0,0.045,0.123,0.026,0.2362,-0.971,0.1074,0.0307,-1.1597,-0.3728,-0.6044,-0.5415,0.6305,-0.0767,-0.2408,-0.1595,0.474,0.1733,0.3482,0.5584,-0.3375,0.1258,0.3161,-0.3102,0.2588,0.3046,-0.3072,0.1935,-0.0007,-0.3183,0.3002,-0.2998,0.0223,-0.3076,-0.1882,0.1703,0.0676,0.3063,0.2494,-0.2869,1.925,0.5949,0.1896,0.1425,0.4128,1.0,-1.0,0.8172,1.0,-1.0,0.4099,-1.0,-1.0,1.0,-1.0,1.0,-1.0,-1.0,0.5337,1.0,1.0,1.0,-1.0,0.0,0.0,0.0,0.0,0.0,0.0,0.0,0.0,0.0,-0.3333,0.0,-0.3333,0.0,3
2.24,run,23.69,5.75,-11.11,-6.04,15.58,0.0,-0.05,0.0,0.254,16.26,-38.94,88.77,4.48,-52.65,60.38,-34.72,-14.41,119.18,-6.94,5.54,67.15,24.35,28.92,98.61,33.93,2.11,83.23,25.32,-48.25,100.65,11.5,-59.89,71.34,-35.0,-21.08,126.83,-14.5,14.05,59.6,13.98,24.0,101.78,35.0,13.46,71.43,1.0,-1.0,1.0,1.0,-1.0,0.347,-1.0,-1.0,1.0,-0.8327,1.0,-0.63,-1.0,1.0,0.6489,1.0,1.0,-1.0,0.019,0.026,0.013,0.019,0.026,0.006,0.006,0.019,0.033,0.013,0.006,0.013,0.013,0.026,0.0,0.045,0.123,0.026,0.2562,-0.991,0.1319,0.0552,-1.1827,-0.3482,-0.6044,-0.5645,0.6535,-0.1043,-0.224,-0.1841,0.4495,0.1779,0.339,0.5798,-0.3053,0.1012,0.2975,-0.2934,0.275,0.3071,-0.303,0.2293,-0.0005,-0.3108,0.2981,-0.3155,0.0802,-0.3092,-0.2256,0.1368,0.0121,0.2966,0.2978,-0.2947,1.9543,0.58,0.1407,-0.0312,0.3988,1.0,-1.0,1.0,1.0,-1.0,0.2884,-1.0,-1.0,1.0,-0.9252,1.0,-0.3426,-1.0,0.755,0.9119,1.0,1.0,-1.0,0.0,0.0,0.0,0.0,0.0,0.0,0.0,0.0,0.0,-0.3333,0.0,-0.3333,0.0,3
2.28,run,23.17,5.26,-14.78,-9.83,8.06,0.0,-0.05,0.0,0.254,17.23,-40.34,90.26,5.89,-54.14,61.79,-34.72,-15.82,120.5,-8.44,6.94,65.74,22.94,28.21,98.61,34.37,3.6,81.56,26.82,-49.75,102.15,13.0,-58.39,72.84,-35.0,-22.58,128.33,-16.0,15.55,58.1,12.48,25.5,100.28,35.0,14.96,69.93,1.0,-1.0,1.0,1.0,-0.6031,1.0,-1.0,-1.0,1.0,-0.5763,1.0,-0.3462,-1.0,1.0,-0.1317,1.0,1.0,-1.0,0.019,0.033,0.013,0.019,0.019,0.006,0.0,0.026,0.039,0.006,0.006,0.013,0.013,0.0,0.019,0.013,0.052,0.006,0.2869,-1.0155,0.1565,0.0798,-1.2088,-0.3221,-0.6044,-0.5906,0.678,-0.1273,-0.2025,-0.2086,0.4249,0.1718,0.3375,0.5937,-0.2746,0.0752,0.3236,-0.2976,0.2848,0.3072,-0.3102,0.2585,-0.0003,-0.3156,0.3009,-0.3073,0.1368,-0.3087,-0.2502,0.0727,0.0027,0.2595,0.3238,-0.3043,1.9151,0.5547,-0.1938,-0.1054,0.272,1.0,-1.0,1.0,1.0,-1.0,0.347,-1.0,-1.0,1.0,-0.8327,1.0,-0.63,-1.0,1.0,0.6489,1.0,1.0,-1.0,0.0,0.0,0.0,0.0,0.0,0.0,0.0,0.0,0.0,-0.3333,0.0,-0.3333,0.0,3
2.32,run,22.72,4.65,-12.66,-12.0,7.29,0.0,-0.05,0.0,0.254,19.16,-41.75,91.67,7.29,-55.46,63.11,-34.72,-17.23,121.9,-9.84,8.35,64.34,21.45,27.16,99.32,34.63,5.1,79.98,28.32,-51.25,103.65,14.5,-56.89,74.34,-35.0,-24.08,129.83,-14.5,17.05,59.6,10.98,27.0,98.78,35.0,16.46,68.43,1.0,-1.0,1.0,0.4146,0.064,0.9693,-1.0,-1.0,1.0,-0.1659,1.0,0.2654,-1.0,1.0,-0.7575,1.0,0.8396,-1.0,0.019,0.033,0.013,0.019,0.019,0.006,0.0,0.026,0.039,0.006,0.006,0.013,0.013,0.0,0.019,0.013,0.052,0.006,0.3037,-1.04,0.1825,0.1043,-1.2349,-0.2976,-0.6044,-0.6151,0.701,-0.1534,-0.1779,-0.2332,0.4004,0.1595,0.3375,0.6013,-0.2485,0.046,0.2897,-0.3002,0.297,0.307,-0.3147,0.2729,-0.0002,-0.3128,0.2968,-0.3128,0.1877,-0.308,-0.267,0.0049,0.0019,0.2104,0.3243,-0.3221,1.8695,0.5114,-0.2579,-0.1715,0.1407,1.0,-1.0,1.0,1.0,-0.6031,1.0,-1.0,-1.0,1.0,-0.5763,1.0,-0.3462,-1.0,1.0,-0.1317,1.0,1.0,-1.0,0.0,0.0,0.0,0.0,0.0,0.0,0.0,0.0,0.0,-0.3333,0.0,-0.3333,0.0,3
2.36,run,21.96,3.78,-20.39,-18.71,4.51,0.0,-0.05,0.0,0.254,20.04,-43.15,93.08,8.7,-56.51,64.6,-34.72,-18.63,123.4,-11.16,9.76,62.84,20.13,26.28,99.93,34.63,6.5,78.75,29.82,-52.75,105.15,13.0,-55.39,75.84,-35.0,-25.58,131.33,-13.0,18.55,61.1,9.48,28.5,97.28,35.0,17.96,66.93,1.0,-1.0,1.0,-0.5859,0.3615,0.5356,-1.0,-1.0,1.0,-0.2361,1.0,0.7292,-1.0,1.0,-1.0,1.0,0.9866,-1.0,0.019,0.033,0.013,0.019,0.019,0.006,0.0,0.026,0.039,0.006,0.006,0.013,0.013,0.0,0.019,0.013,0.052,0.006,0.3375,-1.0646,0.2071,0.1289,-1.2579,-0.2746,-0.6044,-0.6397,0.7256,-0.1779,-0.1534,-0.2577,0.3743,0.1411,0.3497,0.6059,-0.2224,0.0184,0.3283,-0.3014,0.2991,0.3061,-0.3059,0.2766,-0.0002,-0.3102,0.299,-0.3102,0.2226,-0.3069,-0.2839,-0.065,0.047,0.1644,0.324,-0.3282,1.8301,0.4586,-0.2209,-0.2094,0.1273,1.0,-1.0,1.0,0.4146,0.064,0.9693,-1.0,-1.0,1.0,-0.1659,1.0,0.2654,-1.0,1.0,-0.7575,1.0,0.8396,-1.0,0.0,0.0,0.0,0.0,0.0,0.0,0.0,0.0,0.0,-0.3333,0.0,-0.3333,0.0,3
2.4,run,21.51,2.82,-11.95,-22.07,7.47,0.0,-0.05,0.0,0.254,21.71,-44.56,94.48,10.11,-57.48,66.01,-34.72,-20.04,124.72,-12.39,11.07,61.61,18.63,25.66,100.2,34.63,7.91,77.34,31.32,-54.25,106.65,11.5,-53.89,77.34,-35.0,-27.08,132.83,-14.5,20.05,62.6,7.98,27.0,95.78,35.0,16.46,65.43,1.0,-1.0,1.0,-1.0,1.0,0.9245,-1.0,-1.0,1.0,-0.5612,1.0,0.7047,-1.0,0.6126,-1.0,1.0,-0.5478,-1.0,0.0,0.033,0.013,0.013,0.013,0.013,0.006,0.019,0.045,0.006,0.026,0.0,0.019,0.006,0.013,0.019,0.058,0.006,0.3528,-1.0891,0.2316,0.1534,-1.2763,-0.2485,-0.6044,-0.6642,0.7517,-0.201,-0.1289,-0.2838,0.3513,0.1258,0.3605,0.6059,-0.1979,-0.0031,0.2887,-0.3053,0.3037,0.3086,-0.2848,0.2938,-0.0001,-0.3114,0.3095,-0.3055,0.2501,-0.315,-0.2871,-0.1044,0.0741,0.1151,0.3211,-0.3122,1.7642,0.3828,-0.3558,-0.3265,0.0787,1.0,-1.0,1.0,-0.5859,0.3615,0.5356,-1.0,-1.0,1.0,-0.2361,1.0,0.7292,-1.0,1.0,-1.0,1.0,0.9866,-1.0,0.0,0.0,0.0,0.0,0.0,0.0,0.0,0.0,0.0,-0.3333,0.0,-0.3333,0.0,3
2.44,run,21.35,2.4,-2.2,-7.77,-3.22,0.0,-0.05,0.0,0.254,23.12,-46.05,95.89,11.16,-58.01,67.41,-34.72,-21.53,126.04,-13.27,12.22,60.47,17.23,25.49,99.93,34.72,9.32,76.2,32.82,-55.75,108.15,10.0,-52.39,78.84,-35.0,-28.58,134.33,-13.0,21.55,64.1,6.48,25.5,94.28,35.0,14.96,63.93,1.0,-1.0,1.0,-1.0,0.9887,0.596,-1.0,-1.0,1.0,-0.1364,1.0,1.0,-1.0,0.3912,-1.0,1.0,0.7162,-1.0,0.0,0.033,0.013,0.013,0.013,0.013,0.006,0.019,0.045,0.006,0.026,0.0,0.019,0.006,0.013,0.019,0.058,0.006,0.382,-1.1137,0.2562,0.1779,-1.2931,-0.224,-0.6044,-0.6888,0.7747,-0.2224,-0.1058,-0.3053,0.3252,0.115,0.3651,0.6059,-0.1733,-0.0276,0.3094,-0.304,0.3029,0.3063,-0.2615,0.296,-0.0001,-0.3083,0.3013,-0.2929,0.2598,-0.2995,-0.297,-0.1126,0.0688,0.0805,0.3151,-0.3089,1.7243,0.2988,-0.2086,-0.3852,0.1303,1.0,-1.0,1.0,-1.0,1.0,0.9245,-1.0,-1.0,1.0,-0.5612,1.0,0.7047,-1.0,0.6126,-1.0,1.0,-0.5478,-1.0,0.0,0.0,0.0,0.0,0.0,0.0,0.0,0.0,0.0,-0.3333,0.0,-0.3333,0.0,3
2.48,run,21.11,1.98,-5.03,-9.98,-10.81,0.0,-0.05,0.0,0.254,24.52,-47.37,97.38,11.95,-58.1,68.91,-34.72,-22.85,127.44,-13.89,13.89,60.12,15.82,25.49,98.96,34.72,10.72,74.88,34.32,-57.25,109.65,8.5,-53.89,77.34,-35.0,-30.08,135.83,-14.5,23.05,65.6,4.98,27.0,92.78,35.0,16.46,62.43,1.0,-1.0,1.0,-1.0,-0.551,-1.0,-1.0,-1.0,1.0,-0.7053,1.0,1.0,-1.0,1.0,-1.0,1.0,1.0,-1.0,0.0,0.033,0.013,0.013,0.013,0.013,0.006,0.019,0.045,0.006,0.026,0.0,0.019,0.006,0.013,0.019,0.058,0.006,0.4065,-1.1397,0.2807,0.1963,-1.3023,-0.1994,-0.6044,-0.7148,0.7977,-0.2378,-0.0859,-0.3252,0.3007,0.112,0.3605,0.6075,-0.1488,-0.0476,0.3092,-0.3112,0.3047,0.2839,-0.2178,0.2998,-0.0001,-0.3142,0.2978,-0.2629,0.2571,-0.2849,-0.3005,-0.0904,0.0308,0.0622,0.3132,-0.2915,1.711,0.2623,-0.0384,-0.1357,-0.0562,1.0,-1.0,1.0,-1.0,0.9887,0.596,-1.0,-1.0,1.0,-0.1364,1.0,1.0,-1.0,0.3912,-1.0,1.0,0.7162,-1.0,0.0,0.0,0.0,0.0,0.0,0.0,0.0,0.0,0.0,-0.3333,0.0,-0.3333,0.0,3
2.52,run,21.11,1.56,-0.13,-9.1,-6.49,0.0,-0.05,0.0,0.254,25.93,-48.87,98.7,12.57,-58.1,70.31,-34.72,-24.43,128.67,-14.33,15.12,59.41,14.41,25.58,98.0,34.72,12.04,73.21,35.0,-58.75,111.15,7.0,-52.39,78.84,-35.0,-31.58,137.33,-16.0,24.55,67.1,3.48,28.5,91.28,35.0,14.96,60.93,1.0,-1.0,1.0,-1.0,0.4268,0.5054,-1.0,-1.0,1.0,-1.0,1.0,1.0,-1.0,1.0,-1.0,1.0,-0.9024,-1.0,0.013,0.026,0.019,0.0,0.013,0.019,0.006,0.026,0.065,0.019,0.019,0.006,0.019,0.013,0.019,0.013,0.045,0.013,0.431,-1.1628,0.3068,0.2102,-1.3039,-0.1733,-0.6044,-0.7378,0.8222,-0.2485,-0.0568,-0.3313,0.2761,0.112,0.3436,0.6075,-0.1243,-0.0706,0.3083,-0.304,0.3109,0.2504,-0.1582,0.3075,-0.0,-0.3061,0.3003,-0.2242,0.289,-0.2224,-0.3022,-0.0633,-0.0416,0.0435,0.3111,-0.2901,1.6899,0.2258,-0.0878,-0.1742,-0.1886,1.0,-1.0,1.0,-1.0,-0.551,-1.0,-1.0,-1.0,1.0,-0.7053,1.0,1.0,-1.0,1.0,-1.0,1.0,1.0,-1.0,0.0,0.0,0.0,0.0,0.0,0.0,0.0,0.0,0.0,-0.3333,0.0,-0.3333,0.0,3
2.56,run,21.52,1.3,10.18,-4.03,-0.87,0.0,-0.05,0.0,0.254,27.33,-50.36,100.2,12.74,-57.57,71.72,-34.72,-25.75,129.81,-14.33,16.44,59.68,13.1,26.28,96.59,34.72,13.27,71.81,35.0,-60.25,112.65,5.5,-53.89,77.34,-35.0,-33.08,135.83,-17.5,26.05,68.6,1.98,30.0,89.78,35.0,16.46,59.43,1.0,-1.0,1.0,-1.0,-0.8799,-0.7336,-1.0,-1.0,0.7883,-1.0,1.0,1.0,-1.0,1.0,-1.0,1.0,1.0,-1.0,0.013,0.026,0.019,0.0,0.013,0.019,0.006,0.026,0.065,0.019,0.019,0.006,0.019,0.013,0.019,0.013,0.045,0.013,0.4556,-1.1888,0.3298,0.2209,-1.3039,-0.1488,-0.6044,-0.7655,0.8437,-0.2562,-0.0353,-0.3436,0.2516,0.1135,0.3267,0.6075,-0.1012,-0.0997,0.3075,-0.3102,0.3036,0.2154,-0.1107,0.307,-0.0,-0.3175,0.2905,-0.1856,0.2826,-0.2016,-0.3033,-0.0386,-0.0922,0.0305,0.3038,-0.312,1.6897,0.1886,-0.0023,-0.1589,-0.1133,1.0,-1.0,1.0,-1.0,0.4268,0.5054,-1.0,-1.0,1.0,-1.0,1.0,1.0,-1.0,1.0,-1.0,1.0,-0.9024,-1.0,0.0,0.0,0.0,0.0,0.0,0.0,0.0,0.0,0.0,-0.3333,0.0,-0.3333,0.0,3
2.6,run,22.07,1.34,13.28,4.94,1.43,0.0,-0.05,0.0,0.254,28.74,-51.77,101.6,12.57,-56.6,73.21,-34.72,-27.07,131.13,-15.12,17.75,60.12,11.6,27.16,95.1,34.72,14.15,70.31,35.0,-61.75,114.15,4.0,-55.39,75.84,-35.0,-34.58,134.33,-19.0,27.55,70.1,0.48,30.0,88.28,35.0,14.96,57.93,1.0,-1.0,1.0,-1.0,-1.0,-1.0,-1.0,-1.0,-0.1701,-1.0,1.0,1.0,-1.0,1.0,-1.0,1.0,0.1684,-1.0,0.013,0.026,0.019,0.0,0.013,0.019,0.006,0.026,0.065,0.019,0.019,0.006,0.019,0.013,0.019,0.013,0.045,0.013,0.4801,-1.2149,0.3559,0.224,-1.2947,-0.1243,-0.6044,-0.7885,0.8636,-0.2562,-0.0123,-0.339,0.2286,0.1258,0.3022,0.6075,-0.0798,-0.1243,0.3074,-0.3151,0.3104,0.1623,-0.0429,0.307,-0.0,-0.3086,0.2782,-0.1299,0.2842,-0.1238,-0.2987,0.0191,-0.1567,0.0213,0.2933,-0.3106,1.7252,0.1664,0.1777,-0.0703,-0.0151,1.0,-1.0,1.0,-1.0,-0.8799,-0.7336,-1.0,-1.0,0.7883,-1.0,1.0,1.0,-1.0,1.0,-1.0,1.0,1.0,-1.0,0.0,0.0,0.0,0.0,0.0,0.0,0.0,0.0,0.0,-0.3333,0.0,-0.3333,0.0,3
2.64,run,22.78,1.71,18.29,12.16,-2.69,0.0,-0.05,0.0,0.254,30.23,-53.35,103.01,12.48,-55.63,74.44,-34.72,-28.48,132.19,-15.82,19.16,60.82,10.2,28.12,93.69,34.72,14.85,68.47,35.0,-60.25,115.65,2.5,-56.89,74.34,-33.5,-36.08,132.83,-20.5,29.05,71.6,-1.02,30.0,86.78,35.0,16.46,56.43,1.0,0.0149,1.0,-1.0,-1.0,-1.0,-0.8792,-1.0,-1.0,-1.0,1.0,1.0,-1.0,1.0,-1.0,1.0,1.0,-1.0,0.006,0.026,0.013,0.026,0.0,0.006,0.0,0.026,0.104,0.052,0.033,0.019,0.013,0.006,0.006,0.013,0.026,0.019,0.5047,-1.2395,0.3804,0.2209,-1.2778,-0.0982,-0.6044,-0.8115,0.8866,-0.27,0.0107,-0.3313,0.2025,0.1411,0.2761,0.6075,-0.0644,-0.1503,0.307,-0.3124,0.3092,0.1021,0.0331,0.3125,-0.0,-0.3021,0.2808,-0.1426,0.2851,-0.058,-0.3067,0.0708,-0.2073,0.0149,0.2627,-0.315,1.7739,0.1693,0.2317,0.0861,0.025,1.0,-1.0,1.0,-1.0,-1.0,-1.0,-1.0,-1.0,-0.1701,-1.0,1.0,1.0,-1.0,1.0,-1.0,1.0,0.1684,-1.0,0.0,0.0,0.0,0.0,0.0,0.0,0.0,0.0,0.0,-0.3333,0.0,-0.3333,0.0,3
2.68,run,23.61,2.42,19.15,21.99,-11.12,0.0,-0.05,0.0,0.254,31.55,-54.76,104.41,11.43,-54.84,75.5,-34.72,-29.88,132.89,-17.05,20.57,61.88,8.79,29.09,92.2,34.72,15.38,67.94,35.0,-58.75,117.15,1.0,-58.39,72.84,-32.0,-37.58,131.33,-22.0,27.55,73.1,-2.52,30.0,85.28,35.0,17.96,54.93,1.0,1.0,1.0,-1.0,-1.0,-1.0,1.0,-1.0,-1.0,-1.0,0.2487,1.0,-1.0,1.0,-1.0,1.0,1.0,-1.0,0.006,0.026,0.013,0.026,0.0,0.006,0.0,0.026,0.104,0.052,0.033,0.019,0.013,0.006,0.006,0.013,0.026,0.019,0.5308,-1.2671,0.405,0.2194,-1.2609,-0.0767,-0.6044,-0.836,0.905,-0.2823,0.0353,-0.3191,0.1779,0.158,0.2516,0.6075,-0.0522,-0.1825,0.3133,-0.3229,0.309,0.0657,0.0868,0.2998,-0.0,-0.3041,0.2661,-0.1461,0.2922,0.0057,-0.3073,0.1132,-0.2377,0.0104,0.2302,-0.3421,1.8356,0.2014,0.3192,0.2123,-0.047,1.0,0.0149,1.0,-1.0,-1.0,-1.0,-0.8792,-1.0,-1.0,-1.0,1.0,1.0,-1.0,1.0,-1.0,1.0,1.0,-1.0,0.0,0.0,0.0,0.0,0.0,0.0,0.0,0.0,0.0,-0.3333,0.0,-0.3333,0.0,3
2.72,run,25.0,2.74,36.34,7.9,-8.93,0.0,-0.05,0.0,0.254,32.87,-56.07,106.17,9.58,-54.32,76.2,-34.63,-31.29,133.33,-18.37,21.88,63.19,7.38,29.53,90.88,34.72,15.64,66.27,35.0,-57.25,118.65,-0.5,-59.89,71.34,-30.5,-39.08,129.83,-23.5,26.05,74.6,-4.02,30.0,83.78,35.0,19.46,53.43,1.0,1.0,1.0,-1.0,-1.0,-1.0,1.0,-1.0,-1.0,-1.0,-0.9135,1.0,-1.0,1.0,-1.0,1.0,1.0,-0.7689,0.006,0.026,0.013,0.026,0.0,0.006,0.0,0.026,0.104,0.052,0.033,0.019,0.013,0.006,0.006,0.013,0.026,0.019,0.5538,-1.2916,0.4295,0.201,-1.2471,-0.0583,-0.6044,-0.8606,0.9173,-0.3037,0.0598,-0.3007,0.1534,0.1749,0.2255,0.6075,-0.043,-0.1917,0.3057,-0.3182,0.3085,-0.0231,0.1126,0.279,-0.0,-0.305,0.2323,-0.1829,0.2966,0.0731,-0.3072,0.1426,-0.2643,0.0073,0.1957,-0.274,1.9076,0.2635,0.3343,0.3838,-0.1941,1.0,1.0,1.0,-1.0,-1.0,-1.0,1.0,-1.0,-1.0,-1.0,0.2487,1.0,-1.0,1.0,-1.0,1.0,1.0,-1.0,0.0,0.0,0.0,0.0,0.0,0.0,0.0,0.0,0.0,-0.3333,0.0,-0.3333,0.0,3
2.76,run,26.89,3.44,48.82,17.82,-3.22,0.0,-0.05,0.0,0.254,33.75,-57.3,106.96,8.96,-54.23,76.64,-34.1,-32.78,133.59,-19.86,23.12,64.6,6.06,29.79,89.38,34.72,15.91,64.86,35.0,-55.75,120.15,-2.0,-61.39,69.84,-29.0,-40.58,128.33,-25.0,24.55,76.1,-5.52,30.0,82.28,35.0,20.96,54.93,1.0,0.731,1.0,-1.0,-1.0,-1.0,1.0,-1.0,-1.0,-1.0,-0.3957,1.0,-1.0,1.0,-1.0,1.0,1.0,0.1954,0.0,0.013,0.019,0.033,0.0,0.0,0.013,0.026,0.071,0.039,0.039,0.052,0.019,0.013,0.006,0.013,0.039,0.013,0.5768,-1.3146,0.4602,0.1687,-1.2379,-0.046,-0.6029,-0.8851,0.925,-0.3267,0.0828,-0.2777,0.1289,0.1825,0.2025,0.6075,-0.0383,-0.2209,0.3003,-0.309,0.331,-0.137,0.1133,0.2413,0.0057,-0.3055,0.1914,-0.2143,0.2939,0.1375,-0.3071,0.1286,-0.2713,0.0051,0.1542,-0.3011,2.0296,0.2915,0.6343,0.1378,-0.1558,1.0,1.0,1.0,-1.0,-1.0,-1.0,1.0,-1.0,-1.0,-1.0,-0.9135,1.0,-1.0,1.0,-1.0,1.0,1.0,-0.7689,0.0,0.0,0.0,0.0,0.0,0.0,0.0,0.0,0.0,-0.3333,0.0,-0.3333,0.0,3
2.9,tail,28.55,3.44,10.8,0.49,-6.99,,0.0,0.0,0.254,34.45,-59.33,109.95,5.89,-54.4,76.64,-32.43,-34.01,130.78,-22.24,25.14,66.62,3.78,29.88,84.99,34.01,16.79,61.96,,,,,,,,,,,,,,,,,,,,,,,,,,,,,,,,,,,,,0.0,0.0,0.0,0.0,0.0,0.0,0.0,0.0,0.0,0.0,0.0,0.0,0.0,0.0,0.0,0.0,0.0,0.0,,,,,,,,,,,,,,,,,,,,,,,,,,,,,,,,,,,,,,,,,,,,,,,,,,,,,,,,,,,,,,,,,,,,,,,,,
3.0,tail,26.63,3.16,-15.91,-2.15,-1.47,,0.0,0.0,0.254,32.78,-59.15,109.95,5.36,-54.23,76.64,-32.43,-32.78,130.17,-22.24,24.43,66.62,3.87,29.97,82.44,32.26,16.79,62.49,,,,,,,,,,,,,,,,,,,,,,,,,,,,,,,,,,,,,0.0,0.0,0.0,0.0,0.0,0.0,0.006,0.0,0.0,0.0,0.0,0.0,0.0,0.0,0.0,0.0,0.0,0.0,,,,,,,,,,,,,,,,,,,,,,,,,,,,,,,,,,,,,,,,,,,,,,,,,,,,,,,,,,,,,,,,,,,,,,,,,
3.1,tail,26.97,3.45,2.18,2.69,-10.65,,0.0,0.0,0.254,31.9,-58.8,109.95,5.36,-54.23,76.64,-32.43,-32.61,130.17,-22.24,24.43,66.62,3.87,30.06,81.39,29.71,16.79,62.49,,,,,,,,,,,,,,,,,,,,,,,,,,,,,,,,,,,,,0.0,0.0,0.0,0.0,0.0,0.0,0.0,0.0,0.0,0.0,0.0,0.0,0.0,0.0,0.0,0.0,0.0,0.0,,,,,,,,,,,,,,,,,,,,,,,,,,,,,,,,,,,,,,,,,,,,,,,,,,,,,,,,,,,,,,,,,,,,,,,,,
3.2,tail,26.49,3.47,-4.6,0.33,-1.33,,0.0,0.0,0.254,31.9,-59.24,109.95,5.36,-54.23,76.64,-32.43,-32.61,130.17,-22.24,24.43,66.62,3.87,30.06,81.39,27.86,16.79,62.49,,,,,,,,,,,,,,,,,,,,,,,,,,,,,,,,,,,,,0.0,0.0,0.0,0.0,0.0,0.0,0.0,0.0,0.0,0.0,0.0,0.0,0.0,0.0,0.0,0.0,0.0,0.0,,,,,,,,,,,,,,,,,,,,,,,,,,,,,,,,,,,,,,,,,,,,,,,,,,,,,,,,,,,,,,,,,,,,,,,,,
3.3,tail,26.34,3.53,-1.66,0.73,-0.99,,0.0,0.0,0.254,31.9,-59.24,109.95,5.36,-54.23,76.64,-32.43,-32.61,130.17,-22.24,24.43,66.62,3.87,30.06,81.39,27.33,16.79,62.49,,,,,,,,,,,,,,,,,,,,,,,,,,,,,,,,,,,,,0.0,0.0,0.0,0.0,0.0,0.0,0.0,0.0,0.0,0.0,0.0,0.0,0.0,0.0,0.0,0.0,0.0,0.0,,,,,,,,,,,,,,,,,,,,,,,,,,,,,,,,,,,,,,,,,,,,,,,,,,,,,,,,,,,,,,,,,,,,,,,,,
3.4,tail,26.26,3.51,-1.26,-0.07,-0.83,,0.0,0.0,0.254,31.9,-59.24,109.95,5.36,-54.23,76.64,-32.43,-32.61,130.17,-22.24,24.43,66.62,3.87,30.06,81.39,27.33,16.79,62.49,,,,,,,,,,,,,,,,,,,,,,,,,,,,,,,,,,,,,0.0,0.0,0.0,0.0,0.0,0.0,0.0,0.0,0.0,0.0,0.0,0.0,0.0,0.0,0.0,0.0,0.0,0.0,,,,,,,,,,,,,,,,,,,,,,,,,,,,,,,,,,,,,,,,,,,,,,,,,,,,,,,,,,,,,,,,,,,,,,,,,
3.5,tail,26.34,3.46,0.05,-0.25,-0.22,,0.0,0.0,0.254,31.9,-59.24,109.95,5.36,-54.23,76.64,-32.43,-32.61,130.17,-22.24,24.43,66.62,3.87,30.06,81.39,27.33,16.79,62.49,,,,,,,,,,,,,,,,,,,,,,,,,,,,,,,,,,,,,0.0,0.0,0.0,0.0,0.0,0.0,0.0,0.0,0.0,0.0,0.0,0.0,0.0,0.0,0.0,0.0,0.0,0.0,,,,,,,,,,,,,,,,,,,,,,,,,,,,,,,,,,,,,,,,,,,,,,,,,,,,,,,,,,,,,,,,,,,,,,,,,
3.6,tail,26.45,3.44,0.3,0.01,0.09,,0.0,0.0,0.254,31.9,-59.24,109.95,5.36,-54.23,76.64,-32.43,-32.61,130.17,-22.24,24.43,66.62,3.87,30.06,81.39,27.33,16.79,62.49,,,,,,,,,,,,,,,,,,,,,,,,,,,,,,,,,,,,,0.0,0.0,0.0,0.0,0.0,0.0,0.0,0.0,0.0,0.0,0.0,0.0,0.0,0.0,0.0,0.0,0.0,0.0,,,,,,,,,,,,,,,,,,,,,,,,,,,,,,,,,,,,,,,,,,,,,,,,,,,,,,,,,,,,,,,,,,,,,,,,,
3.7,tail,26.55,3.43,0.27,0.05,0.1,,0.0,0.0,0.254,31.9,-59.24,109.95,5.36,-54.23,76.64,-32.43,-32.61,130.17,-22.24,24.43,66.62,3.87,30.06,81.39,27.33,16.79,62.49,,,,,,,,,,,,,,,,,,,,,,,,,,,,,,,,,,,,,0.0,0.0,0.0,0.0,0.0,0.0,0.0,0.0,0.0,0.0,0.0,0.0,0.0,0.0,0.0,0.0,0.0,0.0,,,,,,,,,,,,,,,,,,,,,,,,,,,,,,,,,,,,,,,,,,,,,,,,,,,,,,,,,,,,,,,,,,,,,,,,,
3.8,tail,26.63,3.4,0.09,-0.07,-0.27,,0.0,0.0,0.254,31.9,-59.24,109.95,5.36,-54.23,76.64,-32.43,-32.61,130.17,-22.24,24.43,66.62,3.87,30.06,81.39,27.33,16.79,62.49,,,,,,,,,,,,,,,,,,,,,,,,,,,,,,,,,,,,,0.0,0.0,0.0,0.0,0.0,0.0,0.0,0.0,0.0,0.0,0.0,0.0,0.0,0.0,0.0,0.0,0.0,0.0,,,,,,,,,,,,,,,,,,,,,,,,,,,,,,,,,,,,,,,,,,,,,,,,,,,,,,,,,,,,,,,,,,,,,,,,,
3.9,tail,26.69,3.38,0.05,-0.02,-0.08,,0.0,0.0,0.254,31.9,-59.24,109.95,5.36,-54.23,76.64,-32.43,-32.61,130.17,-22.24,24.43,66.62,3.87,30.06,81.39,27.33,16.79,62.49,,,,,,,,,,,,,,,,,,,,,,,,,,,,,,,,,,,,,0.0,0.0,0.0,0.0,0.0,0.0,0.0,0.0,0.0,0.0,0.0,0.0,0.0,0.0,0.0,0.0,0.0,0.0,,,,,,,,,,,,,,,,,,,,,,,,,,,,,,,,,,,,,,,,,,,,,,,,,,,,,,,,,,,,,,,,,,,,,,,,,
4.0,tail,26.75,3.37,-0.02,0.04,-0.12,,0.0,0.0,0.254,31.9,-59.24,109.95,5.36,-54.23,76.64,-32.43,-32.61,130.17,-22.24,24.43,66.62,3.87,30.06,81.39,27.33,16.79,62.49,,,,,,,,,,,,,,,,,,,,,,,,,,,,,,,,,,,,,0.0,0.0,0.0,0.0,0.0,0.0,0.0,0.0,0.0,0.0,0.0,0.0,0.0,0.0,0.0,0.0,0.0,0.0,,,,,,,,,,,,,,,,,,,,,,,,,,,,,,,,,,,,,,,,,,,,,,,,,,,,,,,,,,,,,,,,,,,,,,,,,
4.1,tail,26.8,3.36,-0.08,0.06,-0.07,,0.0,0.0,0.254,31.9,-59.24,109.95,5.36,-54.23,76.64,-32.43,-32.61,130.17,-22.24,24.43,66.62,3.87,30.06,81.39,27.33,16.79,62.49,,,,,,,,,,,,,,,,,,,,,,,,,,,,,,,,,,,,,0.0,0.0,0.0,0.0,0.0,0.0,0.0,0.0,0.0,0.0,0.0,0.0,0.0,0.0,0.0,0.0,0.0,0.0,,,,,,,,,,,,,,,,,,,,,,,,,,,,,,,,,,,,,,,,,,,,,,,,,,,,,,,,,,,,,,,,,,,,,,,,,
4.2,tail,26.86,3.35,0.0,0.04,-0.19,,0.0,0.0,0.254,31.9,-59.24,109.95,5.36,-54.23,76.64,-32.43,-32.61,130.17,-22.24,24.43,66.62,3.87,30.06,81.39,27.33,16.79,62.49,,,,,,,,,,,,,,,,,,,,,,,,,,,,,,,,,,,,,0.0,0.0,0.0,0.0,0.0,0.0,0.0,0.0,0.0,0.0,0.0,0.0,0.0,0.0,0.0,0.0,0.0,0.0,,,,,,,,,,,,,,,,,,,,,,,,,,,,,,,,,,,,,,,,,,,,,,,,,,,,,,,,,,,,,,,,,,,,,,,,,
4.3,tail,26.91,3.34,-0.09,0.07,-0.09,,0.0,0.0,0.254,31.9,-59.24,109.95,5.36,-54.23,76.64,-32.43,-32.61,130.17,-22.24,24.43,66.62,3.87,30.06,81.39,27.33,16.79,62.49,,,,,,,,,,,,,,,,,,,,,,,,,,,,,,,,,,,,,0.0,0.0,0.0,0.0,0.0,0.0,0.0,0.0,0.0,0.0,0.0,0.0,0.0,0.0,0.0,0.0,0.0,0.0,,,,,,,,,,,,,,,,,,,,,,,,,,,,,,,,,,,,,,,,,,,,,,,,,,,,,,,,,,,,,,,,,,,,,,,,,
4.4,tail,26.97,3.33,0.02,0.0,-0.1,,0.0,0.0,0.254,31.9,-59.24,109.95,5.36,-54.23,76.64,-32.43,-32.61,130.17,-22.24,24.43,66.62,3.87,30.06,81.39,27.33,16.79,62.49,,,,,,,,,,,,,,,,,,,,,,,,,,,,,,,,,,,,,0.0,0.0,0.0,0.0,0.0,0.0,0.0,0.0,0.0,0.0,0.0,0.0,0.0,0.0,0.0,0.0,0.0,0.0,,,,,,,,,,,,,,,,,,,,,,,,,,,,,,,,,,,,,,,,,,,,,,,,,,,,,,,,,,,,,,,,,,,,,,,,,
4.5,tail,27.02,3.31,-0.04,0.02,-0.09,,0.0,0.0,0.254,31.9,-59.24,109.95,5.36,-54.23,76.64,-32.43,-32.61,130.17,-22.24,24.43,66.62,3.87,30.06,81.39,27.33,16.79,62.49,,,,,,,,,,,,,,,,,,,,,,,,,,,,,,,,,,,,,0.0,0.0,0.0,0.0,0.0,0.0,0.0,0.0,0.0,0.0,0.0,0.0,0.0,0.0,0.0,0.0,0.0,0.0,,,,,,,,,,,,,,,,,,,,,,,,,,,,,,,,,,,,,,,,,,,,,,,,,,,,,,,,,,,,,,,,,,,,,,,,,
4.6,tail,27.07,3.31,-0.01,0.04,-0.13,,0.0,0.0,0.254,31.9,-59.24,109.95,5.36,-54.23,76.64,-32.43,-32.61,130.17,-22.24,24.43,66.62,3.87,30.06,81.39,27.33,16.79,62.49,,,,,,,,,,,,,,,,,,,,,,,,,,,,,,,,,,,,,0.0,0.0,0.0,0.0,0.0,0.0,0.0,0.0,0.0,0.0,0.0,0.0,0.0,0.0,0.0,0.0,0.0,0.0,,,,,,,,,,,,,,,,,,,,,,,,,,,,,,,,,,,,,,,,,,,,,,,,,,,,,,,,,,,,,,,,,,,,,,,,,
4.7,tail,27.12,3.3,-0.04,0.05,-0.1,,0.0,0.0,0.254,31.9,-59.24,109.95,5.36,-54.23,76.64,-32.43,-32.61,130.17,-22.24,24.43,66.62,3.87,30.06,81.39,27.33,16.79,62.49,,,,,,,,,,,,,,,,,,,,,,,,,,,,,,,,,,,,,0.0,0.0,0.0,0.0,0.0,0.0,0.0,0.0,0.0,0.0,0.0,0.0,0.0,0.0,0.0,0.0,0.0,0.0,,,,,,,,,,,,,,,,,,,,,,,,,,,,,,,,,,,,,,,,,,,,,,,,,,,,,,,,,,,,,,,,,,,,,,,,,
4.8,tail,27.17,3.28,-0.01,0.01,-0.11,,0.0,0.0,0.254,31.9,-59.24,109.95,5.36,-54.23,76.64,-32.43,-32.61,130.17,-22.24,24.43,66.62,3.87,30.06,81.39,27.33,16.79,62.49,,,,,,,,,,,,,,,,,,,,,,,,,,,,,,,,,,,,,0.0,0.0,0.0,0.0,0.0,0.0,0.0,0.0,0.0,0.0,0.0,0.0,0.0,0.0,0.0,0.0,0.0,0.0,,,,,,,,,,,,,,,,,,,,,,,,,,,,,,,,,,,,,,,,,,,,,,,,,,,,,,,,,,,,,,,,,,,,,,,,,
4.9,tail,27.23,3.28,0.02,0.05,-0.07,,0.0,0.0,0.254,31.9,-59.24,109.95,5.36,-54.23,76.64,-32.43,-32.61,130.17,-22.24,24.43,66.62,3.87,30.06,81.39,27.33,16.79,62.49,,,,,,,,,,,,,,,,,,,,,,,,,,,,,,,,,,,,,0.0,0.0,0.0,0.0,0.0,0.0,0.0,0.0,0.0,0.0,0.0,0.0,0.0,0.0,0.0,0.0,0.0,0.0,,,,,,,,,,,,,,,,,,,,,,,,,,,,,,,,,,,,,,,,,,,,,,,,,,,,,,,,,,,,,,,,,,,,,,,,,
5.0,tail,27.27,3.27,-0.02,0.05,-0.12,,0.0,0.0,0.254,31.9,-59.24,109.95,5.36,-54.23,76.64,-32.43,-32.61,130.17,-22.24,24.43,66.62,3.87,30.06,81.39,27.33,16.79,62.49,,,,,,,,,,,,,,,,,,,,,,,,,,,,,,,,,,,,,0.0,0.0,0.0,0.0,0.0,0.0,0.0,0.0,0.0,0.0,0.0,0.0,0.0,0.0,0.0,0.0,0.0,0.0,,,,,,,,,,,,,,,,,,,,,,,,,,,,,,,,,,,,,,,,,,,,,,,,,,,,,,,,,,,,,,,,,,,,,,,,,
5.1,tail,27.32,3.26,-0.03,0.03,-0.14,,0.0,0.0,0.254,31.9,-59.24,109.95,5.36,-54.23,76.64,-32.43,-32.61,130.17,-22.24,24.43,66.62,3.87,30.06,81.39,27.33,16.79,62.49,,,,,,,,,,,,,,,,,,,,,,,,,,,,,,,,,,,,,0.0,0.0,0.0,0.0,0.0,0.0,0.0,0.0,0.0,0.0,0.0,0.0,0.0,0.0,0.0,0.0,0.0,0.0,,,,,,,,,,,,,,,,,,,,,,,,,,,,,,,,,,,,,,,,,,,,,,,,,,,,,,,,,,,,,,,,,,,,,,,,,
5.2,tail,27.36,3.25,-0.04,-0.0,-0.17,,0.0,0.0,0.254,31.9,-59.24,109.95,5.36,-54.23,76.64,-32.43,-32.61,130.17,-22.24,24.43,66.62,3.87,30.06,81.39,27.33,16.79,62.49,,,,,,,,,,,,,,,,,,,,,,,,,,,,,,,,,,,,,0.0,0.0,0.0,0.0,0.0,0.0,0.0,0.0,0.0,0.0,0.0,0.0,0.0,0.0,0.0,0.0,0.0,0.0,,,,,,,,,,,,,,,,,,,,,,,,,,,,,,,,,,,,,,,,,,,,,,,,,,,,,,,,,,,,,,,,,,,,,,,,,
5.3,tail,27.41,3.24,0.02,0.0,-0.13,,0.0,0.0,0.254,31.9,-59.24,109.95,5.36,-54.23,76.64,-32.43,-32.61,130.17,-22.24,24.43,66.62,3.87,30.06,81.39,27.33,16.79,62.49,,,,,,,,,,,,,,,,,,,,,,,,,,,,,,,,,,,,,0.0,0.0,0.0,0.0,0.0,0.0,0.0,0.0,0.0,0.0,0.0,0.0,0.0,0.0,0.0,0.0,0.0,0.0,,,,,,,,,,,,,,,,,,,,,,,,,,,,,,,,,,,,,,,,,,,,,,,,,,,,,,,,,,,,,,,,,,,,,,,,,
5.4,tail,27.45,3.23,0.0,0.02,-0.13,,0.0,0.0,0.254,31.9,-59.24,109.95,5.36,-54.23,76.64,-32.43,-32.61,130.17,-22.24,24.43,66.62,3.87,30.06,81.39,27.33,16.79,62.49,,,,,,,,,,,,,,,,,,,,,,,,,,,,,,,,,,,,,0.0,0.0,0.0,0.0,0.0,0.0,0.0,0.0,0.0,0.0,0.0,0.0,0.0,0.0,0.0,0.0,0.0,0.0,,,,,,,,,,,,,,,,,,,,,,,,,,,,,,,,,,,,,,,,,,,,,,,,,,,,,,,,,,,,,,,,,,,,,,,,,
5.5,tail,27.49,3.22,-0.01,0.04,-0.15,,0.0,0.0,0.254,31.9,-59.24,109.95,5.36,-54.23,76.64,-32.43,-32.61,130.17,-22.24,24.43,66.62,3.87,30.06,81.39,27.33,16.79,62.49,,,,,,,,,,,,,,,,,,,,,,,,,,,,,,,,,,,,,0.0,0.0,0.0,0.0,0.0,0.0,0.0,0.0,0.0,0.0,0.0,0.0,0.0,0.0,0.0,0.0,0.0,0.0,,,,,,,,,,,,,,,,,,,,,,,,,,,,,,,,,,,,,,,,,,,,,,,,,,,,,,,,,,,,,,,,,,,,,,,,,
5.6,tail,27.54,3.2,0.01,0.01,-0.12,,0.0,0.0,0.254,31.9,-59.24,109.95,5.36,-54.23,76.64,-32.43,-32.61,130.17,-22.24,24.43,66.62,3.87,30.06,81.39,27.33,16.79,62.49,,,,,,,,,,,,,,,,,,,,,,,,,,,,,,,,,,,,,0.0,0.0,0.0,0.0,0.0,0.0,0.0,0.0,0.0,0.0,0.0,0.0,0.0,0.0,0.0,0.0,0.0,0.0,,,,,,,,,,,,,,,,,,,,,,,,,,,,,,,,,,,,,,,,,,,,,,,,,,,,,,,,,,,,,,,,,,,,,,,,,
5.7,tail,27.58,3.2,-0.03,0.06,-0.13,,0.0,0.0,0.254,31.9,-59.24,109.95,5.36,-54.23,76.64,-32.43,-32.61,130.17,-22.24,24.43,66.62,3.87,30.06,81.39,27.33,16.79,62.49,,,,,,,,,,,,,,,,,,,,,,,,,,,,,,,,,,,,,0.0,0.0,0.0,0.0,0.0,0.0,0.0,0.0,0.0,0.0,0.0,0.0,0.0,0.0,0.0,0.0,0.0,0.0,,,,,,,,,,,,,,,,,,,,,,,,,,,,,,,,,,,,,,,,,,,,,,,,,,,,,,,,,,,,,,,,,,,,,,,,,
5.8,tail,27.62,3.19,-0.04,0.02,-0.1,,0.0,0.0,0.254,31.9,-59.24,109.95,5.36,-54.23,76.64,-32.43,-32.61,130.17,-22.24,24.43,66.62,3.87,30.06,81.39,27.33,16.79,62.49,,,,,,,,,,,,,,,,,,,,,,,,,,,,,,,,,,,,,0.0,0.0,0.0,0.0,0.0,0.0,0.0,0.0,0.0,0.0,0.0,0.0,0.0,0.0,0.0,0.0,0.0,0.0,,,,,,,,,,,,,,,,,,,,,,,,,,,,,,,,,,,,,,,,,,,,,,,,,,,,,,,,,,,,,,,,,,,,,,,,,
