t_s,phase,roll_deg,pitch_deg,gyro_x_dps,gyro_y_dps,gyro_z_dps,height_ref_mm,vx_ref_mps,vy_ref_mps,max_cur_a,q0_deg,q1_deg,q2_deg,q3_deg,q4_deg,q5_deg,q6_deg,q7_deg,q8_deg,q9_deg,q10_deg,q11_deg,q12_deg,q13_deg,q14_deg,q15_deg,q16_deg,q17_deg,cmd0_deg,cmd1_deg,cmd2_deg,cmd3_deg,cmd4_deg,cmd5_deg,cmd6_deg,cmd7_deg,cmd8_deg,cmd9_deg,cmd10_deg,cmd11_deg,cmd12_deg,cmd13_deg,cmd14_deg,cmd15_deg,cmd16_deg,cmd17_deg,act0,act1,act2,act3,act4,act5,act6,act7,act8,act9,act10,act11,act12,act13,act14,act15,act16,act17,cur0_a,cur1_a,cur2_a,cur3_a,cur4_a,cur5_a,cur6_a,cur7_a,cur8_a,cur9_a,cur10_a,cur11_a,cur12_a,cur13_a,cur14_a,cur15_a,cur16_a,cur17_a,obs0,obs1,obs2,obs3,obs4,obs5,obs6,obs7,obs8,obs9,obs10,obs11,obs12,obs13,obs14,obs15,obs16,obs17,obs18,obs19,obs20,obs21,obs22,obs23,obs24,obs25,obs26,obs27,obs28,obs29,obs30,obs31,obs32,obs33,obs34,obs35,obs36,obs37,obs38,obs39,obs40,obs41,obs42,obs43,obs44,obs45,obs46,obs47,obs48,obs49,obs50,obs51,obs52,obs53,obs54,obs55,obs56,obs57,obs58,obs59,obs60,obs61,obs62,obs63,obs64,obs65,obs66,obs67,obs68,obs69,obs70,obs71,rot60_k
0.0,run,0.14,4.42,0.99,0.13,-1.13,0.0,0.0,0.0,0.019,-0.09,19.69,79.28,0.44,17.05,78.93,0.0,19.51,82.0,0.09,17.58,79.37,-0.09,19.16,79.45,-0.09,17.14,79.8,-1.59,18.19,77.78,-1.06,15.55,80.25,1.5,18.01,83.24,1.59,16.25,80.69,-1.59,17.66,77.95,-1.59,15.9,81.04,-0.9119,-1.0,-0.3628,-1.0,-1.0,1.0,1.0,-1.0,1.0,1.0,-1.0,1.0,-0.2822,-1.0,-0.5782,-1.0,-1.0,1.0,0.013,0.006,0.006,0.006,0.006,0.0,0.0,0.019,0.0,0.006,0.006,0.0,0.013,0.019,0.013,0.013,0.0,0.0,0.0,0.0,0.0,0.0,0.0,0.0031,0.0,0.0,0.0,0.0,-0.0015,0.0031,0.0,0.0031,0.0,0.0,-0.0015,0.0,0.0,0.0,0.0,0.0,0.0,0.007,0.0,0.0,0.0,0.0,-0.0038,0.0076,0.0,0.007,0.0,0.0,-0.0038,0.0,0.0,0.0,-0.0057,0.0033,-0.0002,0.0,0.0,0.0,0.0,0.0,0.0,0.0,0.0,0.0,0.0,0.0,0.0,0.0,0.0,0.0,0.0,0.0,0.0,0.0,0.0,0.0,0.0,0.0,0.0,0.0,0.0,0.0,0.0,0.0,0.0,0.0,0
0.04,run,0.06,4.41,-1.32,-0.26,-2.13,0.0,0.0,0.0,0.019,-0.35,19.6,79.28,0.44,16.96,79.01,0.0,19.34,82.53,0.18,17.67,79.54,-0.18,18.98,79.19,-0.35,16.96,80.07,-3.09,19.69,79.28,-2.56,14.05,81.75,0.0,16.51,81.74,3.09,14.75,82.19,-3.09,16.88,79.45,-3.09,14.4,82.54,-1.0,1.0,1.0,-1.0,-1.0,1.0,-1.0,-1.0,-1.0,1.0,-1.0,1.0,-1.0,0.7614,1.0,-1.0,-1.0,1.0,0.013,0.006,0.006,0.006,0.006,0.0,0.0,0.019,0.0,0.006,0.006,0.0,0.013,0.019,0.013,0.013,0.0,0.0,0.0,0.0,0.0,0.0,0.0,0.0031,0.0,0.0,0.0046,0.0,-0.0031,0.0031,0.0,0.0,0.0,0.0,-0.0046,0.0046,0.0,0.0,0.0,0.0,0.0,0.0049,0.0,0.0,0.0076,0.0,-0.0052,0.0053,0.0,-0.0002,0.0,0.0,-0.0077,0.0076,0.0071,0.0014,0.0173,0.0022,-0.0197,-0.9119,-1.0,-0.3628,-1.0,-1.0,1.0,1.0,-1.0,1.0,1.0,-1.0,1.0,-0.2822,-1.0,-0.5782,-1.0,-1.0,1.0,0.0,0.0,0.0,0.0,0.0,0.0,0.0,0.0,0.0,0.0,0.0,0.0,0.0,0
0.08,run,-0.21,4.42,-6.69,-0.01,-1.03,0.0,0.0,0.0,0.019,-1.23,19.07,78.75,-0.09,16.44,79.63,0.18,18.63,83.23,1.14,16.88,80.33,-1.23,18.28,78.49,-1.32,16.44,80.68,-1.59,18.19,80.78,-4.06,12.55,83.25,-1.5,18.01,83.24,4.59,13.25,83.69,-4.59,18.38,80.95,-4.59,12.9,84.04,0.1603,0.5033,0.2503,-1.0,-1.0,0.5743,-1.0,1.0,1.0,1.0,-1.0,1.0,-1.0,1.0,1.0,-1.0,-1.0,1.0,0.013,0.006,0.006,0.006,0.006,0.0,0.0,0.019,0.0,0.006,0.006,0.0,0.013,0.019,0.013,0.013,0.0,0.0,-0.0046,-0.0015,0.0,0.0,-0.0015,0.0046,0.0,-0.0031,0.0138,0.0015,-0.0015,0.0061,-0.0015,-0.0031,-0.0046,-0.0046,-0.0077,0.0092,-0.0173,-0.0058,0.0,0.0,-0.0058,0.0092,0.0,-0.0115,0.0399,0.0058,0.0021,0.0152,-0.0058,-0.0116,-0.0173,-0.0173,-0.0169,0.0226,0.0006,0.0004,-0.023,-0.0045,-0.0373,-1.0,1.0,1.0,-1.0,-1.0,1.0,-1.0,-1.0,-1.0,1.0,-1.0,1.0,-1.0,0.7614,1.0,-1.0,-1.0,1.0,0.0,0.0,0.0,0.0,0.0,0.0,0.0,0.0,0.0,0.0,0.0,0.0,0.0,0
0.12,run,-0.3,4.47,-2.26,0.75,-1.95,0.0,0.0,0.0,0.026,-1.93,18.63,78.4,-0.97,15.82,80.68,0.79,18.11,83.5,2.02,16.08,81.21,-2.02,17.67,78.31,-2.2,15.64,81.47,-3.09,19.69,82.28,-5.56,11.05,84.75,-3.0,19.51,84.74,6.09,11.75,85.19,-3.09,16.88,79.45,-6.09,11.4,85.54,-1.0,1.0,0.3476,-1.0,-1.0,1.0,-1.0,1.0,1.0,1.0,-1.0,0.9723,0.3575,-0.2986,-1.0,-1.0,-1.0,1.0,0.006,0.0,0.0,0.019,0.026,0.013,0.0,0.019,0.006,0.026,0.019,0.019,0.013,0.013,0.0,0.019,0.006,0.0,-0.0199,-0.0107,-0.0092,-0.0092,-0.0107,0.0153,0.0031,-0.0153,0.0261,0.0184,-0.0153,0.0199,-0.0199,-0.0153,-0.0169,-0.0215,-0.0169,0.0199,-0.0694,-0.0384,-0.0344,-0.0344,-0.0384,0.0465,0.0115,-0.0539,0.0738,0.0671,-0.0501,0.0622,-0.0728,-0.054,-0.0579,-0.0751,-0.0462,0.0559,-0.0235,0.0013,-0.1168,-0.0002,-0.0179,0.1603,0.5033,0.2503,-1.0,-1.0,0.5743,-1.0,1.0,1.0,1.0,-1.0,1.0,-1.0,1.0,1.0,-1.0,-1.0,1.0,0.0,0.0,0.0,0.0,0.0,0.0,0.0,0.0,0.0,0.0,0.0,0.0,0.0,0
0.16,run,-0.4,4.67,-1.68,5.68,-3.76,0.0,0.0,0.0,0.026,-2.46,17.93,78.49,-2.11,14.59,81.91,0.79,17.75,83.85,3.16,15.38,82.18,-2.99,17.14,78.66,-3.34,14.41,82.71,-4.59,21.19,80.78,-7.06,9.55,86.25,-4.5,18.01,83.24,7.59,10.25,86.69,-4.59,18.38,80.95,-7.59,9.9,87.04,-1.0,1.0,0.0803,-1.0,-0.4842,1.0,-0.5761,-0.472,-0.2934,1.0,-1.0,1.0,-0.5751,1.0,1.0,-1.0,-1.0,1.0,0.006,0.0,0.0,0.019,0.026,0.013,0.0,0.019,0.006,0.026,0.019,0.019,0.013,0.013,0.0,0.019,0.006,0.0,-0.0322,-0.0184,-0.0153,-0.0245,-0.0215,0.0337,0.0138,-0.0245,0.0307,0.0337,-0.0291,0.0353,-0.0337,-0.0261,-0.0199,-0.0368,-0.0307,0.0337,-0.0947,-0.0557,-0.0471,-0.0817,-0.0672,0.1017,0.0483,-0.0723,0.0689,0.1045,-0.0869,0.1012,-0.1028,-0.0781,-0.0521,-0.1102,-0.0842,0.091,-0.0314,0.0058,-0.0394,0.0131,-0.0341,-1.0,1.0,0.3476,-1.0,-1.0,1.0,-1.0,1.0,1.0,1.0,-1.0,0.9723,0.3575,-0.2986,-1.0,-1.0,-1.0,1.0,0.0,0.0,0.0,0.0,0.0,0.0,0.0,0.0,0.0,0.0,0.0,0.0,0.0,0
0.2,run,-0.74,4.71,-10.05,0.4,-9.17,0.0,0.0,0.0,0.026,-3.08,18.28,78.75,-3.43,13.36,83.23,0.79,17.75,84.55,4.48,13.62,83.67,-3.69,17.05,79.1,-4.75,13.18,83.85,-6.09,22.69,82.28,-8.56,8.05,87.75,-6.0,19.51,84.74,9.09,8.75,88.19,-6.09,16.88,82.45,-9.09,8.4,88.54,-0.5881,1.0,1.0,-1.0,-1.0,1.0,-1.0,1.0,1.0,1.0,-1.0,1.0,-0.6511,0.2901,1.0,-1.0,-1.0,1.0,0.006,0.0,0.0,0.019,0.026,0.013,0.0,0.019,0.006,0.026,0.019,0.019,0.013,0.013,0.0,0.019,0.006,0.0,-0.0414,-0.0307,-0.0138,-0.0445,-0.043,0.0552,0.0138,-0.0307,0.0368,0.0537,-0.0414,0.0522,-0.0506,-0.0353,-0.0138,-0.0568,-0.0522,0.0552,-0.101,-0.0853,-0.0272,-0.1324,-0.128,0.1522,0.0338,-0.0737,0.0714,0.1484,-0.1071,0.1344,-0.1356,-0.0894,-0.0133,-0.1523,-0.1399,0.1447,-0.0396,0.023,-0.0293,0.0991,-0.0656,-1.0,1.0,0.0803,-1.0,-0.4842,1.0,-0.5761,-0.472,-0.2934,1.0,-1.0,1.0,-0.5751,1.0,1.0,-1.0,-1.0,1.0,0.0,0.0,0.0,0.0,0.0,0.0,0.0,0.0,0.0,0.0,0.0,0.0,0.0,0
0.24,run,-0.87,4.81,-4.75,3.42,-19.37,0.0,0.0,0.0,0.033,-3.87,18.81,79.72,-4.83,12.04,84.55,-0.26,18.19,84.9,5.8,12.66,84.99,-4.57,16.96,80.16,-6.15,11.95,85.08,-7.59,24.19,80.78,-10.06,6.55,89.25,-7.5,21.01,86.24,10.59,7.25,89.69,-7.59,15.38,80.95,-10.59,6.9,90.04,-1.0,1.0,-0.1943,-1.0,-0.2135,1.0,-1.0,1.0,1.0,1.0,-1.0,0.7559,-0.4989,-1.0,-1.0,-1.0,-1.0,1.0,0.019,0.033,0.006,0.019,0.026,0.013,0.019,0.013,0.0,0.013,0.013,0.013,0.013,0.006,0.013,0.006,0.006,0.0,-0.0522,-0.0245,-0.0092,-0.0675,-0.0644,0.0782,0.0138,-0.0307,0.0491,0.0767,-0.0721,0.0782,-0.0629,-0.0368,-0.0061,-0.0813,-0.0736,0.0752,-0.1107,-0.0368,-0.0019,-0.1784,-0.1696,0.1922,0.0237,-0.0516,0.0957,0.1896,-0.1893,0.1913,-0.1406,-0.0683,0.0193,-0.1981,-0.1779,0.1756,-0.0693,0.0263,-0.1755,0.007,-0.16,-0.5881,1.0,1.0,-1.0,-1.0,1.0,-1.0,1.0,1.0,1.0,-1.0,1.0,-0.6511,0.2901,1.0,-1.0,-1.0,1.0,0.0,0.0,0.0,0.0,0.0,0.0,0.0,0.0,0.0,0.0,0.0,0.0,0.0,0
0.28,run,-1.21,4.85,-10.13,1.18,-25.94,0.0,0.0,0.0,0.033,-5.01,19.6,80.6,-6.15,10.63,85.96,-1.41,18.9,85.34,7.21,11.07,86.31,-5.62,16.7,81.04,-7.65,10.63,86.4,-9.09,25.69,82.28,-11.56,5.05,90.75,-9.0,19.51,84.74,12.09,5.75,91.19,-9.09,13.88,82.45,-12.09,5.4,91.54,-1.0,1.0,1.0,-1.0,0.5448,1.0,-1.0,-1.0,-1.0,1.0,-1.0,1.0,-1.0,-0.4285,1.0,-1.0,-1.0,1.0,0.019,0.033,0.006,0.019,0.026,0.013,0.019,0.013,0.0,0.013,0.013,0.013,0.013,0.006,0.013,0.006,0.006,0.0,-0.066,-0.0153,0.0077,-0.092,-0.0874,0.1012,-0.0046,-0.023,0.0552,0.0997,-0.089,0.1012,-0.0782,-0.0383,0.0123,-0.1058,-0.0951,0.0966,-0.1293,0.0088,0.062,-0.217,-0.2051,0.221,-0.0525,-0.0073,0.09,0.2191,-0.1958,0.2203,-0.156,-0.0536,0.0826,-0.2308,-0.2052,0.2035,-0.081,0.035,-0.0829,0.0596,-0.3381,-1.0,1.0,-0.1943,-1.0,-0.2135,1.0,-1.0,1.0,1.0,1.0,-1.0,0.7559,-0.4989,-1.0,-1.0,-1.0,-1.0,1.0,0.0,0.0,0.0,0.0,0.0,0.0,0.0,0.0,0.0,0.0,0.0,0.0,0.0,0
0.32,run,-1.43,4.75,-6.69,-3.03,-19.62,0.0,0.0,0.0,0.033,-6.24,20.57,81.39,-7.56,9.23,87.36,-2.72,19.69,85.96,8.61,9.76,87.8,-6.77,15.82,82.18,-8.88,9.32,87.71,-7.59,24.19,80.78,-13.06,3.55,89.25,-10.5,21.01,86.24,13.59,4.25,92.69,-10.59,12.38,83.95,-13.59,3.9,93.04,0.3546,-0.1723,-0.7809,-1.0,0.3674,-1.0,-1.0,1.0,1.0,1.0,-1.0,1.0,-1.0,-1.0,1.0,-1.0,-1.0,1.0,0.019,0.033,0.006,0.019,0.026,0.013,0.019,0.013,0.0,0.013,0.013,0.013,0.013,0.006,0.013,0.006,0.006,0.0,-0.0859,-0.0015,0.023,-0.115,-0.112,0.1258,-0.0245,-0.0107,0.0629,0.1243,-0.1166,0.1243,-0.0966,-0.043,0.0276,-0.1319,-0.1181,0.1197,-0.1652,0.0579,0.1009,-0.2381,-0.2356,0.2466,-0.1115,0.0409,0.0917,0.2453,-0.2406,0.2404,-0.1782,-0.0547,0.1153,-0.2593,-0.2299,0.2287,-0.1104,0.0386,-0.1768,0.0206,-0.4528,-1.0,1.0,1.0,-1.0,0.5448,1.0,-1.0,-1.0,-1.0,1.0,-1.0,1.0,-1.0,-0.4285,1.0,-1.0,-1.0,1.0,0.0,0.0,0.0,0.0,0.0,0.0,0.0,0.0,0.0,0.0,0.0,0.0,0.0,0
0.36,run,-1.7,4.55,-6.47,-5.08,-12.01,0.0,0.0,0.0,0.065,-7.29,21.62,81.74,-8.88,8.0,88.59,-4.04,20.57,86.31,10.02,8.35,89.21,-8.0,14.94,82.62,-10.37,8.44,88.95,-9.09,22.69,82.28,-14.56,2.05,90.75,-12.0,19.51,87.74,15.09,2.75,94.19,-12.09,10.88,85.45,-15.09,2.4,94.54,-1.0,-0.132,0.7054,-1.0,0.2609,1.0,-1.0,-1.0,1.0,1.0,-1.0,1.0,-1.0,-0.0747,1.0,-1.0,-1.0,1.0,0.013,0.065,0.0,0.019,0.026,0.006,0.019,0.006,0.0,0.019,0.019,0.013,0.013,0.0,0.006,0.006,0.039,0.006,-0.1074,0.0153,0.0368,-0.1396,-0.1365,0.1503,-0.0476,0.0031,0.0736,0.1488,-0.1396,0.1503,-0.1166,-0.0583,0.0476,-0.1534,-0.1411,0.1427,-0.1959,0.1035,0.1222,-0.2584,-0.2566,0.2643,-0.164,0.0802,0.1043,0.2634,-0.2543,0.2657,-0.1992,-0.0956,0.1552,-0.2617,-0.2468,0.246,-0.1297,0.0299,-0.1168,-0.053,-0.3425,0.3546,-0.1723,-0.7809,-1.0,0.3674,-1.0,-1.0,1.0,1.0,1.0,-1.0,1.0,-1.0,-1.0,1.0,-1.0,-1.0,1.0,0.0,0.0,0.0,0.0,0.0,0.0,0.0,0.0,0.0,0.0,0.0,0.0,0.0,0
0.4,run,-2.42,4.51,-17.7,-0.78,-10.2,0.0,0.0,0.0,0.065,-8.09,22.59,81.47,-10.28,6.5,89.65,-5.54,20.74,86.57,11.43,6.94,90.53,-9.23,13.45,83.85,-11.78,6.94,90.35,-10.59,21.19,80.78,-16.06,3.55,89.25,-13.5,18.01,89.24,16.59,1.25,95.69,-13.59,9.38,86.95,-16.59,0.9,96.04,-1.0,-1.0,-0.762,-1.0,0.9659,-1.0,-1.0,-0.7086,0.6954,1.0,-1.0,1.0,-1.0,-0.8997,1.0,-1.0,-1.0,0.492,0.013,0.065,0.0,0.019,0.026,0.006,0.019,0.006,0.0,0.019,0.019,0.013,0.013,0.0,0.006,0.006,0.039,0.006,-0.1258,0.0337,0.043,-0.1626,-0.158,0.1718,-0.0706,0.0184,0.0798,0.1733,-0.1641,0.1749,-0.1381,-0.0736,0.0552,-0.1795,-0.1565,0.1641,-0.2063,0.1417,0.1086,-0.2674,-0.2604,0.2658,-0.2013,0.1138,0.0961,0.2767,-0.2703,0.2783,-0.2202,-0.1246,0.1375,-0.2813,-0.2305,0.253,-0.1529,0.0131,-0.1128,-0.0887,-0.2095,-1.0,-0.132,0.7054,-1.0,0.2609,1.0,-1.0,-1.0,1.0,1.0,-1.0,1.0,-1.0,-0.0747,1.0,-1.0,-1.0,1.0,0.0,0.0,0.0,0.0,0.0,0.0,0.0,0.0,0.0,0.0,0.0,0.0,0.0,0
0.44,run,-2.79,4.32,-7.33,-4.6,-7.04,0.0,0.0,0.0,0.065,-8.79,23.29,81.74,-11.69,5.19,90.26,-6.86,20.83,87.19,12.66,5.54,92.02,-10.46,12.22,84.81,-13.18,5.45,91.67,-12.09,19.69,82.28,-17.56,5.05,87.75,-15.0,16.51,90.74,18.09,-0.25,97.19,-15.09,7.88,88.45,-18.09,-0.6,97.54,-1.0,-1.0,0.4056,-1.0,1.0,-0.3026,-1.0,-1.0,1.0,1.0,-1.0,1.0,-1.0,-1.0,1.0,-1.0,-1.0,0.5532,0.013,0.065,0.0,0.019,0.026,0.006,0.019,0.006,0.0,0.019,0.019,0.013,0.013,0.0,0.006,0.006,0.039,0.006,-0.1396,0.0506,0.0383,-0.1871,-0.1841,0.1902,-0.0966,0.0215,0.0844,0.1979,-0.1887,0.1979,-0.1595,-0.0997,0.0767,-0.204,-0.1825,0.1887,-0.1963,0.1626,0.0587,-0.2794,-0.2802,0.2552,-0.2389,0.0912,0.0846,0.2859,-0.2814,0.2812,-0.2348,-0.1852,0.1769,-0.2891,-0.2593,0.2693,-0.2161,0.009,-0.309,-0.0137,-0.178,-1.0,-1.0,-0.762,-1.0,0.9659,-1.0,-1.0,-0.7086,0.6954,1.0,-1.0,1.0,-1.0,-0.8997,1.0,-1.0,-1.0,0.492,0.0,0.0,0.0,0.0,0.0,0.0,0.0,0.0,0.0,0.0,0.0,0.0,0.0,0
0.48,run,-3.33,4.13,-11.13,-5.2,-9.2,0.0,0.0,0.0,0.065,-9.67,23.73,81.74,-13.18,4.13,90.62,-8.26,20.3,88.07,13.97,4.04,93.43,-11.87,10.81,86.22,-14.5,4.04,93.16,-13.59,18.19,80.78,-19.06,6.55,86.25,-16.5,15.01,92.24,19.59,-1.75,98.69,-16.59,6.38,89.95,-19.59,-2.1,96.04,-1.0,-1.0,-0.351,-1.0,1.0,-1.0,-1.0,-1.0,1.0,1.0,-1.0,1.0,-1.0,-0.6017,1.0,-1.0,-1.0,-1.0,0.033,0.065,0.0,0.013,0.013,0.0,0.026,0.013,0.0,0.033,0.006,0.006,0.019,0.0,0.0,0.006,0.033,0.006,-0.1519,0.0629,0.043,-0.2117,-0.2071,0.201,-0.1197,0.023,0.0951,0.2194,-0.2132,0.224,-0.181,-0.1212,0.0936,-0.2286,-0.2086,0.2117,-0.1832,0.1596,0.0583,-0.2872,-0.282,0.2187,-0.2531,0.0696,0.0993,0.2803,-0.2886,0.2942,-0.2445,-0.2098,0.1868,-0.294,-0.2788,0.2744,-0.2485,-0.0072,-0.1279,-0.0803,-0.1229,-1.0,-1.0,0.4056,-1.0,1.0,-0.3026,-1.0,-1.0,1.0,1.0,-1.0,1.0,-1.0,-1.0,1.0,-1.0,-1.0,0.5532,0.0,0.0,0.0,0.0,0.0,0.0,0.0,0.0,0.0,0.0,0.0,0.0,0.0,0
0.52,run,-3.7,3.96,-8.26,-4.7,-12.31,0.0,0.0,0.0,0.065,-10.9,23.73,81.91,-14.59,3.25,90.44,-9.67,19.34,89.21,15.29,2.55,94.83,-13.18,9.4,87.45,-16.0,2.55,94.39,-15.09,16.69,79.28,-20.56,8.05,84.75,-18.0,13.51,93.74,21.09,-3.25,100.19,-18.09,4.88,91.45,-18.09,-3.6,94.54,-1.0,-1.0,-0.399,-1.0,1.0,-1.0,-1.0,0.2598,1.0,1.0,-1.0,0.8235,-1.0,-1.0,1.0,-0.2261,-1.0,-1.0,0.033,0.065,0.0,0.013,0.013,0.0,0.026,0.013,0.0,0.033,0.006,0.006,0.019,0.0,0.0,0.006,0.033,0.006,-0.1672,0.0706,0.043,-0.2378,-0.2255,0.2071,-0.1442,0.0138,0.1104,0.2424,-0.2393,0.2485,-0.2056,-0.1457,0.1181,-0.2516,-0.2332,0.2378,-0.1858,0.1405,0.0408,-0.2989,-0.2665,0.1761,-0.2693,0.0142,0.1271,0.2825,-0.2999,0.298,-0.2633,-0.239,0.2229,-0.2921,-0.2873,0.2899,-0.2952,-0.0239,-0.1942,-0.0908,-0.1606,-1.0,-1.0,-0.351,-1.0,1.0,-1.0,-1.0,-1.0,1.0,1.0,-1.0,1.0,-1.0,-0.6017,1.0,-1.0,-1.0,-1.0,0.0,0.0,0.0,0.0,0.0,0.0,0.0,0.0,0.0,0.0,0.0,0.0,0.0,0
0.56,run,-3.95,3.75,-5.63,-6.13,-17.16,0.0,0.0,0.0,0.065,-12.13,23.73,82.0,-16.0,2.72,90.09,-11.07,18.28,90.53,16.7,0.88,96.33,-14.59,8.0,88.59,-17.4,1.23,95.62,-16.59,15.19,77.78,-22.06,9.55,83.25,-19.5,12.01,95.24,22.59,-4.75,101.69,-19.59,3.38,92.95,-16.59,-5.1,93.04,-1.0,-1.0,0.0983,-1.0,1.0,-1.0,-1.0,-0.6821,1.0,1.0,-0.9954,1.0,-1.0,-1.0,1.0,1.0,-1.0,-1.0,0.033,0.065,0.0,0.013,0.013,0.0,0.026,0.013,0.0,0.033,0.006,0.006,0.019,0.0,0.0,0.006,0.033,0.006,-0.1887,0.0706,0.046,-0.2623,-0.2408,0.204,-0.1687,-0.0031,0.1304,0.2654,-0.2654,0.273,-0.2286,-0.1703,0.1396,-0.2777,-0.2592,0.2592,-0.211,0.0984,0.0401,-0.3017,-0.2443,0.1117,-0.281,-0.0537,0.1641,0.2845,-0.3082,0.3011,-0.271,-0.2597,0.2369,-0.3027,-0.2993,0.2839,-0.3283,-0.0391,-0.1441,-0.082,-0.2149,-1.0,-1.0,-0.399,-1.0,1.0,-1.0,-1.0,0.2598,1.0,1.0,-1.0,0.8235,-1.0,-1.0,1.0,-0.2261,-1.0,-1.0,0.0,0.0,0.0,0.0,0.0,0.0,0.0,0.0,0.0,0.0,0.0,0.0,0.0,0
0.6,run,-4.2,3.67,-7.54,-3.49,-18.14,0.0,0.0,0.0,0.065,-13.54,23.64,80.95,-17.4,2.55,89.21,-12.48,16.88,91.85,18.11,-0.35,97.65,-16.0,6.59,90.0,-18.37,-0.09,96.42,-18.09,13.69,76.28,-23.56,11.05,81.75,-21.0,13.51,96.74,24.09,-6.25,103.19,-21.09,1.88,94.45,-15.09,-6.6,91.54,-1.0,-1.0,0.0543,-1.0,1.0,-1.0,-1.0,1.0,1.0,1.0,-0.6746,0.8288,-1.0,0.123,1.0,1.0,-1.0,-1.0,0.013,0.0,0.019,0.013,0.0,0.013,0.026,0.006,0.0,0.033,0.013,0.006,0.026,0.0,0.006,0.006,0.039,0.0,-0.2102,0.0706,0.0476,-0.2869,-0.25,0.1979,-0.1933,-0.0215,0.1534,0.2899,-0.2945,0.2991,-0.2531,-0.1948,0.1595,-0.3022,-0.2823,0.2807,-0.2278,0.0688,0.0338,-0.3027,-0.2054,0.0553,-0.2882,-0.1062,0.2007,0.2907,-0.3244,0.3081,-0.2813,-0.2734,0.2402,-0.3035,-0.2954,0.2788,-0.3496,-0.0573,-0.0983,-0.1069,-0.2995,-1.0,-1.0,0.0983,-1.0,1.0,-1.0,-1.0,-0.6821,1.0,1.0,-0.9954,1.0,-1.0,-1.0,1.0,1.0,-1.0,-1.0,0.0,0.0,0.0,0.0,0.0,0.0,0.0,0.0,0.0,0.0,0.0,0.0,0.0,0
0.64,run,-4.18,3.75,-1.43,0.4,-17.13,0.0,0.0,0.0,0.065,-14.94,22.68,79.98,-18.81,2.55,88.07,-13.89,15.56,93.34,19.51,-1.67,99.05,-17.4,5.1,91.14,-19.07,-1.58,96.94,-19.59,12.19,77.78,-25.06,12.55,83.25,-22.5,15.01,98.24,25.59,-7.75,101.69,-22.59,0.38,92.95,-13.59,-8.1,90.04,-1.0,-1.0,0.2119,-1.0,1.0,0.2223,-1.0,1.0,1.0,1.0,-1.0,0.3583,-0.8954,-1.0,0.041,1.0,-1.0,-0.9345,0.013,0.0,0.019,0.013,0.0,0.013,0.026,0.006,0.0,0.033,0.013,0.006,0.026,0.0,0.006,0.006,0.039,0.0,-0.2347,0.069,0.0291,-0.3114,-0.2531,0.1825,-0.2178,-0.046,0.1764,0.3145,-0.316,0.3221,-0.2777,-0.2194,0.1841,-0.3191,-0.3053,0.2945,-0.2512,0.0425,-0.0452,-0.3037,-0.1552,-0.0186,-0.2935,-0.1661,0.2265,0.2952,-0.3074,0.3017,-0.2886,-0.2831,0.2599,-0.2755,-0.2928,0.2468,-0.3713,-0.0644,-0.1316,-0.0609,-0.3166,-1.0,-1.0,0.0543,-1.0,1.0,-1.0,-1.0,1.0,1.0,1.0,-0.6746,0.8288,-1.0,0.123,1.0,1.0,-1.0,-1.0,0.0,0.0,0.0,0.0,0.0,0.0,0.0,0.0,0.0,0.0,0.0,0.0,0.0,0
0.68,run,-4.24,3.74,-2.89,-1.91,-13.88,0.0,0.0,0.0,0.065,-16.26,21.53,78.93,-20.21,3.08,86.66,-15.29,14.59,94.66,20.92,-3.08,100.72,-18.63,3.78,92.46,-19.51,-2.9,97.03,-21.09,10.69,79.28,-26.56,14.05,84.75,-24.0,13.51,99.74,27.09,-9.25,103.19,-24.09,-1.12,94.45,-12.09,-9.6,88.54,-1.0,-1.0,0.6386,-1.0,1.0,0.5719,-1.0,-1.0,1.0,1.0,-1.0,0.463,-1.0,-0.4557,1.0,1.0,-1.0,-1.0,0.013,0.0,0.019,0.013,0.0,0.013,0.026,0.006,0.0,0.033,0.013,0.006,0.026,0.0,0.006,0.006,0.039,0.0,-0.2592,0.0522,0.0123,-0.3359,-0.2531,0.1626,-0.2424,-0.069,0.2025,0.339,-0.339,0.3467,-0.3022,-0.2454,0.204,-0.3313,-0.3313,0.3037,-0.2688,-0.0342,-0.0955,-0.3056,-0.1087,-0.0886,-0.2985,-0.2035,0.2574,0.2997,-0.3024,0.3042,-0.295,-0.297,0.2575,-0.2394,-0.3038,0.2076,-0.3701,-0.0574,-0.025,0.007,-0.2991,-1.0,-1.0,0.2119,-1.0,1.0,0.2223,-1.0,1.0,1.0,1.0,-1.0,0.3583,-0.8954,-1.0,0.041,1.0,-1.0,-0.9345,0.0,0.0,0.0,0.0,0.0,0.0,0.0,0.0,0.0,0.0,0.0,0.0,0.0,0
0.72,run,-4.19,3.85,1.79,2.75,-9.47,0.0,0.0,0.0,0.065,-17.58,20.21,78.05,-21.71,4.04,85.34,-16.79,13.89,96.06,22.15,-4.31,101.69,-19.95,2.29,93.52,-19.51,-4.31,97.03,-22.59,9.19,80.78,-28.06,15.55,86.25,-25.5,15.01,101.24,28.59,-10.75,101.69,-25.59,-2.62,95.95,-10.59,-11.1,87.04,-1.0,-0.5326,0.2578,-1.0,1.0,0.8349,-1.0,1.0,1.0,1.0,-0.291,-0.093,-1.0,-1.0,1.0,0.424,-1.0,-1.0,0.019,0.0,0.019,0.013,0.013,0.013,0.019,0.0,0.0,0.058,0.026,0.006,0.039,0.0,0.006,0.013,0.039,0.033,-0.2823,0.0322,-0.0061,-0.3605,-0.2439,0.1381,-0.2669,-0.0859,0.2255,0.3636,-0.3636,0.3758,-0.3237,-0.2684,0.227,-0.339,-0.3543,0.3053,-0.2747,-0.0989,-0.1361,-0.3062,-0.0415,-0.1543,-0.3012,-0.2059,0.2666,0.302,-0.3039,0.3225,-0.2873,-0.2944,0.2667,-0.1964,-0.2991,0.1511,-0.3754,-0.0582,-0.0505,-0.0334,-0.2423,-1.0,-1.0,0.6386,-1.0,1.0,0.5719,-1.0,-1.0,1.0,1.0,-1.0,0.463,-1.0,-0.4557,1.0,1.0,-1.0,-1.0,0.0,0.0,0.0,0.0,0.0,0.0,0.0,0.0,0.0,0.0,0.0,0.0,0.0,0
0.76,run,-4.41,3.95,-4.07,2.45,-8.35,0.0,0.0,0.0,0.065,-19.07,18.81,77.34,-23.12,5.19,84.38,-18.28,13.54,97.47,23.47,-5.62,102.57,-21.27,0.97,94.31,-19.16,-5.62,96.59,-21.09,7.69,82.28,-29.56,17.05,87.75,-24.0,13.51,102.74,30.09,-12.25,100.19,-27.09,-4.12,97.45,-9.09,-12.6,85.54,-0.0269,0.5635,1.0,-1.0,0.8973,1.0,-0.3915,-1.0,1.0,1.0,0.1211,-1.0,-1.0,-1.0,1.0,1.0,-1.0,-1.0,0.019,0.0,0.019,0.013,0.013,0.013,0.019,0.0,0.0,0.058,0.026,0.006,0.039,0.0,0.006,0.013,0.039,0.033,-0.3053,0.0092,-0.0215,-0.3866,-0.227,0.115,-0.293,-0.0982,0.25,0.385,-0.385,0.3927,-0.3467,-0.2945,0.2454,-0.339,-0.3789,0.3053,-0.2782,-0.1552,-0.1526,-0.3117,0.034,-0.194,-0.3082,-0.1899,0.2783,0.2916,-0.293,0.2888,-0.287,-0.3035,0.2555,-0.1375,-0.3011,0.1058,-0.3709,-0.048,0.0313,0.048,-0.1653,-1.0,-0.5326,0.2578,-1.0,1.0,0.8349,-1.0,1.0,1.0,1.0,-0.291,-0.093,-1.0,-1.0,1.0,0.424,-1.0,-1.0,0.0,0.0,0.0,0.0,0.0,0.0,0.0,0.0,0.0,0.0,0.0,0.0,0.0,0
0.8,run,-4.31,4.07,3.89,3.49,-10.48,0.0,0.0,0.0,0.065,-20.39,17.31,76.9,-24.52,6.59,83.67,-19.69,13.54,98.88,25.05,-7.21,103.01,-22.68,-0.53,95.36,-18.28,-7.03,95.45,-19.59,6.19,83.78,-31.06,15.55,86.25,-22.5,12.01,104.24,31.59,-10.75,98.69,-28.59,-5.62,98.95,-7.59,-14.1,84.04,1.0,-0.3659,1.0,-1.0,-0.0627,-1.0,1.0,-0.4459,1.0,1.0,1.0,-1.0,-1.0,-1.0,1.0,1.0,-0.6121,-1.0,0.019,0.0,0.019,0.013,0.013,0.013,0.019,0.0,0.0,0.058,0.026,0.006,0.039,0.0,0.006,0.013,0.039,0.033,-0.3313,-0.0153,-0.0337,-0.4111,-0.2071,0.0982,-0.3191,-0.1043,0.2746,0.408,-0.408,0.408,-0.3697,-0.3175,0.2592,-0.3329,-0.4019,0.2976,-0.2925,-0.2006,-0.1528,-0.3102,0.0985,-0.199,-0.3135,-0.156,0.2868,0.2904,-0.2913,0.2596,-0.2872,-0.2987,0.2306,-0.0732,-0.297,0.0453,-0.3898,-0.0398,-0.071,0.0427,-0.1457,-0.0269,0.5635,1.0,-1.0,0.8973,1.0,-0.3915,-1.0,1.0,1.0,0.1211,-1.0,-1.0,-1.0,1.0,1.0,-1.0,-1.0,0.0,0.0,0.0,0.0,0.0,0.0,0.0,0.0,0.0,0.0,0.0,0.0,0.0,0
0.84,run,-4.48,4.58,-1.93,13.73,-6.94,0.0,0.0,0.0,0.065,-21.27,15.82,76.9,-25.93,8.09,83.32,-21.01,13.45,100.2,26.46,-8.53,103.18,-24.17,-1.93,96.33,-17.31,-8.53,94.31,-18.09,7.69,85.28,-32.56,14.05,84.75,-21.0,10.51,105.74,33.09,-9.25,100.19,-30.09,-7.12,100.45,-6.09,-12.6,82.54,0.6895,0.7553,1.0,-1.0,-1.0,-0.9607,1.0,-0.3551,1.0,1.0,1.0,0.9509,-1.0,0.1185,0.5139,1.0,1.0,-1.0,0.006,0.0,0.006,0.019,0.006,0.006,0.013,0.019,0.0,0.045,0.006,0.039,0.039,0.0,0.013,0.026,0.033,0.026,-0.3543,-0.0414,-0.0414,-0.4357,-0.1825,0.0859,-0.3436,-0.1043,0.2991,0.4357,-0.4357,0.4157,-0.3942,-0.3436,0.2777,-0.3175,-0.4264,0.2777,-0.2899,-0.2369,-0.1353,-0.308,0.1598,-0.1847,-0.3103,-0.1092,0.2916,0.3055,-0.3061,0.2101,-0.2918,-0.3056,0.2295,0.0055,-0.2987,-0.0421,-0.3814,-0.0293,0.0678,0.0608,-0.1829,1.0,-0.3659,1.0,-1.0,-0.0627,-1.0,1.0,-0.4459,1.0,1.0,1.0,-1.0,-1.0,-1.0,1.0,1.0,-0.6121,-1.0,0.0,0.0,0.0,0.0,0.0,0.0,0.0,0.0,0.0,0.0,0.0,0.0,0.0,0
0.88,run,-4.66,4.73,-2.42,4.8,4.5,0.0,0.0,0.0,0.065,-21.97,14.41,76.9,-27.33,9.4,83.41,-22.15,12.66,101.6,27.86,-9.67,103.27,-25.58,-3.34,97.65,-15.91,-9.76,92.9,-19.59,9.19,86.78,-34.06,12.55,83.25,-19.5,12.01,107.24,34.59,-7.75,98.69,-31.59,-8.62,98.95,-4.59,-11.1,81.04,-1.0,1.0,1.0,-1.0,-1.0,-0.0443,1.0,1.0,1.0,1.0,1.0,-1.0,-1.0,-1.0,-1.0,1.0,1.0,-0.9469,0.006,0.0,0.006,0.019,0.006,0.006,0.013,0.019,0.0,0.045,0.006,0.039,0.039,0.0,0.013,0.026,0.033,0.026,-0.3697,-0.0675,-0.0414,-0.4602,-0.1565,0.0798,-0.3666,-0.1058,0.3221,0.4602,-0.4587,0.4188,-0.4203,-0.3682,0.2945,-0.3007,-0.4525,0.2577,-0.2609,-0.2644,-0.0947,-0.3083,0.2104,-0.1525,-0.3042,-0.0822,0.2911,0.3066,-0.3012,0.1587,-0.3029,-0.3067,0.2245,0.0676,-0.3077,-0.1048,-0.3957,0.0151,-0.0337,0.2396,-0.1212,0.6895,0.7553,1.0,-1.0,-1.0,-0.9607,1.0,-0.3551,1.0,1.0,1.0,0.9509,-1.0,0.1185,0.5139,1.0,1.0,-1.0,0.0,0.0,0.0,0.0,0.0,0.0,0.0,0.0,0.0,0.0,0.0,0.0,0.0,0
0.92,run,-4.49,4.79,6.4,1.88,17.13,0.0,0.0,0.0,0.065,-22.41,13.01,77.7,-28.74,10.9,83.76,-23.03,12.04,103.1,29.44,-10.63,103.1,-27.07,-4.66,98.79,-14.5,-10.9,91.41,-21.09,10.69,88.28,-35.0,11.05,81.75,-18.0,10.51,108.74,35.0,-6.25,97.19,-33.09,-10.12,97.45,-3.09,-9.6,79.54,-1.0,0.8736,1.0,-1.0,-0.7776,-0.8694,1.0,-0.6819,1.0,1.0,1.0,-1.0,-1.0,-1.0,0.0661,1.0,1.0,-1.0,0.006,0.0,0.006,0.019,0.006,0.006,0.013,0.019,0.0,0.045,0.006,0.039,0.039,0.0,0.013,0.026,0.033,0.026,-0.382,-0.092,-0.0414,-0.4847,-0.1335,0.0813,-0.3866,-0.1197,0.3467,0.4847,-0.4786,0.4203,-0.4449,-0.3927,0.3175,-0.2761,-0.474,0.2332,-0.2289,-0.2777,-0.0663,-0.3084,0.2341,-0.101,-0.2881,-0.1096,0.2963,0.3072,-0.2861,0.1169,-0.3046,-0.3072,0.2439,0.1399,-0.2964,-0.1659,-0.4119,0.0287,-0.0422,0.0837,0.0785,-1.0,1.0,1.0,-1.0,-1.0,-0.0443,1.0,1.0,1.0,1.0,1.0,-1.0,-1.0,-1.0,-1.0,1.0,1.0,-0.9469,0.0,0.0,0.0,0.0,0.0,0.0,0.0,0.0,0.0,0.0,0.0,0.0,0.0,0
0.96,run,-5.0,4.58,-11.93,-4.31,22.95,0.0,0.0,0.0,0.065,-22.41,11.87,78.66,-30.15,11.25,84.02,-23.47,11.51,104.59,30.94,-11.25,101.87,-28.56,-6.06,99.67,-13.18,-11.78,90.0,-22.59,9.19,89.78,-35.0,9.55,80.25,-16.5,9.01,110.24,35.0,-4.75,95.69,-34.59,-11.62,95.95,-1.59,-8.1,78.04,-1.0,0.4745,1.0,-1.0,-1.0,-1.0,1.0,-1.0,1.0,1.0,1.0,-0.6507,-1.0,-1.0,0.2848,1.0,1.0,-1.0,0.006,0.0,0.013,0.026,0.019,0.019,0.006,0.026,0.0,0.019,0.0,0.039,0.026,0.0,0.006,0.019,0.019,0.019,-0.3896,-0.1166,-0.0276,-0.5093,-0.1074,0.0874,-0.4019,-0.1304,0.3728,0.5123,-0.4955,0.4172,-0.4709,-0.4157,0.3375,-0.2516,-0.4939,0.2071,-0.1888,-0.2858,0.005,-0.3074,0.2611,-0.0478,-0.2589,-0.1168,0.3046,0.3179,-0.2631,0.0704,-0.3104,-0.3008,0.245,0.1894,-0.2818,-0.2134,-0.3964,0.0338,0.1117,0.0328,0.299,-1.0,0.8736,1.0,-1.0,-0.7776,-0.8694,1.0,-0.6819,1.0,1.0,1.0,-1.0,-1.0,-1.0,0.0661,1.0,1.0,-1.0,0.0,0.0,0.0,0.0,0.0,0.0,0.0,0.0,0.0,0.0,0.0,0.0,0.0,0
1.0,run,-5.15,4.19,-7.43,-10.31,12.92,0.0,0.0,0.0,0.065,-22.41,10.81,79.89,-31.46,12.48,83.23,-23.64,10.81,106.26,32.43,-11.34,100.2,-29.79,-7.65,100.2,-11.69,-12.22,88.68,-24.09,7.69,91.28,-35.0,8.05,78.75,-15.0,10.51,111.74,35.0,-3.25,94.19,-35.0,-13.12,94.45,-0.09,-6.6,76.54,-1.0,-0.846,1.0,-1.0,-0.8602,-0.1796,1.0,1.0,1.0,1.0,1.0,-1.0,-1.0,-1.0,-0.632,1.0,1.0,-1.0,0.006,0.0,0.013,0.026,0.019,0.019,0.006,0.026,0.0,0.019,0.0,0.039,0.026,0.0,0.006,0.019,0.019,0.019,-0.3896,-0.1365,-0.0107,-0.5338,-0.1012,0.092,-0.4096,-0.1396,0.3988,0.5384,-0.5062,0.3958,-0.497,-0.4403,0.3528,-0.2286,-0.5093,0.1825,-0.1322,-0.2749,0.0668,-0.3072,0.2057,-0.0162,-0.21,-0.1162,0.311,0.3203,-0.2245,-0.0313,-0.3151,-0.3026,0.2291,0.2189,-0.2548,-0.2414,-0.4409,0.0156,-0.2082,-0.0752,0.4005,-1.0,0.4745,1.0,-1.0,-1.0,-1.0,1.0,-1.0,1.0,1.0,1.0,-0.6507,-1.0,-1.0,0.2848,1.0,1.0,-1.0,0.0,0.0,0.0,0.0,0.0,0.0,0.0,0.0,0.0,0.0,0.0,0.0,0.0,0
1.04,run,-4.71,4.45,8.91,6.32,-13.19,0.0,0.002,0.0,0.065,-22.68,9.84,81.3,-32.61,12.92,82.53,-23.64,10.02,107.75,33.4,-11.25,98.44,-30.94,-9.14,100.37,-10.37,-12.39,87.19,-25.59,6.19,92.78,-35.0,6.55,80.25,-13.5,9.01,113.24,35.0,-1.75,92.69,-35.0,-14.62,92.95,1.41,-5.1,78.04,-1.0,-1.0,1.0,-1.0,-0.0535,1.0,1.0,-0.7776,1.0,1.0,1.0,-1.0,-1.0,-1.0,-0.0111,1.0,1.0,0.5557,0.006,0.0,0.013,0.026,0.019,0.019,0.006,0.026,0.0,0.019,0.0,0.039,0.026,0.0,0.006,0.019,0.019,0.019,-0.3896,-0.1549,0.0107,-0.5568,-0.0798,0.0782,-0.4126,-0.1519,0.428,0.5645,-0.5077,0.3666,-0.5185,-0.4679,0.362,-0.2025,-0.517,0.1595,-0.0925,-0.2618,0.1278,-0.3018,0.225,-0.0634,-0.1585,-0.1277,0.3276,0.3226,-0.1629,-0.1318,-0.3015,-0.316,0.1951,0.2516,-0.2073,-0.2558,-0.4542,-0.019,-0.1296,-0.1799,0.2255,-1.0,-0.846,1.0,-1.0,-0.8602,-0.1796,1.0,1.0,1.0,1.0,1.0,-1.0,-1.0,-1.0,-0.632,1.0,1.0,-1.0,0.0,0.0,0.0,0.0,0.0,0.0,0.0,0.0,0.0,0.0133,0.0,0.0133,0.0,0
1.08,run,-4.37,4.65,7.29,6.94,-16.87,0.0,0.004,0.0,0.065,-23.55,8.7,82.18,-33.93,13.18,81.65,-23.12,9.67,109.07,34.1,-10.63,97.12,-32.34,-10.46,100.02,-8.88,-12.39,85.69,-24.09,4.69,94.28,-35.0,5.05,81.75,-12.0,7.51,114.74,33.5,-0.25,91.19,-35.0,-16.12,94.45,-0.09,-3.6,79.54,0.0428,-0.1136,1.0,-1.0,-0.2025,1.0,1.0,-1.0,1.0,-0.5194,1.0,0.1188,-1.0,-1.0,1.0,-0.4069,1.0,1.0,0.0,0.0,0.033,0.0,0.006,0.019,0.006,0.045,0.0,0.013,0.026,0.026,0.026,0.0,0.006,0.019,0.006,0.026,-0.3942,-0.1718,0.0353,-0.5768,-0.0721,0.066,-0.4126,-0.1657,0.4541,0.5814,-0.5062,0.3359,-0.5384,-0.4939,0.3651,-0.1795,-0.52,0.1335,-0.0819,-0.2462,0.181,-0.2856,0.1861,-0.0902,-0.111,-0.1408,0.3266,0.2887,-0.1083,-0.2067,-0.2855,-0.3184,0.148,0.2619,-0.1565,-0.2763,-0.4164,0.0043,0.1555,0.1103,-0.2302,-1.0,-1.0,1.0,-1.0,-0.0535,1.0,1.0,-0.7776,1.0,1.0,1.0,-1.0,-1.0,-1.0,-0.0111,1.0,1.0,0.5557,0.0,0.0,0.0,0.0,0.0,0.0,0.0,0.0,0.0,0.0267,0.0,0.0267,0.0,0
1.12,run,-4.23,4.57,2.02,3.55,2.32,0.0,0.006,0.0,0.065,-24.17,7.47,84.02,-34.63,13.27,80.86,-22.06,9.4,110.39,34.63,-9.76,95.71,-33.49,-11.78,99.32,-7.47,-12.04,84.38,-22.59,3.19,95.78,-35.0,6.55,83.25,-10.5,6.01,116.24,32.0,-1.75,89.69,-35.0,-17.62,95.95,-1.59,-2.1,81.04,1.0,0.3683,1.0,-1.0,1.0,1.0,1.0,-1.0,1.0,-1.0,0.1791,-0.6361,-1.0,-1.0,1.0,-1.0,1.0,1.0,0.0,0.0,0.033,0.0,0.006,0.019,0.006,0.045,0.0,0.013,0.026,0.026,0.026,0.0,0.006,0.019,0.006,0.026,-0.4096,-0.1917,0.0506,-0.5998,-0.0675,0.0506,-0.4034,-0.1718,0.4771,0.5937,-0.4955,0.3129,-0.563,-0.517,0.359,-0.1534,-0.52,0.1074,-0.1149,-0.2472,0.1842,-0.2863,0.1475,-0.1207,-0.0432,-0.1216,0.3149,0.2482,-0.0355,-0.231,-0.2919,-0.3092,0.0806,0.2812,-0.1096,-0.2912,-0.3865,0.021,0.1272,0.1212,-0.2944,0.0428,-0.1136,1.0,-1.0,-0.2025,1.0,1.0,-1.0,1.0,-0.5194,1.0,0.1188,-1.0,-1.0,1.0,-0.4069,1.0,1.0,0.0,0.0,0.0,0.0,0.0,0.0,0.0,0.0,0.0,0.04,0.0,0.04,0.0,0
1.16,run,-5.09,4.21,-19.21,-9.35,3.6,0.0,0.008,0.0,0.065,-24.17,6.15,85.43,-34.28,12.83,80.6,-20.48,8.35,111.71,34.72,-8.79,94.39,-34.37,-13.1,98.44,-6.06,-11.16,82.88,-21.09,1.69,97.28,-35.0,8.05,84.75,-9.0,4.51,117.74,30.5,-3.25,88.19,-35.0,-19.12,97.45,-3.09,-0.6,82.54,1.0,0.0527,1.0,-1.0,1.0,1.0,1.0,-1.0,1.0,-1.0,0.3823,-0.6567,-1.0,-1.0,1.0,-1.0,1.0,1.0,0.0,0.0,0.033,0.0,0.006,0.019,0.006,0.045,0.0,0.013,0.026,0.026,0.026,0.0,0.006,0.019,0.006,0.026,-0.4203,-0.2132,0.0828,-0.6121,-0.066,0.0368,-0.385,-0.1764,0.5001,0.6029,-0.4801,0.2884,-0.5829,-0.54,0.3467,-0.1289,-0.5139,0.0844,-0.1209,-0.254,0.2504,-0.2466,0.1091,-0.1365,0.0392,-0.1025,0.3072,0.2084,0.0329,-0.2542,-0.2795,-0.3032,0.0101,0.2893,-0.0536,-0.2906,-0.3743,0.0141,0.0353,0.062,0.0405,1.0,0.3683,1.0,-1.0,1.0,1.0,1.0,-1.0,1.0,-1.0,0.1791,-0.6361,-1.0,-1.0,1.0,-1.0,1.0,1.0,0.0,0.0,0.0,0.0,0.0,0.0,0.0,0.0,0.0,0.0533,0.0,0.0533,0.0,0
1.2,run,-5.14,4.07,-0.81,-5.39,10.57,0.0,0.01,0.0,0.065,-24.43,4.92,86.84,-34.63,12.04,80.42,-19.78,7.38,113.12,34.54,-7.65,92.64,-34.72,-14.41,97.29,-4.83,-10.55,81.83,-19.59,0.19,98.78,-35.0,9.55,86.25,-7.5,3.01,119.24,29.0,-4.75,86.69,-35.0,-20.62,98.95,-4.59,0.9,84.04,-0.041,-1.0,1.0,-1.0,1.0,1.0,1.0,-1.0,1.0,-0.7564,-0.241,-1.0,-1.0,-1.0,1.0,-1.0,1.0,1.0,0.013,0.0,0.019,0.006,0.0,0.006,0.006,0.039,0.0,0.013,0.065,0.006,0.0,0.033,0.006,0.013,0.013,0.013,-0.4203,-0.2362,0.1074,-0.6059,-0.0736,0.0322,-0.3574,-0.1948,0.5231,0.6044,-0.4633,0.2654,-0.5983,-0.563,0.3313,-0.1043,-0.4985,0.0583,-0.0846,-0.2636,0.2668,-0.1498,0.0477,-0.1127,0.1305,-0.1404,0.3009,0.1516,0.086,-0.2638,-0.2529,-0.2981,-0.0501,0.2941,0.0197,-0.3007,-0.4489,-0.0166,-0.3353,-0.1631,0.0628,1.0,0.0527,1.0,-1.0,1.0,1.0,1.0,-1.0,1.0,-1.0,0.3823,-0.6567,-1.0,-1.0,1.0,-1.0,1.0,1.0,0.0,0.0,0.0,0.0,0.0,0.0,0.0,0.0,0.0,0.0667,0.0,0.0667,0.0,0
1.24,run,-4.91,4.02,6.43,-1.36,3.34,0.0,0.012,0.0,0.065,-23.82,3.25,88.59,-34.72,10.81,81.04,-17.75,5.8,114.87,33.49,-6.5,90.88,-34.8,-15.82,96.5,-3.52,-8.7,80.77,-21.09,-1.31,100.28,-35.0,11.05,87.75,-6.0,1.51,120.74,27.5,-6.25,85.19,-35.0,-22.12,100.45,-6.09,2.4,85.54,-0.8984,-1.0,0.5394,-1.0,1.0,1.0,1.0,-1.0,1.0,-0.7434,-0.2702,0.2368,-1.0,-1.0,1.0,-1.0,1.0,1.0,0.013,0.0,0.019,0.006,0.0,0.006,0.006,0.039,0.0,0.013,0.065,0.006,0.0,0.033,0.006,0.013,0.013,0.013,-0.4249,-0.2577,0.1319,-0.6121,-0.0874,0.0291,-0.3451,-0.2117,0.5476,0.6013,-0.4433,0.2347,-0.6044,-0.586,0.3114,-0.0828,-0.4878,0.0399,-0.0766,-0.2655,0.2794,-0.128,-0.0187,-0.0905,0.1376,-0.1619,0.3032,0.0946,0.1354,-0.3004,-0.2002,-0.2955,-0.1103,0.2869,0.0543,-0.2799,-0.4535,-0.0293,-0.0141,-0.094,0.1844,-0.041,-1.0,1.0,-1.0,1.0,1.0,1.0,-1.0,1.0,-0.7564,-0.241,-1.0,-1.0,-1.0,1.0,-1.0,1.0,1.0,0.0,0.0,0.0,0.0,0.0,0.0,0.0,0.0,0.0,0.08,0.0,0.08,0.0,0
1.28,run,-5.05,3.77,-3.68,-6.39,-3.01,0.0,0.014,0.0,0.065,-22.85,2.02,90.0,-34.72,10.02,81.83,-16.35,4.57,116.28,32.61,-5.8,89.3,-34.8,-17.49,96.24,-2.9,-7.47,80.16,-22.59,-2.81,98.78,-33.5,12.55,89.25,-4.5,0.01,122.24,26.0,-7.75,86.69,-35.0,-23.62,101.95,-7.59,0.9,87.04,-1.0,-1.0,0.1523,0.1256,1.0,1.0,1.0,-1.0,1.0,-1.0,-0.1091,0.5826,-1.0,-1.0,1.0,-1.0,-0.5091,1.0,0.013,0.0,0.019,0.006,0.0,0.006,0.006,0.039,0.0,0.013,0.065,0.006,0.0,0.033,0.006,0.013,0.013,0.013,-0.4142,-0.2869,0.1626,-0.6136,-0.1089,0.0399,-0.3099,-0.2393,0.5783,0.5829,-0.4234,0.204,-0.6059,-0.6105,0.2976,-0.0598,-0.4556,0.0215,-0.0203,-0.2763,0.2908,-0.0943,-0.0797,-0.03,0.2058,-0.1991,0.3075,0.0091,0.1567,-0.3055,-0.1449,-0.283,-0.1201,0.2722,0.138,-0.2531,-0.4331,-0.0332,0.1122,-0.0238,0.0583,-0.8984,-1.0,0.5394,-1.0,1.0,1.0,1.0,-1.0,1.0,-0.7434,-0.2702,0.2368,-1.0,-1.0,1.0,-1.0,1.0,1.0,0.0,0.0,0.0,0.0,0.0,0.0,0.0,0.0,0.0,0.0933,0.0,0.0933,0.0,0
1.32,run,-4.9,3.75,4.1,0.88,-2.91,0.0,0.016,0.0,0.111,-21.97,0.62,91.41,-34.72,9.58,83.06,-14.85,3.25,117.77,31.38,-5.36,88.07,-34.89,-18.81,96.42,-2.55,-6.06,79.54,-24.09,-4.31,97.5,-32.0,14.05,90.75,-3.0,-1.49,123.74,24.5,-9.25,88.19,-35.0,-25.12,103.45,-9.09,-0.6,88.54,-1.0,-1.0,0.3823,1.0,1.0,1.0,1.0,-1.0,1.0,-1.0,-0.1077,0.3221,-1.0,-1.0,1.0,-1.0,-1.0,1.0,0.006,0.0,0.026,0.013,0.0,0.013,0.013,0.033,0.0,0.039,0.111,0.0,0.0,0.019,0.013,0.0,0.039,0.013,-0.3973,-0.3083,0.1871,-0.6136,-0.1227,0.0537,-0.2853,-0.2608,0.6029,0.5676,-0.4111,0.1764,-0.6059,-0.6397,0.293,-0.0491,-0.4341,0.0107,0.0486,-0.2734,0.2949,-0.066,-0.1072,0.0304,0.2355,-0.2193,0.3066,-0.0508,0.1554,-0.3167,-0.1014,-0.3066,-0.1012,0.2305,0.1766,-0.2171,-0.4461,-0.0553,-0.0642,-0.1116,-0.0526,-1.0,-1.0,0.1523,0.1256,1.0,1.0,1.0,-1.0,1.0,-1.0,-0.1091,0.5826,-1.0,-1.0,1.0,-1.0,-0.5091,1.0,0.0,0.0,0.0,0.0,0.0,0.0,0.0,0.0,0.0,0.1067,0.0,0.1067,0.0,0
1.36,run,-5.08,3.92,-3.44,5.81,2.48,0.0,0.018,0.0,0.111,-21.53,-0.62,92.72,-34.45,9.49,84.29,-13.45,1.93,119.18,29.97,-5.19,87.01,-34.89,-20.21,96.77,-2.64,-4.75,79.8,-25.59,-5.81,96.0,-30.5,15.55,92.25,-1.5,-2.99,125.24,23.0,-10.75,89.69,-35.0,-26.62,104.95,-10.59,-2.1,90.04,-1.0,-1.0,-0.3892,1.0,1.0,1.0,1.0,-1.0,1.0,-1.0,-0.3648,0.6673,-1.0,-1.0,1.0,-1.0,-1.0,1.0,0.006,0.0,0.026,0.013,0.0,0.013,0.013,0.033,0.0,0.039,0.111,0.0,0.0,0.019,0.013,0.0,0.039,0.013,-0.382,-0.3329,0.2117,-0.6136,-0.1304,0.0752,-0.2592,-0.2838,0.6289,0.5461,-0.4034,0.1549,-0.6075,-0.6627,0.2961,-0.043,-0.4096,0.0,0.0912,-0.2829,0.298,-0.0462,-0.1036,0.1014,0.2621,-0.2393,0.3119,-0.1156,0.1374,-0.3017,-0.0767,-0.3004,-0.0594,0.1843,0.2151,-0.192,-0.4326,-0.0571,0.0716,0.0154,-0.0507,-1.0,-1.0,0.3823,1.0,1.0,1.0,1.0,-1.0,1.0,-1.0,-0.1077,0.3221,-1.0,-1.0,1.0,-1.0,-1.0,1.0,0.0,0.0,0.0,0.0,0.0,0.0,0.0,0.0,0.0,0.12,0.0,0.12,0.0,0
1.4,run,-6.18,3.04,-6.64,-5.42,-15.1,0.0,0.02,0.0,0.111,-23.2,-4.92,96.77,-31.29,11.51,89.65,-7.73,-2.46,124.28,24.96,-7.12,86.22,-34.89,-25.4,101.78,-6.5,-2.2,83.85,-27.09,-7.31,94.5,-29.0,17.05,93.75,0.0,-4.49,126.74,21.5,-12.25,88.19,-33.5,-28.12,106.45,-12.09,-3.6,91.54,-1.0,-1.0,-0.8262,1.0,1.0,1.0,1.0,-1.0,1.0,-1.0,-0.7586,0.2584,-0.5895,-1.0,1.0,-1.0,-1.0,1.0,0.006,0.006,0.006,0.006,0.104,0.033,0.006,0.006,0.0,0.039,0.0,0.039,0.0,0.006,0.013,0.019,0.033,0.039,-0.3743,-0.3543,0.2347,-0.609,-0.1319,0.0966,-0.2347,-0.3068,0.6535,0.5216,-0.4004,0.1365,-0.6075,-0.6872,0.3022,-0.0445,-0.3866,0.0046,0.0928,-0.279,0.2953,-0.015,-0.0783,0.1519,0.2759,-0.2542,0.3108,-0.1734,0.1077,-0.2806,-0.0537,-0.3028,-0.0185,0.1232,0.2373,-0.1171,-0.448,-0.0425,-0.0601,0.1013,0.0433,-1.0,-1.0,-0.3892,1.0,1.0,1.0,1.0,-1.0,1.0,-1.0,-0.3648,0.6673,-1.0,-1.0,1.0,-1.0,-1.0,1.0,0.0,0.0,0.0,0.0,0.0,0.0,0.0,0.0,0.0,0.1333,0.0,0.1333,0.0,0
1.44,run,-6.63,2.78,-11.46,-7.3,-14.49,0.0,0.022,0.0,0.111,-24.26,-5.45,97.03,-30.94,12.39,90.62,-6.33,-2.99,124.98,23.99,-8.44,86.92,-34.89,-26.46,103.01,-8.0,-2.2,85.25,-28.59,-8.81,93.0,-27.5,15.55,95.25,1.5,-5.99,128.24,20.0,-13.75,89.69,-32.0,-29.62,107.95,-13.59,-5.1,93.04,-1.0,-1.0,-1.0,1.0,-0.1185,0.4737,1.0,-1.0,1.0,-1.0,-0.4909,1.0,1.0,-1.0,1.0,-1.0,-1.0,1.0,0.006,0.006,0.006,0.006,0.104,0.033,0.006,0.006,0.0,0.039,0.0,0.039,0.0,0.006,0.013,0.019,0.033,0.039,-0.4034,-0.4295,0.3053,-0.5538,-0.0966,0.1902,-0.135,-0.3835,0.7424,0.4341,-0.4341,0.1227,-0.6075,-0.7777,0.3896,-0.112,-0.3421,0.0752,0.0378,-0.2652,0.2724,0.0409,-0.022,0.1934,0.286,-0.2494,0.3004,-0.2028,0.044,-0.2093,-0.0376,-0.2962,0.0685,0.0234,0.2075,-0.0163,-0.5441,-0.1186,-0.1159,-0.0945,-0.2636,-1.0,-1.0,-0.8262,1.0,1.0,1.0,1.0,-1.0,1.0,-1.0,-0.7586,0.2584,-0.5895,-1.0,1.0,-1.0,-1.0,1.0,0.0,0.0,0.0,0.0,0.0,0.0,0.0,0.0,0.0,0.1467,0.0,0.1467,0.0,0
1.48,run,-6.81,2.44,-5.76,-9.26,-8.95,0.0,0.024,0.0,0.111,-25.58,-5.71,97.03,-30.5,13.36,91.76,-4.92,-3.78,125.86,22.94,-9.76,87.36,-34.72,-27.25,104.24,-9.4,-2.37,86.57,-30.09,-10.31,91.5,-26.0,14.05,96.75,3.0,-7.49,129.74,18.5,-15.25,88.19,-30.5,-31.12,109.45,-15.09,-6.6,94.54,-1.0,-0.7781,-1.0,1.0,-0.0937,1.0,1.0,-1.0,1.0,-1.0,-0.7371,-0.0612,1.0,-1.0,1.0,-1.0,-1.0,1.0,0.006,0.006,0.006,0.006,0.104,0.033,0.006,0.006,0.0,0.039,0.0,0.039,0.0,0.006,0.013,0.019,0.033,0.039,-0.4218,-0.4387,0.3099,-0.5476,-0.0813,0.2071,-0.1104,-0.3927,0.7547,0.4172,-0.4571,0.135,-0.6075,-0.7961,0.4111,-0.1381,-0.3421,0.0997,-0.042,-0.2199,0.2078,0.0514,0.0416,0.1981,0.2914,-0.2088,0.2559,-0.2047,-0.0547,-0.1009,-0.0263,-0.2758,0.1278,-0.0806,0.1453,0.0799,-0.5832,-0.1416,-0.2,-0.1274,-0.2528,-1.0,-1.0,-1.0,1.0,-0.1185,0.4737,1.0,-1.0,1.0,-1.0,-0.4909,1.0,1.0,-1.0,1.0,-1.0,-1.0,1.0,0.0,0.0,0.0,0.0,0.0,0.0,0.0,0.0,0.0,0.16,0.0,0.16,0.0,0
1.52,run,-6.98,2.14,-4.76,-7.26,-8.67,0.0,0.026,0.0,0.117,-26.89,-6.77,96.59,-29.79,14.06,93.08,-3.52,-4.66,127.0,21.71,-11.16,88.07,-33.75,-28.56,105.73,-10.72,-3.08,87.89,-31.59,-11.81,90.0,-24.5,12.55,98.25,4.5,-8.99,131.24,17.0,-16.75,89.69,-29.0,-32.62,110.95,-16.59,-8.1,96.04,-1.0,-1.0,-1.0,1.0,-1.0,1.0,1.0,-1.0,1.0,-0.9529,-0.1281,0.7467,1.0,-1.0,0.8812,-1.0,-1.0,1.0,0.013,0.019,0.026,0.026,0.117,0.084,0.013,0.019,0.0,0.058,0.0,0.039,0.013,0.006,0.019,0.026,0.0,0.045,-0.4449,-0.4433,0.3099,-0.54,-0.0644,0.227,-0.0859,-0.4065,0.7701,0.3988,-0.4801,0.1427,-0.6044,-0.8099,0.4326,-0.1626,-0.3451,0.1227,-0.1156,-0.1712,0.1454,0.0648,0.0924,0.2134,0.296,-0.1979,0.2366,-0.2123,-0.1246,-0.0419,-0.0069,-0.2448,0.1699,-0.1484,0.0902,0.1421,-0.5992,-0.1713,-0.1006,-0.1615,-0.1562,-1.0,-0.7781,-1.0,1.0,-0.0937,1.0,1.0,-1.0,1.0,-1.0,-0.7371,-0.0612,1.0,-1.0,1.0,-1.0,-1.0,1.0,0.0,0.0,0.0,0.0,0.0,0.0,0.0,0.0,0.0,0.1733,0.0,0.1733,0.0,0
1.56,run,-7.28,2.18,-6.78,2.67,-10.45,0.0,0.028,0.0,0.117,-28.3,-8.0,95.89,-28.83,14.59,94.22,-2.11,-5.89,128.14,20.48,-12.66,88.68,-32.78,-29.97,107.05,-12.13,-4.13,89.21,-33.09,-13.31,88.5,-23.0,11.05,99.75,6.0,-10.49,132.74,15.5,-18.25,88.19,-27.5,-34.12,112.45,-18.09,-9.6,97.54,-1.0,-0.4058,-1.0,1.0,-1.0,1.0,1.0,-1.0,1.0,-0.9537,-0.1963,-0.6477,1.0,-1.0,0.7825,-1.0,-1.0,1.0,0.013,0.019,0.026,0.026,0.117,0.084,0.013,0.019,0.0,0.058,0.0,0.039,0.013,0.006,0.019,0.026,0.0,0.045,-0.4679,-0.4617,0.3022,-0.5277,-0.0522,0.25,-0.0614,-0.4218,0.79,0.3774,-0.5047,0.1549,-0.5875,-0.833,0.4587,-0.1856,-0.3574,0.1457,-0.1677,-0.1892,0.0729,0.0916,0.1109,0.2361,0.2997,-0.1963,0.2408,-0.2295,-0.1797,0.017,0.0588,-0.2581,0.2173,-0.1906,0.0169,0.1862,-0.614,-0.1979,-0.0831,-0.1268,-0.1513,-1.0,-1.0,-1.0,1.0,-1.0,1.0,1.0,-1.0,1.0,-0.9529,-0.1281,0.7467,1.0,-1.0,0.8812,-1.0,-1.0,1.0,0.0,0.0,0.0,0.0,0.0,0.0,0.0,0.0,0.0,0.1867,0.0,0.1867,0.0,0
1.6,run,-7.49,2.0,-4.85,-2.81,-6.01,0.0,0.03,0.0,0.117,-29.71,-9.23,94.57,-27.69,14.85,95.45,-0.7,-7.29,128.94,19.25,-13.97,88.95,-31.55,-31.2,108.46,-13.45,-5.45,90.7,-34.59,-14.81,87.0,-21.5,9.55,101.25,7.5,-11.99,134.24,14.0,-19.75,86.69,-26.0,-35.62,113.95,-19.59,-11.1,99.04,-1.0,-0.1034,-1.0,1.0,-1.0,1.0,1.0,-0.5042,1.0,-0.7831,-0.3785,-0.3407,1.0,-1.0,1.0,-1.0,-1.0,1.0,0.013,0.019,0.026,0.026,0.117,0.084,0.013,0.019,0.0,0.058,0.0,0.039,0.013,0.006,0.019,0.026,0.0,0.045,-0.4924,-0.4832,0.2899,-0.5108,-0.043,0.27,-0.0368,-0.4433,0.8099,0.3559,-0.5308,0.1657,-0.5706,-0.8575,0.4817,-0.2102,-0.3758,0.1687,-0.2093,-0.2129,0.005,0.1273,0.1121,0.24,0.3018,-0.2179,0.2433,-0.2412,-0.2235,0.0521,0.1044,-0.2726,0.2383,-0.2254,-0.0572,0.2166,-0.6403,-0.1937,-0.1183,0.0466,-0.1823,-1.0,-0.4058,-1.0,1.0,-1.0,1.0,1.0,-1.0,1.0,-0.9537,-0.1963,-0.6477,1.0,-1.0,0.7825,-1.0,-1.0,1.0,0.0,0.0,0.0,0.0,0.0,0.0,0.0,0.0,0.0,0.2,0.0,0.2,0.0,0
1.64,run,-7.87,1.96,-8.64,1.2,0.02,0.0,0.032,0.0,0.13,-31.2,-10.63,92.99,-26.37,14.85,96.86,0.79,-8.61,129.81,17.75,-15.29,88.95,-30.23,-32.61,109.95,-14.77,-6.94,92.2,-35.0,-13.31,85.5,-20.0,8.05,102.75,9.0,-10.49,135.74,12.5,-18.25,85.19,-24.5,-37.12,112.45,-21.09,-12.6,100.54,-1.0,0.2291,-1.0,1.0,-1.0,1.0,1.0,0.7076,1.0,-0.4614,0.1677,-0.6205,1.0,-1.0,0.4004,-1.0,-1.0,1.0,0.006,0.026,0.006,0.039,0.026,0.13,0.006,0.013,0.019,0.058,0.0,0.0,0.026,0.006,0.019,0.045,0.0,0.026,-0.517,-0.5047,0.2669,-0.4909,-0.0383,0.2915,-0.0123,-0.4679,0.8237,0.3344,-0.5538,0.1703,-0.5492,-0.879,0.5062,-0.2332,-0.3988,0.1948,-0.2387,-0.2297,-0.0829,0.164,0.0958,0.2486,0.3034,-0.2447,0.2221,-0.2494,-0.2428,0.0538,0.1537,-0.2715,0.259,-0.2442,-0.1264,0.2495,-0.6587,-0.2098,-0.0846,-0.049,-0.1048,-1.0,-0.1034,-1.0,1.0,-1.0,1.0,1.0,-0.5042,1.0,-0.7831,-0.3785,-0.3407,1.0,-1.0,1.0,-1.0,-1.0,1.0,0.0,0.0,0.0,0.0,0.0,0.0,0.0,0.0,0.0,0.2133,0.0,0.2133,0.0,0
1.68,run,-8.35,1.7,-11.98,-6.58,-1.09,0.0,0.034,0.0,0.13,-32.61,-11.87,91.58,-24.96,14.85,98.17,2.11,-10.02,131.04,16.26,-16.61,88.42,-28.83,-34.01,111.27,-16.17,-8.35,93.69,-35.0,-11.81,84.0,-18.5,6.55,104.25,10.5,-8.99,137.24,11.0,-19.75,83.69,-23.0,-38.62,110.95,-22.59,-14.1,102.04,-1.0,0.9271,-1.0,1.0,-1.0,1.0,1.0,1.0,1.0,-0.078,-0.2015,-1.0,1.0,-1.0,0.3834,-1.0,-1.0,1.0,0.006,0.026,0.006,0.039,0.026,0.13,0.006,0.013,0.019,0.058,0.0,0.0,0.026,0.006,0.019,0.045,0.0,0.026,-0.543,-0.5292,0.2393,-0.4679,-0.0383,0.316,0.0138,-0.4909,0.8391,0.3083,-0.5768,0.1703,-0.5262,-0.9035,0.5323,-0.2562,-0.4249,0.2209,-0.2647,-0.2527,-0.1614,0.201,0.067,0.266,0.31,-0.2575,0.2129,-0.2723,-0.2562,0.0376,0.1938,-0.282,0.2789,-0.2571,-0.1862,0.2723,-0.6916,-0.2135,-0.1508,0.021,0.0003,-1.0,0.2291,-1.0,1.0,-1.0,1.0,1.0,0.7076,1.0,-0.4614,0.1677,-0.6205,1.0,-1.0,0.4004,-1.0,-1.0,1.0,0.0,0.0,0.0,0.0,0.0,0.0,0.0,0.0,0.0,0.2267,0.0,0.2267,0.0,0
1.72,run,-8.74,1.69,-9.09,0.71,-9.04,0.0,0.036,0.0,0.13,-33.4,-12.92,90.18,-23.55,14.33,99.58,3.52,-10.9,132.01,14.85,-17.67,87.45,-27.51,-35.16,112.24,-17.58,-9.67,95.1,-35.0,-10.31,82.5,-17.0,5.05,105.75,12.0,-7.49,138.74,9.5,-18.25,82.19,-21.5,-40.12,109.45,-24.09,-15.6,103.54,-1.0,0.9514,-1.0,1.0,-1.0,1.0,1.0,1.0,1.0,0.221,0.1326,-1.0,1.0,-1.0,-0.5423,-1.0,-1.0,1.0,0.006,0.026,0.006,0.039,0.026,0.13,0.006,0.013,0.019,0.058,0.0,0.0,0.026,0.006,0.019,0.045,0.0,0.026,-0.5676,-0.5507,0.2148,-0.4433,-0.0383,0.339,0.0368,-0.5154,0.8606,0.2823,-0.5998,0.1611,-0.5016,-0.9281,0.5553,-0.2807,-0.4495,0.247,-0.2774,-0.2575,-0.2051,0.2328,0.0469,0.2725,0.3034,-0.2723,0.2297,-0.2885,-0.2657,-0.0082,0.2278,-0.2895,0.2816,-0.2721,-0.2224,0.2885,-0.7337,-0.2359,-0.2092,-0.1149,-0.019,-1.0,0.9271,-1.0,1.0,-1.0,1.0,1.0,1.0,1.0,-0.078,-0.2015,-1.0,1.0,-1.0,0.3834,-1.0,-1.0,1.0,0.0,0.0,0.0,0.0,0.0,0.0,0.0,0.0,0.0,0.24,0.0,0.24,0.0,0
1.76,run,-9.14,1.74,-8.32,1.52,-4.92,0.0,0.038,0.0,0.13,-34.37,-13.71,88.77,-22.06,13.36,101.16,5.01,-11.51,133.24,13.18,-18.46,86.31,-26.02,-36.56,112.85,-18.98,-11.07,96.59,-35.0,-8.81,81.0,-15.5,3.55,107.25,13.5,-5.99,137.24,11.0,-19.75,80.69,-20.0,-41.62,107.95,-25.59,-17.1,105.04,-1.0,1.0,-1.0,1.0,-1.0,1.0,1.0,1.0,0.7085,0.3169,-0.8995,-1.0,1.0,-1.0,0.0559,-1.0,-1.0,1.0,0.006,0.013,0.013,0.033,0.0,0.097,0.013,0.0,0.111,0.013,0.0,0.013,0.026,0.0,0.006,0.052,0.0,0.033,-0.5814,-0.5691,0.1902,-0.4188,-0.0476,0.3636,0.0614,-0.5308,0.8774,0.2577,-0.6182,0.1442,-0.4786,-0.948,0.5722,-0.3053,-0.4725,0.2715,-0.2462,-0.2496,-0.2361,0.2555,-0.0018,0.2833,0.3049,-0.2484,0.2243,-0.2944,-0.2553,-0.0693,0.2461,-0.2778,0.2607,-0.2829,-0.2424,0.2944,-0.768,-0.2369,-0.1587,0.0123,-0.1578,-1.0,0.9514,-1.0,1.0,-1.0,1.0,1.0,1.0,1.0,0.221,0.1326,-1.0,1.0,-1.0,-0.5423,-1.0,-1.0,1.0,0.0,0.0,0.0,0.0,0.0,0.0,0.0,0.0,0.0,0.2533,0.0,0.2533,0.0,0
1.8,run,-9.3,1.79,-3.5,1.86,-1.83,0.0,0.04,0.0,0.13,-34.89,-14.24,87.28,-20.65,12.04,102.66,6.42,-11.87,134.21,11.87,-19.16,84.99,-24.61,-38.06,113.29,-20.3,-12.57,98.0,-35.0,-7.31,79.5,-14.0,2.05,108.75,15.0,-4.49,135.74,12.5,-21.25,79.19,-18.5,-43.12,106.45,-27.09,-18.6,106.54,-1.0,1.0,-1.0,1.0,-1.0,1.0,1.0,1.0,0.2954,0.4404,-1.0,-1.0,1.0,-1.0,0.2717,-1.0,-1.0,1.0,0.006,0.013,0.013,0.033,0.0,0.097,0.013,0.0,0.111,0.013,0.0,0.013,0.026,0.0,0.006,0.052,0.0,0.033,-0.5983,-0.5829,0.1657,-0.3927,-0.0644,0.3912,0.0874,-0.5415,0.8989,0.2286,-0.632,0.1243,-0.4525,-0.9725,0.5829,-0.3298,-0.497,0.2976,-0.235,-0.226,-0.2564,0.2757,-0.064,0.3008,0.3103,-0.2138,0.2368,-0.3144,-0.23,-0.1226,0.2692,-0.2856,0.2224,-0.2892,-0.2608,0.303,-0.8022,-0.2327,-0.1452,0.0265,-0.0859,-1.0,1.0,-1.0,1.0,-1.0,1.0,1.0,1.0,0.7085,0.3169,-0.8995,-1.0,1.0,-1.0,0.0559,-1.0,-1.0,1.0,0.0,0.0,0.0,0.0,0.0,0.0,0.0,0.0,0.0,0.2667,0.0,0.2667,0.0,0
1.84,run,-9.35,2.07,-0.73,7.16,-2.91,0.0,0.042,0.0,0.13,-34.89,-14.33,85.87,-19.25,10.63,104.15,7.82,-12.04,134.82,10.81,-19.6,83.58,-23.2,-39.29,113.29,-21.71,-13.97,99.49,-35.0,-5.81,78.0,-12.5,0.55,110.25,16.5,-2.99,134.24,14.0,-22.75,77.69,-17.0,-44.62,107.95,-28.59,-20.1,108.04,-1.0,1.0,-1.0,1.0,-1.0,1.0,1.0,1.0,-0.3663,0.6999,-1.0,-0.9161,1.0,-1.0,0.7221,-1.0,-1.0,1.0,0.006,0.013,0.013,0.033,0.0,0.097,0.013,0.0,0.111,0.013,0.0,0.013,0.026,0.0,0.006,0.052,0.0,0.033,-0.6075,-0.5921,0.1396,-0.3682,-0.0874,0.4172,0.112,-0.5476,0.9158,0.2056,-0.6443,0.1012,-0.428,-0.9986,0.5906,-0.3528,-0.5231,0.3221,-0.1989,-0.1926,-0.2769,0.2847,-0.1307,0.308,0.3089,-0.1726,0.2288,-0.306,-0.2069,-0.1718,0.2801,-0.2974,0.1843,-0.2884,-0.28,0.3038,-0.8167,-0.2286,-0.0611,0.0324,-0.0319,-1.0,1.0,-1.0,1.0,-1.0,1.0,1.0,1.0,0.2954,0.4404,-1.0,-1.0,1.0,-1.0,0.2717,-1.0,-1.0,1.0,0.0,0.0,0.0,0.0,0.0,0.0,0.0,0.0,0.0,0.28,0.0,0.28,0.0,0
1.88,run,-9.72,2.36,-8.14,7.47,-6.5,0.0,0.044,0.0,0.312,-34.98,-14.24,84.46,-17.84,9.32,105.64,9.23,-11.25,135.18,10.02,-20.21,82.27,-21.8,-40.61,112.94,-23.12,-15.47,100.99,-35.0,-4.31,76.5,-11.0,-0.95,111.75,18.0,-1.49,132.74,15.5,-24.25,76.19,-15.5,-46.12,109.45,-30.09,-21.6,109.54,-1.0,1.0,-1.0,1.0,-1.0,1.0,1.0,1.0,-0.8141,0.6692,-1.0,-0.6626,1.0,-1.0,1.0,-1.0,-1.0,1.0,0.0,0.006,0.013,0.039,0.0,0.052,0.013,0.0,0.312,0.006,0.019,0.013,0.026,0.026,0.013,0.078,0.0,0.033,-0.6075,-0.5937,0.115,-0.3436,-0.112,0.4433,0.1365,-0.5507,0.9265,0.1871,-0.6519,0.0767,-0.4034,-1.0201,0.5906,-0.3774,-0.5476,0.3482,-0.1392,-0.1406,-0.2863,0.2917,-0.184,0.3139,0.3087,-0.1324,0.2006,-0.2836,-0.1737,-0.2127,0.2886,-0.2891,0.129,-0.2944,-0.2885,0.3109,-0.8211,-0.2038,-0.0128,0.1249,-0.0508,-1.0,1.0,-1.0,1.0,-1.0,1.0,1.0,1.0,-0.3663,0.6999,-1.0,-0.9161,1.0,-1.0,0.7221,-1.0,-1.0,1.0,0.0,0.0,0.0,0.0,0.0,0.0,0.0,0.0,0.0,0.2933,0.0,0.2933,0.0,0
1.92,run,-10.05,2.7,-7.79,8.23,-12.05,0.0,0.046,0.0,0.312,-34.98,-13.71,83.06,-16.44,8.0,107.23,10.63,-10.37,135.35,9.49,-20.83,80.95,-20.3,-42.01,112.06,-24.52,-16.96,102.22,-35.0,-2.81,75.0,-9.5,-2.45,113.25,19.5,0.01,131.24,17.0,-25.75,74.69,-14.0,-47.62,110.95,-31.59,-23.1,111.04,-1.0,1.0,-1.0,1.0,-0.5296,1.0,1.0,1.0,-1.0,0.8456,-1.0,-0.2272,1.0,-1.0,1.0,-1.0,-1.0,1.0,0.0,0.006,0.013,0.039,0.0,0.052,0.013,0.0,0.312,0.006,0.019,0.013,0.026,0.026,0.013,0.078,0.0,0.033,-0.609,-0.5921,0.0905,-0.3191,-0.135,0.4694,0.1611,-0.5369,0.9327,0.1733,-0.6627,0.0537,-0.3789,-1.0431,0.5844,-0.4019,-0.5737,0.3743,-0.1032,-0.0927,-0.2924,0.2962,-0.215,0.3174,0.308,-0.0409,0.1634,-0.2502,-0.1618,-0.2351,0.2939,-0.2886,0.0673,-0.298,-0.2996,0.3153,-0.8528,-0.1788,-0.1421,0.1304,-0.1135,-1.0,1.0,-1.0,1.0,-1.0,1.0,1.0,1.0,-0.8141,0.6692,-1.0,-0.6626,1.0,-1.0,1.0,-1.0,-1.0,1.0,0.0,0.0,0.0,0.0,0.0,0.0,0.0,0.0,0.0,0.3067,0.0,0.3067,0.0,0
1.96,run,-10.12,3.5,-2.25,19.52,-16.78,0.0,0.048,0.0,0.312,-34.98,-12.74,81.65,-15.03,6.68,108.72,11.95,-9.49,135.44,9.32,-22.32,79.37,-18.9,-43.33,111.01,-25.93,-18.37,103.62,-35.0,-1.31,73.5,-8.0,-3.95,114.75,21.0,1.51,129.74,18.5,-27.25,76.19,-12.5,-49.12,112.45,-33.09,-24.6,112.54,-1.0,1.0,-1.0,1.0,-0.0126,1.0,1.0,0.9438,-1.0,0.8431,-1.0,0.307,1.0,-1.0,1.0,-1.0,-1.0,1.0,0.0,0.006,0.013,0.039,0.0,0.052,0.013,0.0,0.312,0.006,0.019,0.013,0.026,0.026,0.013,0.078,0.0,0.033,-0.609,-0.5829,0.066,-0.2945,-0.158,0.497,0.1856,-0.5216,0.9357,0.1641,-0.6734,0.0307,-0.3528,-1.0677,0.5691,-0.4264,-0.5998,0.3958,-0.0722,-0.0303,-0.2967,0.2994,-0.2368,0.3258,0.3077,0.0289,0.1259,-0.2097,-0.1536,-0.2509,0.3036,-0.2941,-0.0104,-0.3007,-0.3076,0.3013,-0.8817,-0.1485,-0.1359,0.1436,-0.2103,-1.0,1.0,-1.0,1.0,-0.5296,1.0,1.0,1.0,-1.0,0.8456,-1.0,-0.2272,1.0,-1.0,1.0,-1.0,-1.0,1.0,0.0,0.0,0.0,0.0,0.0,0.0,0.0,0.0,0.0,0.32,0.0,0.32,0.0,0
2.0,run,-10.17,4.55,-0.42,25.87,-18.52,0.0,0.05,0.0,0.312,-34.98,-11.43,80.16,-13.54,5.36,110.21,13.36,-8.35,135.44,10.11,-23.55,78.13,-17.49,-44.65,110.48,-27.33,-19.86,104.94,-35.0,0.19,72.0,-6.5,-5.45,116.25,22.5,0.01,128.24,20.0,-28.75,77.69,-11.0,-50.62,113.95,-34.59,-26.1,114.04,-1.0,1.0,-1.0,0.0856,0.3428,1.0,1.0,-0.7621,-1.0,0.7021,-1.0,1.0,1.0,-1.0,1.0,-1.0,-1.0,1.0,0.0,0.013,0.013,0.033,0.0,0.033,0.013,0.058,0.104,0.006,0.019,0.006,0.026,0.052,0.0,0.058,0.0,0.039,-0.609,-0.566,0.0414,-0.27,-0.181,0.5231,0.2086,-0.5062,0.9373,0.1611,-0.6995,0.0031,-0.3283,-1.0907,0.5507,-0.451,-0.6243,0.4203,-0.0506,0.0418,-0.2994,0.3012,-0.2517,0.3254,0.3013,0.0775,0.0939,-0.1582,-0.2049,-0.2787,0.3042,-0.2918,-0.076,-0.3021,-0.307,0.3026,-0.8885,-0.0787,-0.0393,0.3407,-0.2928,-1.0,1.0,-1.0,1.0,-0.0126,1.0,1.0,0.9438,-1.0,0.8431,-1.0,0.307,1.0,-1.0,1.0,-1.0,-1.0,1.0,0.0,0.0,0.0,0.0,0.0,0.0,0.0,0.0,0.0,0.3333,0.0,0.3333,0.0,0
2.04,run,-10.55,5.38,-9.14,18.84,-25.76,0.0,0.05,0.0,0.312,-34.89,-10.28,78.75,-12.13,3.87,111.71,14.77,-7.12,135.44,10.81,-24.87,77.17,-16.08,-45.97,110.04,-28.83,-21.36,106.26,-33.5,1.69,70.5,-8.0,-3.95,117.75,24.0,-1.49,126.74,21.5,-30.25,79.19,-9.5,-52.12,115.45,-35.0,-27.6,115.54,-0.2051,1.0,-1.0,-1.0,0.5442,1.0,1.0,-1.0,-1.0,1.0,-1.0,1.0,1.0,-0.5166,1.0,-1.0,-1.0,1.0,0.0,0.013,0.013,0.033,0.0,0.033,0.013,0.058,0.104,0.006,0.019,0.006,0.026,0.052,0.0,0.058,0.0,0.039,-0.609,-0.543,0.0153,-0.2439,-0.204,0.5492,0.2332,-0.4863,0.9373,0.1749,-0.721,-0.0184,-0.3037,-1.1137,0.5415,-0.4755,-0.6504,0.4433,-0.0354,0.1158,-0.3077,0.309,-0.2627,0.3259,0.3032,0.1293,0.0657,-0.0588,-0.2242,-0.2759,0.3052,-0.2908,-0.0878,-0.3038,-0.313,0.2983,-0.8924,0.0126,-0.0073,0.4516,-0.3233,-1.0,1.0,-1.0,0.0856,0.3428,1.0,1.0,-0.7621,-1.0,0.7021,-1.0,1.0,1.0,-1.0,1.0,-1.0,-1.0,1.0,0.0,0.0,0.0,0.0,0.0,0.0,0.0,0.0,0.0,0.3333,0.0,0.3333,0.0,0
2.08,run,-10.61,6.54,-2.24,29.13,-25.66,0.0,0.05,0.0,0.312,-34.98,-9.23,76.9,-10.63,2.55,113.2,16.17,-5.89,135.26,11.87,-26.1,76.55,-14.68,-47.37,110.21,-30.41,-22.85,107.49,-32.0,3.19,72.0,-9.5,-2.45,119.25,25.5,-2.99,125.24,23.0,-31.75,80.69,-8.0,-50.62,116.95,-35.0,-29.1,117.04,1.0,1.0,0.7303,-1.0,1.0,1.0,1.0,-1.0,-1.0,1.0,-1.0,1.0,1.0,-0.4159,1.0,-1.0,-1.0,1.0,0.0,0.013,0.013,0.033,0.0,0.033,0.013,0.058,0.104,0.006,0.019,0.006,0.026,0.052,0.0,0.058,0.0,0.039,-0.6075,-0.5231,-0.0092,-0.2194,-0.2301,0.5752,0.2577,-0.4648,0.9373,0.1871,-0.744,-0.0353,-0.2792,-1.1367,0.5338,-0.5016,-0.6765,0.4663,-0.019,0.1559,-0.3074,0.3084,-0.2818,0.326,0.3044,0.1711,0.046,0.0049,-0.2433,-0.2564,0.3058,-0.2899,-0.0903,-0.3105,-0.3169,0.2952,-0.9257,0.0848,-0.1595,0.3289,-0.4496,-0.2051,1.0,-1.0,-1.0,0.5442,1.0,1.0,-1.0,-1.0,1.0,-1.0,1.0,1.0,-0.5166,1.0,-1.0,-1.0,1.0,0.0,0.0,0.0,0.0,0.0,0.0,0.0,0.0,0.0,0.3333,0.0,0.3333,0.0,0
2.12,run,-10.76,7.16,-4.59,15.1,-23.53,0.0,0.05,0.0,0.312,-34.45,-7.82,75.85,-9.4,1.14,114.61,17.49,-4.57,134.65,13.18,-27.42,76.11,-13.27,-48.69,110.65,-31.73,-24.35,108.72,-30.5,4.69,73.5,-11.0,-0.95,117.75,27.0,-4.49,123.74,24.5,-33.25,82.19,-6.5,-49.12,118.45,-35.0,-30.6,118.54,1.0,1.0,0.5917,-1.0,0.8313,0.389,1.0,-1.0,-1.0,1.0,-1.0,1.0,1.0,1.0,1.0,-1.0,-1.0,1.0,0.006,0.019,0.006,0.019,0.0,0.026,0.026,0.065,0.0,0.019,0.033,0.006,0.033,0.026,0.019,0.026,0.0,0.078,-0.609,-0.5047,-0.0414,-0.1933,-0.2531,0.6013,0.2823,-0.4433,0.9342,0.2056,-0.7655,-0.046,-0.2546,-1.1612,0.5369,-0.5292,-0.7026,0.4878,-0.0191,0.1782,-0.336,0.3137,-0.2835,0.326,0.3051,0.2003,0.0207,0.0724,-0.2508,-0.2198,0.3061,-0.295,-0.0517,-0.3209,-0.3197,0.2872,-0.931,0.1867,-0.039,0.5083,-0.4479,1.0,1.0,0.7303,-1.0,1.0,1.0,1.0,-1.0,-1.0,1.0,-1.0,1.0,1.0,-0.4159,1.0,-1.0,-1.0,1.0,0.0,0.0,0.0,0.0,0.0,0.0,0.0,0.0,0.0,0.3333,0.0,0.3333,0.0,0
2.16,run,-10.53,7.68,3.6,14.46,-17.68,0.0,0.05,0.0,0.312,-33.57,-6.42,74.44,-8.53,-0.09,115.93,18.9,-3.6,133.95,14.68,-28.92,76.2,-11.87,-49.75,111.53,-32.96,-25.75,109.95,-29.0,6.19,75.0,-12.5,0.55,119.25,28.5,-5.99,122.24,26.0,-34.75,83.69,-5.0,-47.62,119.95,-35.0,-32.1,120.04,1.0,1.0,1.0,-1.0,1.0,0.8327,1.0,-1.0,-1.0,1.0,-1.0,1.0,0.8927,1.0,0.9316,-1.0,-1.0,1.0,0.006,0.019,0.006,0.019,0.0,0.026,0.026,0.065,0.0,0.019,0.033,0.006,0.033,0.026,0.019,0.026,0.0,0.078,-0.5998,-0.4801,-0.0598,-0.1718,-0.2777,0.6259,0.3053,-0.4203,0.9235,0.2286,-0.7885,-0.0537,-0.2301,-1.1842,0.5446,-0.5522,-0.7286,0.5093,0.021,0.2164,-0.304,0.2998,-0.2902,0.3199,0.2995,0.2262,-0.0256,0.1367,-0.2616,-0.1825,0.306,-0.2924,-0.0075,-0.3106,-0.3212,0.2813,-0.9441,0.24,-0.0802,0.2635,-0.4107,1.0,1.0,0.5917,-1.0,0.8313,0.389,1.0,-1.0,-1.0,1.0,-1.0,1.0,1.0,1.0,1.0,-1.0,-1.0,1.0,0.0,0.0,0.0,0.0,0.0,0.0,0.0,0.0,0.0,0.3333,0.0,0.3333,0.0,0
2.2,run,-10.47,8.04,0.24,9.89,-9.57,0.0,0.05,0.0,0.312,-32.61,-5.1,73.39,-7.82,-1.05,116.98,20.21,-2.9,133.07,16.08,-30.23,76.55,-10.46,-50.54,112.59,-33.66,-27.07,111.27,-27.5,7.69,76.5,-14.0,2.05,117.75,30.0,-7.49,120.74,27.5,-36.25,85.19,-3.5,-46.12,118.45,-35.0,-33.6,121.54,1.0,1.0,1.0,-1.0,0.6812,-0.0021,1.0,-1.0,-1.0,1.0,-1.0,1.0,0.26,1.0,0.393,-1.0,-1.0,1.0,0.006,0.019,0.006,0.019,0.0,0.026,0.026,0.065,0.0,0.019,0.033,0.006,0.033,0.026,0.019,0.026,0.0,0.078,-0.5844,-0.4556,-0.0844,-0.1565,-0.2991,0.6489,0.3298,-0.4034,0.9112,0.2546,-0.8145,-0.0522,-0.2056,-1.2026,0.5599,-0.5737,-0.7532,0.5308,0.0724,0.2438,-0.3052,0.2676,-0.2839,0.3105,0.302,0.2218,-0.0641,0.1938,-0.2812,-0.122,0.3065,-0.274,0.0525,-0.2982,-0.3172,0.2777,-0.9243,0.2862,0.0629,0.2524,-0.3085,1.0,1.0,1.0,-1.0,1.0,0.8327,1.0,-1.0,-1.0,1.0,-1.0,1.0,0.8927,1.0,0.9316,-1.0,-1.0,1.0,0.0,0.0,0.0,0.0,0.0,0.0,0.0,0.0,0.0,0.3333,0.0,0.3333,0.0,0
2.24,run,-10.39,7.93,1.49,-2.1,-8.85,0.0,0.05,0.0,0.312,-31.2,-3.87,72.6,-7.56,-1.85,117.86,21.62,-2.46,131.84,17.49,-31.64,77.34,-9.05,-51.15,113.99,-34.01,-28.48,112.59,-26.0,9.19,78.0,-15.5,3.55,116.25,31.5,-8.99,119.24,29.0,-37.75,86.69,-5.0,-44.62,116.95,-35.0,-35.1,123.04,1.0,1.0,1.0,-1.0,0.759,-0.1553,1.0,-1.0,-1.0,1.0,-1.0,1.0,-1.0,1.0,-0.6675,-1.0,-1.0,1.0,0.019,0.058,0.0,0.0,0.0,0.019,0.026,0.033,0.058,0.019,0.019,0.013,0.033,0.006,0.019,0.091,0.0,0.104,-0.5676,-0.4326,-0.1028,-0.1442,-0.316,0.6673,0.3528,-0.3912,0.8958,0.2792,-0.8376,-0.046,-0.181,-1.2164,0.5783,-0.586,-0.7762,0.5538,0.114,0.257,-0.2827,0.2334,-0.2621,0.2864,0.2978,0.2013,-0.1025,0.2278,-0.2832,-0.0624,0.3067,-0.2436,0.1058,-0.2548,-0.3084,0.2807,-0.9189,0.3177,0.0041,0.1726,-0.167,1.0,1.0,1.0,-1.0,0.6812,-0.0021,1.0,-1.0,-1.0,1.0,-1.0,1.0,0.26,1.0,0.393,-1.0,-1.0,1.0,0.0,0.0,0.0,0.0,0.0,0.0,0.0,0.0,0.0,0.3333,0.0,0.3333,0.0,0
2.28,run,-10.29,7.72,2.99,-2.96,-4.57,0.0,0.05,0.0,0.312,-29.79,-2.46,72.16,-7.56,-2.29,118.48,23.03,-2.37,130.87,18.98,-33.13,78.4,-7.73,-51.24,115.31,-34.01,-29.88,113.99,-24.5,10.69,79.5,-17.0,2.05,114.75,33.0,-10.49,117.74,30.5,-39.25,88.19,-6.5,-43.12,115.45,-35.0,-36.6,121.54,1.0,1.0,1.0,-1.0,0.2309,-0.9952,1.0,-1.0,-1.0,1.0,-1.0,1.0,-1.0,1.0,-1.0,-1.0,-1.0,0.0241,0.019,0.058,0.0,0.0,0.0,0.019,0.026,0.033,0.058,0.019,0.019,0.013,0.033,0.006,0.019,0.091,0.0,0.104,-0.543,-0.4111,-0.1166,-0.1396,-0.3298,0.6826,0.3774,-0.3835,0.8744,0.3037,-0.8621,-0.0322,-0.1565,-1.2272,0.6029,-0.5921,-0.8007,0.5768,0.1717,0.2603,-0.2496,0.1806,-0.2351,0.2579,0.3003,0.1696,-0.1521,0.2513,-0.2901,0.008,0.3066,-0.2107,0.166,-0.2014,-0.3078,0.2827,-0.9114,0.308,0.026,-0.0366,-0.1545,1.0,1.0,1.0,-1.0,0.759,-0.1553,1.0,-1.0,-1.0,1.0,-1.0,1.0,-1.0,1.0,-0.6675,-1.0,-1.0,1.0,0.0,0.0,0.0,0.0,0.0,0.0,0.0,0.0,0.0,0.3333,0.0,0.3333,0.0,0
2.32,run,-10.42,7.31,-1.4,-8.06,3.25,0.0,0.05,0.0,0.312,-28.48,-1.05,72.07,-7.56,-2.29,118.83,24.35,-2.46,129.73,20.3,-34.54,80.07,-6.77,-50.98,116.37,-34.01,-31.2,115.49,-23.0,12.19,81.0,-18.5,0.55,113.25,34.5,-11.99,116.24,32.0,-40.75,89.69,-8.0,-41.62,113.95,-35.0,-38.1,120.04,-0.436,1.0,1.0,-1.0,-0.322,-1.0,1.0,-1.0,-1.0,1.0,-1.0,1.0,-1.0,1.0,-1.0,-1.0,-1.0,-1.0,0.019,0.058,0.0,0.0,0.0,0.019,0.026,0.033,0.058,0.019,0.019,0.013,0.033,0.006,0.019,0.091,0.0,0.104,-0.5185,-0.3866,-0.1243,-0.1396,-0.3375,0.6934,0.4019,-0.382,0.8575,0.3298,-0.8882,-0.0138,-0.1335,-1.2287,0.6259,-0.5921,-0.8253,0.6013,0.2119,0.2739,-0.2034,0.1264,-0.1933,0.2207,0.3019,0.1245,-0.1695,0.2734,-0.3005,0.0744,0.3006,-0.1532,0.2021,-0.1409,-0.3071,0.2896,-0.9033,0.2898,0.0522,-0.0516,-0.0798,1.0,1.0,1.0,-1.0,0.2309,-0.9952,1.0,-1.0,-1.0,1.0,-1.0,1.0,-1.0,1.0,-1.0,-1.0,-1.0,0.0241,0.0,0.0,0.0,0.0,0.0,0.0,0.0,0.0,0.0,0.3333,0.0,0.3333,0.0,0
2.36,run,-10.69,6.61,-3.63,-16.33,10.19,0.0,0.05,0.0,0.312,-27.07,0.35,72.07,-8.35,-2.29,118.65,25.66,-3.16,128.58,21.71,-35.86,81.21,-5.98,-50.1,117.16,-34.01,-32.43,116.98,-24.5,13.69,82.5,-20.0,-0.95,111.75,35.0,-13.49,114.74,33.5,-42.25,91.19,-9.5,-40.12,112.45,-35.0,-39.6,118.54,-1.0,1.0,1.0,-1.0,-0.3388,-1.0,1.0,-0.0555,-1.0,1.0,-1.0,1.0,-1.0,1.0,-1.0,-1.0,-1.0,-1.0,0.013,0.052,0.033,0.013,0.026,0.0,0.045,0.006,0.169,0.019,0.019,0.019,0.013,0.019,0.0,0.071,0.0,0.052,-0.4955,-0.362,-0.1258,-0.1396,-0.3375,0.6995,0.4249,-0.3835,0.8376,0.3528,-0.9127,0.0153,-0.1166,-1.2241,0.6443,-0.5921,-0.8483,0.6274,0.2351,0.2843,-0.1481,0.0885,-0.1353,0.1776,0.2981,0.0814,-0.1939,0.2781,-0.3029,0.162,0.274,-0.0899,0.2109,-0.0987,-0.3018,0.301,-0.9141,0.2537,-0.0245,-0.1408,0.0568,-0.436,1.0,1.0,-1.0,-0.322,-1.0,1.0,-1.0,-1.0,1.0,-1.0,1.0,-1.0,1.0,-1.0,-1.0,-1.0,-1.0,0.0,0.0,0.0,0.0,0.0,0.0,0.0,0.0,0.0,0.3333,0.0,0.3333,0.0,0
2.4,run,-11.13,6.07,-7.71,-12.63,15.34,0.0,0.05,0.0,0.312,-25.75,1.76,72.69,-9.76,-1.93,118.3,27.07,-4.13,127.27,23.12,-37.44,82.53,-5.45,-49.22,117.51,-34.19,-33.84,118.21,-26.0,12.19,84.0,-21.5,-2.45,110.25,35.0,-11.99,113.24,35.0,-43.75,92.69,-11.0,-41.62,110.95,-33.5,-41.1,117.04,-1.0,-0.4543,1.0,-1.0,-0.034,-1.0,1.0,1.0,-1.0,1.0,-1.0,1.0,-1.0,-1.0,-1.0,0.1947,-1.0,-1.0,0.013,0.052,0.033,0.013,0.026,0.0,0.045,0.006,0.169,0.019,0.019,0.019,0.013,0.019,0.0,0.071,0.0,0.052,-0.4709,-0.3375,-0.1258,-0.1534,-0.3375,0.6964,0.4479,-0.3958,0.8176,0.3774,-0.9357,0.0353,-0.1028,-1.2088,0.6581,-0.5921,-0.8698,0.6535,0.2569,0.2913,-0.1037,0.01,-0.0947,0.1128,0.2952,0.0108,-0.2107,0.287,-0.2986,0.1884,0.2437,-0.0053,0.1995,-0.0691,-0.292,0.3088,-0.9381,0.1926,-0.0633,-0.285,0.1779,-1.0,1.0,1.0,-1.0,-0.3388,-1.0,1.0,-0.0555,-1.0,1.0,-1.0,1.0,-1.0,1.0,-1.0,-1.0,-1.0,-1.0,0.0,0.0,0.0,0.0,0.0,0.0,0.0,0.0,0.0,0.3333,0.0,0.3333,0.0,0
2.44,run,-12.01,5.65,-19.71,-8.93,10.26,0.0,0.05,0.0,0.312,-24.79,3.08,73.56,-11.07,-1.58,117.33,28.48,-5.36,126.04,24.52,-38.85,84.11,-5.27,-48.08,117.16,-34.28,-35.16,119.09,-27.5,10.69,85.5,-23.0,-3.95,108.75,35.0,-10.49,111.74,35.0,-45.25,94.19,-12.5,-43.12,109.45,-32.0,-42.6,115.54,-1.0,0.239,1.0,-1.0,-0.05,-1.0,1.0,1.0,-1.0,1.0,-1.0,1.0,-1.0,-1.0,-1.0,1.0,-1.0,-1.0,0.013,0.052,0.033,0.013,0.026,0.0,0.045,0.006,0.169,0.019,0.019,0.019,0.013,0.019,0.0,0.071,0.0,0.052,-0.4479,-0.3129,-0.115,-0.1779,-0.3313,0.6903,0.4725,-0.4126,0.7946,0.4019,-0.9633,0.0583,-0.0936,-1.1934,0.6642,-0.5952,-0.8943,0.675,0.2667,0.2966,-0.032,-0.0857,-0.0431,0.0558,0.2994,-0.0562,-0.2344,0.2936,-0.3133,0.2188,0.2054,0.0543,0.1629,-0.0599,-0.2971,0.2973,-0.9763,0.145,-0.1346,-0.2204,0.2677,-1.0,-0.4543,1.0,-1.0,-0.034,-1.0,1.0,1.0,-1.0,1.0,-1.0,1.0,-1.0,-1.0,-1.0,0.1947,-1.0,-1.0,0.0,0.0,0.0,0.0,0.0,0.0,0.0,0.0,0.0,0.3333,0.0,0.3333,0.0,0
2.48,run,-12.06,5.16,-1.2,-11.01,8.21,0.0,0.05,0.0,0.312,-24.08,4.31,74.79,-12.48,-1.58,116.37,29.97,-6.94,124.98,25.93,-40.17,85.52,-5.62,-46.85,117.16,-34.1,-36.39,119.71,-29.0,9.19,87.0,-24.5,-2.45,107.25,35.0,-8.99,110.24,35.0,-46.75,95.69,-14.0,-44.62,107.95,-30.5,-44.1,114.04,-1.0,-0.1601,1.0,-1.0,0.8226,-1.0,1.0,1.0,-1.0,1.0,-1.0,1.0,-1.0,-1.0,-1.0,1.0,-1.0,-1.0,0.0,0.104,0.045,0.026,0.0,0.019,0.026,0.0,0.286,0.019,0.033,0.013,0.013,0.052,0.019,0.006,0.0,0.019,-0.431,-0.2899,-0.0997,-0.201,-0.3252,0.6734,0.497,-0.4341,0.7731,0.4264,-0.9879,0.0859,-0.0905,-1.1735,0.6581,-0.5967,-0.9173,0.6903,0.2493,0.293,0.0345,-0.1454,-0.0074,-0.0236,0.3006,-0.119,-0.2438,0.2966,-0.3104,0.2556,0.1552,0.112,0.0912,-0.0476,-0.2934,0.265,-1.053,0.1084,-0.344,-0.1559,0.1791,-1.0,0.239,1.0,-1.0,-0.05,-1.0,1.0,1.0,-1.0,1.0,-1.0,1.0,-1.0,-1.0,-1.0,1.0,-1.0,-1.0,0.0,0.0,0.0,0.0,0.0,0.0,0.0,0.0,0.0,0.3333,0.0,0.3333,0.0,0
2.52,run,-12.11,4.68,-2.37,-8.22,10.44,0.0,0.05,0.0,0.312,-23.55,5.45,76.2,-13.89,-1.58,114.79,31.38,-8.26,123.84,27.42,-41.48,86.84,-6.42,-45.88,116.28,-33.57,-37.71,119.88,-30.5,7.69,88.5,-26.0,-3.95,105.75,35.0,-7.49,108.74,35.0,-48.25,97.19,-15.5,-46.12,106.45,-29.0,-45.6,112.54,-1.0,-1.0,1.0,-1.0,0.2628,-1.0,1.0,1.0,-1.0,1.0,-1.0,1.0,-1.0,-1.0,-1.0,1.0,-1.0,-1.0,0.0,0.104,0.045,0.026,0.0,0.019,0.026,0.0,0.286,0.019,0.033,0.013,0.013,0.052,0.019,0.006,0.0,0.019,-0.4188,-0.2684,-0.0782,-0.2255,-0.3252,0.6565,0.5231,-0.4617,0.7547,0.451,-1.0109,0.1104,-0.0966,-1.152,0.6581,-0.5937,-0.9388,0.701,0.2205,0.2856,0.1047,-0.1938,-0.0052,-0.0798,0.3082,-0.1868,-0.2397,0.2996,-0.3035,0.271,0.0856,0.1589,0.0639,-0.0218,-0.2859,0.2258,-1.0573,0.0657,-0.0209,-0.1922,0.1433,-1.0,-0.1601,1.0,-1.0,0.8226,-1.0,1.0,1.0,-1.0,1.0,-1.0,1.0,-1.0,-1.0,-1.0,1.0,-1.0,-1.0,0.0,0.0,0.0,0.0,0.0,0.0,0.0,0.0,0.0,0.3333,0.0,0.3333,0.0,0
2.56,run,-12.43,4.07,-9.31,-13.69,16.92,0.0,0.05,0.0,0.312,-23.47,6.42,77.52,-15.47,-1.41,113.38,32.52,-9.23,122.61,28.83,-42.8,88.33,-7.38,-45.18,115.05,-32.61,-39.02,119.97,-32.0,6.19,90.0,-27.5,-5.45,104.25,35.0,-5.99,107.24,35.0,-49.75,98.69,-17.0,-47.62,104.95,-27.5,-47.1,111.04,-1.0,-1.0,1.0,-1.0,0.2762,-1.0,1.0,1.0,-1.0,1.0,-1.0,1.0,-1.0,-1.0,-1.0,1.0,-1.0,-1.0,0.0,0.104,0.045,0.026,0.0,0.019,0.026,0.0,0.286,0.019,0.033,0.013,0.013,0.052,0.019,0.006,0.0,0.019,-0.4096,-0.2485,-0.0537,-0.25,-0.3252,0.6289,0.5476,-0.4847,0.7348,0.4771,-1.0339,0.1335,-0.1104,-1.1351,0.6427,-0.5844,-0.9618,0.7041,0.1889,0.2747,0.1653,-0.2276,-0.0036,-0.1593,0.3077,-0.217,-0.2425,0.3075,-0.2987,0.2759,0.0082,0.1745,-0.0128,0.0192,-0.2864,0.1695,-1.0622,0.0245,-0.0413,-0.1436,0.1822,-1.0,-1.0,1.0,-1.0,0.2628,-1.0,1.0,1.0,-1.0,1.0,-1.0,1.0,-1.0,-1.0,-1.0,1.0,-1.0,-1.0,0.0,0.0,0.0,0.0,0.0,0.0,0.0,0.0,0.0,0.3333,0.0,0.3333,0.0,0
2.6,run,-13.21,3.51,-18.17,-14.06,17.16,0.0,0.05,0.0,0.331,-23.55,7.12,78.93,-16.96,-2.55,112.06,33.4,-9.76,121.38,30.23,-44.03,89.74,-8.44,-44.74,113.55,-31.11,-40.25,119.79,-33.5,4.69,91.5,-29.0,-3.95,102.75,35.0,-4.49,105.74,35.0,-51.25,100.19,-18.5,-49.12,103.45,-26.0,-48.6,109.54,-1.0,-1.0,1.0,-1.0,0.6832,-1.0,1.0,1.0,-1.0,1.0,-1.0,1.0,-1.0,-1.0,-1.0,1.0,-1.0,-1.0,0.026,0.091,0.045,0.019,0.013,0.013,0.019,0.013,0.331,0.033,0.045,0.013,0.058,0.149,0.006,0.019,0.019,0.019,-0.408,-0.2316,-0.0307,-0.2777,-0.3221,0.6044,0.5676,-0.5016,0.7133,0.5016,-1.0569,0.1595,-0.1273,-1.1229,0.6213,-0.5676,-0.9848,0.7056,0.138,0.2559,0.2025,-0.2635,0.009,-0.2041,0.2906,-0.2156,-0.2507,0.3078,-0.2959,0.2915,-0.0579,0.1684,-0.0899,0.0771,-0.2872,0.1245,-1.0898,-0.0288,-0.1625,-0.2389,0.2953,-1.0,-1.0,1.0,-1.0,0.2762,-1.0,1.0,1.0,-1.0,1.0,-1.0,1.0,-1.0,-1.0,-1.0,1.0,-1.0,-1.0,0.0,0.0,0.0,0.0,0.0,0.0,0.0,0.0,0.0,0.3333,0.0,0.3333,0.0,0
2.64,run,-14.18,3.11,-25.37,-8.54,9.5,0.0,0.05,0.0,0.331,-24.52,7.65,80.42,-18.37,-3.52,110.57,34.01,-10.28,120.06,31.64,-45.35,91.05,-9.76,-44.56,111.97,-29.97,-40.87,119.09,-35.0,3.19,93.0,-30.5,-2.45,101.25,35.0,-2.99,104.24,35.0,-52.75,101.69,-20.0,-50.62,101.95,-24.5,-50.1,108.04,-1.0,-1.0,1.0,-1.0,1.0,-1.0,1.0,1.0,-1.0,1.0,-0.9273,1.0,-1.0,-1.0,-1.0,1.0,-1.0,-1.0,0.026,0.091,0.045,0.019,0.013,0.013,0.019,0.013,0.331,0.033,0.045,0.013,0.058,0.149,0.006,0.019,0.019,0.019,-0.4096,-0.2194,-0.0061,-0.3037,-0.3421,0.5814,0.5829,-0.5108,0.6918,0.5262,-1.0784,0.1841,-0.1457,-1.1152,0.5952,-0.5415,-1.0063,0.7026,0.0909,0.2249,0.2332,-0.2816,-0.068,-0.2286,0.2606,-0.1852,-0.2556,0.307,-0.2872,0.2955,-0.1092,0.1465,-0.1602,0.1512,-0.2811,0.0757,-1.1574,-0.0778,-0.3171,-0.2455,0.2995,-1.0,-1.0,1.0,-1.0,0.6832,-1.0,1.0,1.0,-1.0,1.0,-1.0,1.0,-1.0,-1.0,-1.0,1.0,-1.0,-1.0,0.0,0.0,0.0,0.0,0.0,0.0,0.0,0.0,0.0,0.3333,0.0,0.3333,0.0,0
2.68,run,-14.78,2.89,-15.03,-5.17,3.35,0.0,0.05,0.0,0.331,-25.4,7.82,81.83,-19.78,-4.22,109.16,34.37,-10.46,118.56,32.78,-46.67,92.55,-11.16,-44.47,111.01,-28.56,-42.8,117.95,-35.0,1.69,94.5,-32.0,-0.95,99.75,35.0,-1.49,102.74,35.0,-54.25,103.19,-21.5,-52.12,100.45,-23.0,-51.6,106.54,-1.0,-1.0,1.0,-1.0,1.0,-1.0,1.0,1.0,-1.0,1.0,-0.7933,1.0,-1.0,-1.0,-1.0,1.0,-1.0,-1.0,0.026,0.091,0.045,0.019,0.013,0.013,0.019,0.013,0.331,0.033,0.045,0.013,0.058,0.149,0.006,0.019,0.019,0.019,-0.4264,-0.2102,0.0199,-0.3283,-0.359,0.5553,0.5937,-0.52,0.6688,0.5507,-1.1014,0.2071,-0.1687,-1.1121,0.5676,-0.5216,-1.017,0.6903,0.0003,0.192,0.2612,-0.2893,-0.111,-0.258,0.2228,-0.1642,-0.2653,0.307,-0.2874,0.2933,-0.1628,0.1141,-0.2158,0.1807,-0.2371,0.0069,-1.2426,-0.1132,-0.4428,-0.149,0.1658,-1.0,-1.0,1.0,-1.0,1.0,-1.0,1.0,1.0,-1.0,1.0,-0.9273,1.0,-1.0,-1.0,-1.0,1.0,-1.0,-1.0,0.0,0.0,0.0,0.0,0.0,0.0,0.0,0.0,0.0,0.3333,0.0,0.3333,0.0,0
2.72,run,-15.55,2.77,-20.72,-3.51,-0.04,0.0,0.05,0.0,0.442,-26.72,7.82,83.32,-21.27,-4.57,107.75,34.45,-9.76,117.16,33.75,-47.99,93.96,-12.57,-44.56,109.16,-27.07,-44.12,116.46,-35.0,0.19,96.0,-33.5,0.55,98.25,35.0,0.01,101.24,35.0,-55.75,104.69,-23.0,-53.62,98.95,-21.5,-53.1,105.04,-1.0,-1.0,1.0,-1.0,1.0,-1.0,1.0,1.0,-1.0,1.0,-0.6649,1.0,-1.0,-1.0,-1.0,1.0,-1.0,-1.0,0.039,0.006,0.039,0.026,0.006,0.013,0.013,0.006,0.442,0.013,0.084,0.013,0.026,0.0,0.0,0.033,0.026,0.013,-0.4418,-0.2071,0.0445,-0.3528,-0.3712,0.5308,0.5998,-0.5231,0.6427,0.5706,-1.1244,0.2332,-0.1933,-1.1106,0.5507,-0.497,-1.0508,0.6703,-0.0573,0.1459,0.2748,-0.2945,-0.1237,-0.2726,0.1789,-0.1264,-0.2835,0.2897,-0.2875,0.3031,-0.206,0.0856,-0.2143,0.2185,-0.2925,-0.0699,-1.2949,-0.1324,-0.2623,-0.0903,0.0585,-1.0,-1.0,1.0,-1.0,1.0,-1.0,1.0,1.0,-1.0,1.0,-0.7933,1.0,-1.0,-1.0,-1.0,1.0,-1.0,-1.0,0.0,0.0,0.0,0.0,0.0,0.0,0.0,0.0,0.0,0.3333,0.0,0.3333,0.0,0
2.76,run,-16.69,2.46,-28.43,-8.58,1.58,0.0,0.05,0.0,0.442,-28.21,7.73,84.81,-22.5,-4.66,106.26,34.54,-9.14,115.66,34.37,-49.31,95.36,-14.15,-45.62,107.93,-25.84,-45.53,115.05,-35.0,-1.31,97.5,-35.0,2.05,96.75,35.0,1.51,99.74,35.0,-54.25,106.19,-24.5,-55.12,97.45,-20.0,-54.6,103.54,-1.0,-1.0,1.0,-1.0,1.0,-1.0,1.0,1.0,-1.0,1.0,-0.4583,1.0,-1.0,-1.0,-1.0,1.0,-1.0,-1.0,0.039,0.006,0.039,0.026,0.006,0.013,0.013,0.006,0.442,0.013,0.084,0.013,0.026,0.0,0.0,0.033,0.026,0.013,-0.4648,-0.2071,0.0706,-0.3789,-0.3774,0.5062,0.6013,-0.5108,0.6182,0.5875,-1.1474,0.2577,-0.2178,-1.1121,0.5185,-0.4709,-1.0738,0.6443,-0.1264,0.1021,0.2902,-0.304,-0.1096,-0.2829,0.131,-0.0425,-0.2905,0.2661,-0.2875,0.3042,-0.2362,0.0542,-0.2708,0.2508,-0.291,-0.1468,-1.3618,-0.1429,-0.3617,-0.0613,-0.0006,-1.0,-1.0,1.0,-1.0,1.0,-1.0,1.0,1.0,-1.0,1.0,-0.6649,1.0,-1.0,-1.0,-1.0,1.0,-1.0,-1.0,0.0,0.0,0.0,0.0,0.0,0.0,0.0,0.0,0.0,0.3333,0.0,0.3333,0.0,0
2.8,run,-17.31,2.4,-17.52,-2.01,14.07,0.0,0.05,0.0,0.442,-29.62,6.86,86.31,-23.99,-4.57,104.94,34.54,-8.17,114.17,34.72,-50.71,96.77,-15.56,-46.49,106.52,-24.52,-46.85,113.64,-35.0,-2.81,99.0,-35.0,3.55,95.25,35.0,3.01,98.24,35.0,-52.75,107.69,-26.0,-56.62,95.95,-18.5,-56.1,102.04,-1.0,-1.0,1.0,-1.0,1.0,-1.0,1.0,1.0,-1.0,1.0,0.1326,1.0,-1.0,-1.0,-1.0,1.0,-1.0,-1.0,0.039,0.006,0.039,0.026,0.006,0.013,0.013,0.006,0.442,0.013,0.084,0.013,0.026,0.0,0.0,0.033,0.026,0.013,-0.4909,-0.2086,0.0966,-0.4004,-0.3789,0.4801,0.6029,-0.5001,0.5921,0.5983,-1.1704,0.2823,-0.2454,-1.1305,0.497,-0.4495,-1.0983,0.6197,-0.1863,0.0657,0.3009,-0.2933,-0.0825,-0.2958,0.0975,0.0105,-0.3012,0.2265,-0.2876,0.305,-0.2689,-0.0311,-0.2701,0.2561,-0.2958,-0.1948,-1.4613,-0.1699,-0.4963,-0.1498,0.0276,-1.0,-1.0,1.0,-1.0,1.0,-1.0,1.0,1.0,-1.0,1.0,-0.4583,1.0,-1.0,-1.0,-1.0,1.0,-1.0,-1.0,0.0,0.0,0.0,0.0,0.0,0.0,0.0,0.0,0.0,0.3333,0.0,0.3333,0.0,0
2.84,run,-18.45,2.67,-29.96,6.66,22.03,0.0,0.05,0.0,0.442,-30.85,5.71,87.8,-25.49,-3.78,103.45,34.54,-6.86,112.68,34.8,-51.86,98.17,-16.79,-47.99,104.94,-23.2,-48.25,112.32,-35.0,-4.31,100.5,-35.0,5.05,93.75,35.0,4.51,96.74,35.0,-51.25,109.19,-27.5,-58.12,94.45,-17.0,-57.6,100.54,-1.0,-1.0,1.0,-1.0,1.0,-1.0,1.0,1.0,-1.0,1.0,0.977,1.0,-1.0,-1.0,-1.0,1.0,-0.985,-1.0,0.058,0.0,0.033,0.013,0.006,0.013,0.006,0.045,0.26,0.006,0.052,0.013,0.039,0.0,0.0,0.052,0.026,0.019,-0.5154,-0.224,0.1227,-0.4264,-0.3774,0.4571,0.6029,-0.4832,0.566,0.6044,-1.195,0.3068,-0.27,-1.1459,0.4725,-0.4264,-1.1213,0.5952,-0.2223,-0.0114,0.3083,-0.303,-0.052,-0.2932,0.0682,0.0705,-0.3084,0.1815,-0.2932,0.3054,-0.2801,-0.0792,-0.281,0.2654,-0.2932,-0.2282,-1.5155,-0.1753,-0.3058,-0.0351,0.2456,-1.0,-1.0,1.0,-1.0,1.0,-1.0,1.0,1.0,-1.0,1.0,0.1326,1.0,-1.0,-1.0,-1.0,1.0,-1.0,-1.0,0.0,0.0,0.0,0.0,0.0,0.0,0.0,0.0,0.0,0.3333,0.0,0.3333,0.0,0
2.88,run,-19.17,4.04,-19.05,35.36,30.2,0.0,0.05,0.0,0.442,-32.08,4.48,89.03,-26.81,-2.9,102.04,34.54,-5.54,111.01,34.8,-53.0,99.58,-18.11,-49.48,103.62,-21.88,-49.83,110.92,-35.0,-5.81,102.0,-35.0,6.55,92.25,35.0,6.01,95.24,35.0,-49.75,110.69,-29.0,-59.62,92.95,-15.5,-56.1,99.04,-1.0,-0.8512,1.0,-1.0,1.0,-1.0,1.0,1.0,-1.0,1.0,1.0,1.0,-1.0,-1.0,-1.0,1.0,-0.2421,-1.0,0.058,0.0,0.033,0.013,0.006,0.013,0.006,0.045,0.26,0.006,0.052,0.013,0.039,0.0,0.0,0.052,0.026,0.019,-0.5369,-0.2439,0.1488,-0.4525,-0.3636,0.431,0.6029,-0.4602,0.54,0.6059,-1.2149,0.3313,-0.2915,-1.172,0.4449,-0.4034,-1.1459,0.5722,-0.2361,-0.0828,0.3136,-0.3099,0.0154,-0.303,0.0478,0.1357,-0.3137,0.1328,-0.28,0.3058,-0.2766,-0.1532,-0.3002,0.2721,-0.2973,-0.2461,-1.6154,-0.1513,-0.5229,0.1163,0.3844,-1.0,-1.0,1.0,-1.0,1.0,-1.0,1.0,1.0,-1.0,1.0,0.977,1.0,-1.0,-1.0,-1.0,1.0,-0.985,-1.0,0.0,0.0,0.0,0.0,0.0,0.0,0.0,0.0,0.0,0.3333,0.0,0.3333,0.0,0
2.92,run,-19.84,4.1,-10.98,5.78,29.47,0.0,0.05,0.0,0.442,-32.78,2.9,90.44,-28.92,-1.23,100.55,34.54,-4.04,109.34,34.8,-53.79,100.99,-19.51,-50.8,102.13,-20.39,-51.42,109.51,-35.0,-4.31,103.5,-35.0,8.05,90.75,35.0,4.51,93.74,35.0,-48.25,112.19,-30.5,-61.12,91.45,-14.0,-54.6,97.54,-1.0,1.0,1.0,-1.0,1.0,-1.0,1.0,-1.0,-0.7688,1.0,0.3537,1.0,-1.0,-1.0,-1.0,1.0,0.9729,-1.0,0.058,0.0,0.033,0.013,0.006,0.013,0.006,0.045,0.26,0.006,0.052,0.013,0.039,0.0,0.0,0.052,0.026,0.019,-0.5584,-0.2654,0.1703,-0.4755,-0.3482,0.4065,0.6029,-0.4372,0.5108,0.6059,-1.2349,0.3559,-0.3145,-1.198,0.4218,-0.3804,-1.1735,0.5476,-0.2459,-0.1386,0.3001,-0.3033,0.0684,-0.3043,0.0334,0.1814,-0.329,0.093,-0.2709,0.3062,-0.28,-0.2052,-0.2966,0.2768,-0.3118,-0.2644,-1.6782,-0.0321,-0.3324,0.6171,0.5271,-1.0,-0.8512,1.0,-1.0,1.0,-1.0,1.0,1.0,-1.0,1.0,1.0,1.0,-1.0,-1.0,-1.0,1.0,-0.2421,-1.0,0.0,0.0,0.0,0.0,0.0,0.0,0.0,0.0,0.0,0.3333,0.0,0.3333,0.0,0
2.96,run,-21.66,5.04,-42.63,20.67,34.16,0.0,0.05,0.0,0.442,-33.31,1.58,91.85,-29.18,-0.09,99.23,34.54,-2.64,107.58,34.89,-54.32,102.3,-20.92,-52.21,100.72,-19.07,-52.73,108.11,-35.0,-2.81,105.0,-35.0,9.55,89.25,35.0,6.01,92.24,35.0,-46.75,113.69,-32.0,-62.62,89.95,-12.5,-53.1,96.04,-1.0,0.9744,1.0,-1.0,1.0,-1.0,1.0,1.0,-0.6943,1.0,1.0,1.0,-1.0,-1.0,-1.0,1.0,-0.0246,-1.0,0.143,0.0,0.039,0.045,0.019,0.019,0.006,0.033,0.149,0.0,0.0,0.026,0.045,0.0,0.0,0.071,0.006,0.019,-0.5706,-0.293,0.1948,-0.5123,-0.3191,0.3804,0.6029,-0.4111,0.4817,0.6059,-1.2487,0.3804,-0.339,-1.221,0.3958,-0.3543,-1.2011,0.5231,-0.2181,-0.2005,0.3021,-0.3503,0.1571,-0.3107,0.0234,0.2247,-0.3395,0.0651,-0.2414,0.3063,-0.288,-0.2299,-0.3053,0.2915,-0.3217,-0.2771,-1.7359,-0.0268,-0.1917,0.1008,0.5143,-1.0,1.0,1.0,-1.0,1.0,-1.0,1.0,-1.0,-0.7688,1.0,0.3537,1.0,-1.0,-1.0,-1.0,1.0,0.9729,-1.0,0.0,0.0,0.0,0.0,0.0,0.0,0.0,0.0,0.0,0.3333,0.0,0.3333,0.0,0
3.0,run,-22.63,5.54,-22.24,9.21,22.59,0.0,0.05,0.0,0.442,-33.49,0.26,93.25,-31.73,1.32,97.73,34.72,-1.05,105.73,35.07,-54.84,103.62,-22.5,-53.61,99.32,-17.58,-53.88,106.61,-35.0,-1.31,106.5,-35.0,11.05,87.75,35.0,4.51,93.74,35.0,-45.25,115.19,-33.5,-64.12,88.45,-11.0,-51.6,94.54,-1.0,1.0,1.0,-1.0,1.0,-1.0,1.0,0.2507,1.0,1.0,0.7334,1.0,-1.0,-1.0,-1.0,1.0,0.8039,-1.0,0.143,0.0,0.039,0.045,0.019,0.019,0.006,0.033,0.149,0.0,0.0,0.026,0.045,0.0,0.0,0.071,0.006,0.019,-0.5798,-0.316,0.2194,-0.517,-0.2991,0.3574,0.6029,-0.3866,0.451,0.6075,-1.2579,0.4034,-0.3636,-1.2456,0.3712,-0.3313,-1.2241,0.4985,-0.1874,-0.2271,0.304,-0.2626,0.1852,-0.3043,0.0164,0.2499,-0.3534,0.0513,-0.2037,0.3012,-0.2942,-0.2535,-0.3063,0.2909,-0.312,-0.2865,-1.8948,0.0552,-0.7441,0.3607,0.5963,-1.0,0.9744,1.0,-1.0,1.0,-1.0,1.0,1.0,-0.6943,1.0,1.0,1.0,-1.0,-1.0,-1.0,1.0,-0.0246,-1.0,0.0,0.0,0.0,0.0,0.0,0.0,0.0,0.0,0.0,0.3333,0.0,0.3333,0.0,0
3.04,run,-23.37,5.91,-17.11,5.94,26.72,0.0,0.05,0.0,0.442,-33.57,-0.97,94.75,-32.43,2.9,96.33,34.72,0.35,104.06,35.07,-54.4,104.94,-24.08,-54.84,98.0,-16.08,-54.67,105.29,-35.0,0.19,108.0,-35.0,12.55,86.25,35.0,3.01,95.24,35.0,-43.75,116.69,-35.0,-65.62,86.95,-9.5,-50.1,93.04,-1.0,1.0,1.0,-1.0,1.0,-1.0,1.0,-0.9514,1.0,1.0,1.0,1.0,-1.0,-1.0,-1.0,1.0,0.5079,-1.0,0.143,0.0,0.039,0.045,0.019,0.019,0.006,0.033,0.149,0.0,0.0,0.026,0.045,0.0,0.0,0.071,0.006,0.019,-0.5829,-0.339,0.2439,-0.5614,-0.2746,0.3313,0.6059,-0.359,0.4188,0.6105,-1.2671,0.4264,-0.3912,-1.2701,0.3467,-0.3053,-1.2441,0.4725,-0.1427,-0.2451,0.3047,-0.3503,0.2215,-0.3106,0.023,0.2783,-0.368,0.0474,-0.177,0.297,-0.3093,-0.2693,-0.3063,0.3012,-0.293,-0.2982,-1.98,0.0995,-0.3882,0.1607,0.3943,-1.0,1.0,1.0,-1.0,1.0,-1.0,1.0,0.2507,1.0,1.0,0.7334,1.0,-1.0,-1.0,-1.0,1.0,0.8039,-1.0,0.0,0.0,0.0,0.0,0.0,0.0,0.0,0.0,0.0,0.3333,0.0,0.3333,0.0,0
3.08,run,-23.87,6.37,-11.03,7.94,18.88,0.0,0.05,0.0,0.442,-33.57,-2.02,96.33,-33.49,4.39,94.66,34.72,1.85,102.13,35.07,-53.17,106.61,-25.75,-56.25,96.5,-14.33,-55.28,103.54,-35.0,1.69,109.5,-35.0,14.05,84.75,35.0,1.51,96.74,35.0,-42.25,118.19,-35.0,-67.12,85.45,-8.0,-48.6,91.54,-1.0,1.0,1.0,-1.0,1.0,-0.7458,1.0,-1.0,1.0,1.0,1.0,1.0,-1.0,-1.0,-1.0,1.0,0.6311,-1.0,0.117,0.0,0.039,0.0,0.013,0.013,0.0,0.013,0.052,0.0,0.026,0.026,0.019,0.019,0.006,0.052,0.006,0.026,-0.5844,-0.3605,0.27,-0.5737,-0.247,0.3068,0.6059,-0.3344,0.3896,0.6105,-1.2594,0.4495,-0.4188,-1.2916,0.3237,-0.2792,-1.2579,0.4495,-0.1056,-0.2521,0.3111,-0.2913,0.2586,-0.3095,0.0161,0.2869,-0.3669,0.0332,-0.0951,0.2942,-0.3201,-0.2691,-0.3007,0.3087,-0.2569,-0.295,-2.0445,0.1315,-0.2987,0.1037,0.4664,-1.0,1.0,1.0,-1.0,1.0,-1.0,1.0,-0.9514,1.0,1.0,1.0,1.0,-1.0,-1.0,-1.0,1.0,0.5079,-1.0,0.0,0.0,0.0,0.0,0.0,0.0,0.0,0.0,0.0,0.3333,0.0,0.3333,0.0,0
3.12,run,-24.36,6.66,-13.21,8.09,19.83,0.0,0.05,0.0,0.442,-33.57,-2.64,97.82,-34.72,5.89,93.16,34.72,2.72,100.63,35.07,-52.12,108.02,-27.16,-57.66,95.01,-13.01,-55.37,102.22,-35.0,3.19,111.0,-35.0,15.55,83.25,35.0,0.01,98.24,35.0,-40.75,119.69,-35.0,-68.62,83.95,-6.5,-47.1,90.04,-1.0,1.0,1.0,-1.0,1.0,-0.186,1.0,-1.0,1.0,1.0,1.0,1.0,-1.0,-1.0,-1.0,1.0,1.0,-1.0,0.117,0.0,0.039,0.0,0.013,0.013,0.0,0.013,0.052,0.0,0.026,0.026,0.019,0.019,0.006,0.052,0.006,0.026,-0.5844,-0.3789,0.2976,-0.5921,-0.2209,0.2777,0.6059,-0.3083,0.3559,0.6105,-1.2379,0.4786,-0.4479,-1.3162,0.2976,-0.2485,-1.2686,0.4188,-0.0739,-0.2355,0.3063,-0.2629,0.2646,-0.3101,0.0112,0.2844,-0.365,0.0232,0.0022,0.2994,-0.3175,-0.267,-0.2941,0.3144,-0.2143,-0.3049,-2.0876,0.1712,-0.1925,0.1386,0.3295,-1.0,1.0,1.0,-1.0,1.0,-0.7458,1.0,-1.0,1.0,1.0,1.0,1.0,-1.0,-1.0,-1.0,1.0,0.6311,-1.0,0.0,0.0,0.0,0.0,0.0,0.0,0.0,0.0,0.0,0.3333,0.0,0.3333,0.0,0
3.16,run,-24.68,6.72,-6.81,-1.29,20.93,0.0,0.05,0.0,0.442,-33.57,-2.81,99.23,-34.19,7.29,91.76,34.72,3.52,99.32,35.07,-51.06,109.34,-28.65,-59.15,93.6,-11.6,-55.37,100.81,-35.0,4.69,109.5,-35.0,17.05,84.75,35.0,-1.49,99.74,35.0,-39.25,118.19,-35.0,-70.12,82.45,-5.0,-45.6,88.54,-1.0,1.0,0.3109,-1.0,1.0,0.7857,1.0,-1.0,1.0,1.0,0.9514,0.1478,-1.0,-1.0,-0.8413,1.0,1.0,-1.0,0.117,0.0,0.039,0.0,0.013,0.013,0.0,0.013,0.052,0.0,0.026,0.026,0.019,0.019,0.006,0.052,0.006,0.026,-0.5844,-0.3896,0.3237,-0.6136,-0.1948,0.2516,0.6059,-0.293,0.3298,0.6105,-1.2195,0.5031,-0.4725,-1.3407,0.2715,-0.2255,-1.2701,0.3958,-0.0518,-0.205,0.3118,-0.2642,0.2826,-0.3145,0.0079,0.2564,-0.3529,0.0163,0.0703,0.3012,-0.3139,-0.2786,-0.3033,0.306,-0.1557,-0.2993,-2.1305,0.1966,-0.2306,0.1412,0.346,-1.0,1.0,1.0,-1.0,1.0,-0.186,1.0,-1.0,1.0,1.0,1.0,1.0,-1.0,-1.0,-1.0,1.0,1.0,-1.0,0.0,0.0,0.0,0.0,0.0,0.0,0.0,0.0,0.0,0.3333,0.0,0.3333,0.0,0
3.2,run,-24.85,6.58,-4.85,-3.68,19.13,0.0,0.05,0.0,0.442,-33.57,-2.9,100.72,-35.33,8.7,90.35,34.8,3.87,98.26,35.07,-50.01,110.65,-30.06,-60.38,92.2,-10.11,-55.11,99.4,-35.0,3.19,108.0,-35.0,18.55,86.25,35.0,-2.99,101.24,35.0,-37.75,116.69,-35.0,-71.62,83.95,-3.5,-44.1,87.04,-1.0,-0.159,-0.9916,-1.0,1.0,1.0,1.0,-1.0,1.0,1.0,0.9387,-0.4595,-1.0,-1.0,0.549,1.0,1.0,-1.0,0.156,0.039,0.045,0.006,0.006,0.013,0.006,0.0,0.026,0.0,0.078,0.058,0.013,0.019,0.019,0.052,0.026,0.039,-0.5844,-0.3927,0.3482,-0.6044,-0.1703,0.227,0.6059,-0.2792,0.3068,0.6105,-1.2011,0.5262,-0.4985,-1.3668,0.247,-0.201,-1.2701,0.3712,-0.0362,-0.1549,0.31,-0.1506,0.2895,-0.3118,0.0055,0.231,-0.333,0.0114,0.118,0.2968,-0.3172,-0.2924,-0.304,0.3059,-0.109,-0.3012,-2.159,0.2024,-0.1188,-0.0224,0.3654,-1.0,1.0,0.3109,-1.0,1.0,0.7857,1.0,-1.0,1.0,1.0,0.9514,0.1478,-1.0,-1.0,-0.8413,1.0,1.0,-1.0,0.0,0.0,0.0,0.0,0.0,0.0,0.0,0.0,0.0,0.3333,0.0,0.3333,0.0,0
3.24,run,-24.96,6.61,-3.28,-1.95,9.67,0.0,0.05,0.0,0.442,-33.57,-2.9,102.13,-35.16,10.11,89.03,34.8,3.69,97.56,35.07,-48.96,111.97,-31.46,-61.79,90.79,-8.61,-53.96,98.0,-35.0,1.69,106.5,-33.5,20.05,87.75,35.0,-4.49,102.74,35.0,-36.25,115.19,-35.0,-73.12,85.45,-5.0,-42.6,85.54,-1.0,-0.8529,-1.0,-0.7934,1.0,1.0,1.0,-1.0,1.0,1.0,-0.0828,-1.0,-1.0,-1.0,1.0,-0.2342,1.0,-0.2955,0.156,0.039,0.045,0.006,0.006,0.013,0.006,0.0,0.026,0.0,0.078,0.058,0.013,0.019,0.019,0.052,0.026,0.039,-0.5844,-0.3942,0.3743,-0.6243,-0.1457,0.2025,0.6075,-0.273,0.2884,0.6105,-1.1827,0.5492,-0.5231,-1.3883,0.2224,-0.1749,-1.2655,0.3467,-0.0254,-0.1142,0.3147,-0.1801,0.2947,-0.3102,0.0096,0.1847,-0.3021,0.008,0.1516,0.294,-0.314,-0.2852,-0.3048,0.3119,-0.0591,-0.3028,-2.1739,0.1903,-0.0846,-0.0641,0.3339,-1.0,-0.159,-0.9916,-1.0,1.0,1.0,1.0,-1.0,1.0,1.0,0.9387,-0.4595,-1.0,-1.0,0.549,1.0,1.0,-1.0,0.0,0.0,0.0,0.0,0.0,0.0,0.0,0.0,0.0,0.3333,0.0,0.3333,0.0,0
3.38,tail,-23.94,7.33,8.32,5.71,17.14,,0.0,0.0,0.442,-29.18,-5.8,103.1,-35.16,12.57,87.19,34.8,2.9,97.29,35.16,-50.71,110.39,-32.78,-63.72,88.15,-9.32,-53.0,96.86,,,,,,,,,,,,,,,,,,,,,,,,,,,,,,,,,,,,,0.0,0.0,0.0,0.0,0.0,0.0,0.0,0.0,0.0,0.0,0.0,0.0,0.0,0.0,0.0,0.0,0.0,0.0,,,,,,,,,,,,,,,,,,,,,,,,,,,,,,,,,,,,,,,,,,,,,,,,,,,,,,,,,,,,,,,,,,,,,,,,,
3.48,tail,-21.67,8.29,18.94,7.56,31.87,,0.0,0.0,0.442,-18.81,-13.45,103.18,-35.16,12.57,87.19,34.8,2.9,97.21,34.98,-51.42,106.0,-32.7,-62.75,88.15,-11.6,-53.09,96.86,,,,,,,,,,,,,,,,,,,,,,,,,,,,,,,,,,,,,0.0,0.0,0.0,0.0,0.0,0.0,0.0,0.0,0.0,0.0,0.0,0.0,0.0,0.0,0.0,0.0,0.0,0.0,,,,,,,,,,,,,,,,,,,,,,,,,,,,,,,,,,,,,,,,,,,,,,,,,,,,,,,,,,,,,,,,,,,,,,,,,
3.58,tail,-19.97,8.96,13.86,3.89,12.49,,0.0,0.0,0.442,-9.14,-22.06,103.89,-34.37,11.43,86.84,34.8,2.9,97.21,34.98,-51.42,105.47,-32.7,-62.4,88.15,-11.6,-53.09,96.24,,,,,,,,,,,,,,,,,,,,,,,,,,,,,,,,,,,,,0.0,0.0,0.0,0.0,0.0,0.0,0.0,0.0,0.0,0.0,0.0,0.0,0.0,0.0,0.0,0.0,0.0,0.0,,,,,,,,,,,,,,,,,,,,,,,,,,,,,,,,,,,,,,,,,,,,,,,,,,,,,,,,,,,,,,,,,,,,,,,,,
3.68,tail,-19.63,9.25,2.34,1.9,2.32,,0.0,0.0,0.442,-3.25,-24.52,103.45,-34.28,11.34,87.1,34.8,2.9,97.21,34.98,-51.42,105.47,-32.7,-62.4,88.15,-11.78,-53.09,96.24,,,,,,,,,,,,,,,,,,,,,,,,,,,,,,,,,,,,,0.0,0.0,0.0,0.0,0.0,0.0,0.0,0.0,0.0,0.0,0.0,0.0,0.0,0.0,0.0,0.0,0.0,0.0,,,,,,,,,,,,,,,,,,,,,,,,,,,,,,,,,,,,,,,,,,,,,,,,,,,,,,,,,,,,,,,,,,,,,,,,,
3.78,tail,-19.69,9.29,-0.34,-0.51,1.9,,0.0,0.0,0.442,-2.11,-24.52,103.45,-34.28,11.34,87.1,34.8,2.9,97.21,34.89,-51.42,105.47,-32.7,-62.4,88.15,-11.78,-53.09,96.24,,,,,,,,,,,,,,,,,,,,,,,,,,,,,,,,,,,,,0.0,0.0,0.0,0.0,0.0,0.0,0.0,0.0,0.0,0.0,0.0,0.0,0.0,0.0,0.0,0.0,0.0,0.0,,,,,,,,,,,,,,,,,,,,,,,,,,,,,,,,,,,,,,,,,,,,,,,,,,,,,,,,,,,,,,,,,,,,,,,,,
3.88,tail,-19.72,9.42,-0.31,0.3,0.93,,0.0,0.0,0.442,-2.11,-24.52,103.45,-34.28,11.34,87.1,34.8,2.9,97.21,34.89,-51.42,105.47,-32.7,-62.4,88.15,-11.78,-53.09,96.24,,,,,,,,,,,,,,,,,,,,,,,,,,,,,,,,,,,,,0.0,0.0,0.0,0.0,0.0,0.0,0.0,0.0,0.0,0.0,0.0,0.0,0.0,0.0,0.0,0.0,0.0,0.0,,,,,,,,,,,,,,,,,,,,,,,,,,,,,,,,,,,,,,,,,,,,,,,,,,,,,,,,,,,,,,,,,,,,,,,,,
3.98,tail,-19.73,9.56,-0.05,0.3,0.49,,0.0,0.0,0.442,-2.11,-24.52,103.45,-34.28,11.34,87.1,34.8,2.9,97.21,34.89,-51.42,105.47,-32.7,-62.4,88.15,-11.78,-53.09,96.24,,,,,,,,,,,,,,,,,,,,,,,,,,,,,,,,,,,,,0.0,0.0,0.0,0.0,0.0,0.0,0.0,0.0,0.0,0.0,0.0,0.0,0.0,0.0,0.0,0.0,0.0,0.0,,,,,,,,,,,,,,,,,,,,,,,,,,,,,,,,,,,,,,,,,,,,,,,,,,,,,,,,,,,,,,,,,,,,,,,,,
4.08,tail,-19.74,9.65,-0.08,-0.03,0.41,,0.0,0.0,0.442,-2.11,-24.52,103.45,-34.28,11.34,87.1,34.8,2.9,97.21,34.89,-51.42,105.47,-32.7,-62.4,88.15,-11.78,-53.09,96.24,,,,,,,,,,,,,,,,,,,,,,,,,,,,,,,,,,,,,0.0,0.0,0.0,0.0,0.0,0.0,0.0,0.0,0.0,0.0,0.0,0.0,0.0,0.0,0.0,0.0,0.0,0.0,,,,,,,,,,,,,,,,,,,,,,,,,,,,,,,,,,,,,,,,,,,,,,,,,,,,,,,,,,,,,,,,,,,,,,,,,
4.18,tail,-19.75,9.75,-0.13,0.03,0.22,,0.0,0.0,0.442,-2.11,-24.52,103.45,-34.28,11.34,87.1,34.8,2.9,97.21,34.89,-51.42,105.47,-32.7,-62.4,88.15,-11.78,-53.09,96.24,,,,,,,,,,,,,,,,,,,,,,,,,,,,,,,,,,,,,0.0,0.0,0.0,0.0,0.0,0.0,0.0,0.0,0.0,0.0,0.0,0.0,0.0,0.0,0.0,0.0,0.0,0.0,,,,,,,,,,,,,,,,,,,,,,,,,,,,,,,,,,,,,,,,,,,,,,,,,,,,,,,,,,,,,,,,,,,,,,,,,
4.28,tail,-19.77,9.84,-0.17,0.04,0.11,,0.0,0.0,0.442,-2.11,-24.52,103.45,-34.28,11.34,87.1,34.8,2.9,97.21,34.89,-51.42,105.47,-32.7,-62.4,88.15,-11.78,-53.09,96.24,,,,,,,,,,,,,,,,,,,,,,,,,,,,,,,,,,,,,0.0,0.0,0.0,0.0,0.0,0.0,0.0,0.0,0.0,0.0,0.0,0.0,0.0,0.0,0.0,0.0,0.0,0.0,,,,,,,,,,,,,,,,,,,,,,,,,,,,,,,,,,,,,,,,,,,,,,,,,,,,,,,,,,,,,,,,,,,,,,,,,
4.38,tail,-19.78,9.92,-0.11,-0.06,0.12,,0.0,0.0,0.442,-2.11,-24.52,103.45,-34.28,11.34,87.1,34.8,2.9,97.21,34.89,-51.42,105.47,-32.7,-62.4,88.15,-11.78,-53.09,96.24,,,,,,,,,,,,,,,,,,,,,,,,,,,,,,,,,,,,,0.0,0.0,0.0,0.0,0.0,0.0,0.0,0.0,0.0,0.0,0.0,0.0,0.0,0.0,0.0,0.0,0.0,0.0,,,,,,,,,,,,,,,,,,,,,,,,,,,,,,,,,,,,,,,,,,,,,,,,,,,,,,,,,,,,,,,,,,,,,,,,,
4.48,tail,-19.79,10.01,-0.1,-0.0,0.2,,0.0,0.0,0.442,-2.11,-24.52,103.45,-34.28,11.34,87.1,34.8,2.9,97.21,34.89,-51.42,105.47,-32.7,-62.4,88.15,-11.78,-53.09,96.24,,,,,,,,,,,,,,,,,,,,,,,,,,,,,,,,,,,,,0.0,0.0,0.0,0.0,0.0,0.0,0.0,0.0,0.0,0.0,0.0,0.0,0.0,0.0,0.0,0.0,0.0,0.0,,,,,,,,,,,,,,,,,,,,,,,,,,,,,,,,,,,,,,,,,,,,,,,,,,,,,,,,,,,,,,,,,,,,,,,,,
4.58,tail,-19.81,10.09,-0.13,-0.0,0.18,,0.0,0.0,0.442,-2.11,-24.52,103.45,-34.28,11.34,87.1,34.8,2.9,97.21,34.89,-51.42,105.47,-32.7,-62.4,88.15,-11.78,-53.09,96.24,,,,,,,,,,,,,,,,,,,,,,,,,,,,,,,,,,,,,0.0,0.0,0.0,0.0,0.0,0.0,0.0,0.0,0.0,0.0,0.0,0.0,0.0,0.0,0.0,0.0,0.0,0.0,,,,,,,,,,,,,,,,,,,,,,,,,,,,,,,,,,,,,,,,,,,,,,,,,,,,,,,,,,,,,,,,,,,,,,,,,
4.68,tail,-19.82,10.17,-0.11,0.03,0.17,,0.0,0.0,0.442,-2.11,-24.52,103.45,-34.28,11.34,87.1,34.8,2.9,97.21,34.89,-51.42,105.47,-32.7,-62.4,88.15,-11.78,-53.09,96.24,,,,,,,,,,,,,,,,,,,,,,,,,,,,,,,,,,,,,0.0,0.0,0.0,0.0,0.0,0.0,0.0,0.0,0.0,0.0,0.0,0.006,0.0,0.0,0.0,0.0,0.0,0.0,,,,,,,,,,,,,,,,,,,,,,,,,,,,,,,,,,,,,,,,,,,,,,,,,,,,,,,,,,,,,,,,,,,,,,,,,
4.78,tail,-19.83,10.25,-0.11,-0.01,0.17,,0.0,0.0,0.442,-2.11,-24.52,103.45,-34.28,11.34,87.1,34.8,2.9,97.21,34.89,-51.42,105.47,-32.7,-62.4,88.15,-11.78,-53.09,96.24,,,,,,,,,,,,,,,,,,,,,,,,,,,,,,,,,,,,,0.0,0.0,0.0,0.0,0.0,0.0,0.0,0.0,0.0,0.0,0.0,0.0,0.0,0.0,0.0,0.0,0.0,0.0,,,,,,,,,,,,,,,,,,,,,,,,,,,,,,,,,,,,,,,,,,,,,,,,,,,,,,,,,,,,,,,,,,,,,,,,,
4.88,tail,-19.83,10.33,-0.1,0.03,0.16,,0.0,0.0,0.442,-2.11,-24.52,103.45,-34.28,11.34,87.1,34.8,2.9,97.21,34.89,-51.42,105.47,-32.7,-62.4,88.15,-11.78,-53.09,96.24,,,,,,,,,,,,,,,,,,,,,,,,,,,,,,,,,,,,,0.0,0.0,0.0,0.0,0.0,0.0,0.0,0.0,0.0,0.0,0.0,0.0,0.0,0.0,0.0,0.0,0.0,0.0,,,,,,,,,,,,,,,,,,,,,,,,,,,,,,,,,,,,,,,,,,,,,,,,,,,,,,,,,,,,,,,,,,,,,,,,,
4.98,tail,-19.84,10.41,-0.08,0.02,0.16,,0.0,0.0,0.442,-2.11,-24.52,103.45,-34.28,11.34,87.1,34.8,2.9,97.21,34.89,-51.42,105.47,-32.7,-62.4,88.15,-11.78,-53.09,96.24,,,,,,,,,,,,,,,,,,,,,,,,,,,,,,,,,,,,,0.0,0.0,0.0,0.0,0.0,0.0,0.0,0.0,0.0,0.0,0.0,0.0,0.0,0.0,0.0,0.0,0.0,0.0,,,,,,,,,,,,,,,,,,,,,,,,,,,,,,,,,,,,,,,,,,,,,,,,,,,,,,,,,,,,,,,,,,,,,,,,,
5.08,tail,-19.85,10.49,-0.12,-0.0,0.17,,0.0,0.0,0.442,-2.11,-24.52,103.45,-34.28,11.34,87.1,34.8,2.9,97.21,34.89,-51.42,105.47,-32.7,-62.4,88.15,-11.78,-53.09,96.24,,,,,,,,,,,,,,,,,,,,,,,,,,,,,,,,,,,,,0.0,0.0,0.0,0.0,0.0,0.0,0.0,0.0,0.0,0.0,0.0,0.0,0.0,0.0,0.0,0.0,0.0,0.0,,,,,,,,,,,,,,,,,,,,,,,,,,,,,,,,,,,,,,,,,,,,,,,,,,,,,,,,,,,,,,,,,,,,,,,,,
5.18,tail,-19.86,10.56,-0.11,0.02,0.15,,0.0,0.0,0.442,-2.11,-24.52,103.45,-34.28,11.34,87.19,34.8,2.9,97.21,34.89,-51.42,105.47,-32.7,-62.4,88.15,-11.78,-53.09,96.24,,,,,,,,,,,,,,,,,,,,,,,,,,,,,,,,,,,,,0.0,0.0,0.0,0.0,0.0,0.0,0.0,0.0,0.0,0.0,0.0,0.0,0.0,0.0,0.0,0.0,0.0,0.0,,,,,,,,,,,,,,,,,,,,,,,,,,,,,,,,,,,,,,,,,,,,,,,,,,,,,,,,,,,,,,,,,,,,,,,,,
5.28,tail,-19.87,10.64,-0.13,-0.01,0.17,,0.0,0.0,0.442,-2.11,-24.52,103.45,-34.28,11.34,87.19,34.8,2.9,97.21,34.89,-51.42,105.47,-32.7,-62.4,88.15,-11.78,-53.09,96.24,,,,,,,,,,,,,,,,,,,,,,,,,,,,,,,,,,,,,0.0,0.0,0.0,0.0,0.0,0.0,0.0,0.0,0.0,0.0,0.0,0.0,0.0,0.0,0.0,0.0,0.0,0.0,,,,,,,,,,,,,,,,,,,,,,,,,,,,,,,,,,,,,,,,,,,,,,,,,,,,,,,,,,,,,,,,,,,,,,,,,
5.38,tail,-19.88,10.71,-0.1,0.02,0.15,,0.0,0.0,0.442,-2.11,-24.52,103.45,-34.28,11.34,87.19,34.8,2.9,97.21,34.89,-51.42,105.47,-32.7,-62.4,88.15,-11.78,-53.09,96.24,,,,,,,,,,,,,,,,,,,,,,,,,,,,,,,,,,,,,0.0,0.0,0.0,0.0,0.0,0.0,0.0,0.0,0.0,0.0,0.0,0.0,0.0,0.0,0.0,0.006,0.0,0.0,,,,,,,,,,,,,,,,,,,,,,,,,,,,,,,,,,,,,,,,,,,,,,,,,,,,,,,,,,,,,,,,,,,,,,,,,
5.48,tail,-19.89,10.79,-0.12,0.07,0.16,,0.0,0.0,0.442,-2.11,-24.52,103.45,-34.28,11.34,87.19,34.8,2.9,97.21,34.89,-51.42,105.47,-32.7,-62.4,88.15,-11.78,-53.09,96.24,,,,,,,,,,,,,,,,,,,,,,,,,,,,,,,,,,,,,0.0,0.0,0.0,0.0,0.0,0.0,0.0,0.0,0.0,0.0,0.0,0.0,0.0,0.0,0.0,0.0,0.0,0.0,,,,,,,,,,,,,,,,,,,,,,,,,,,,,,,,,,,,,,,,,,,,,,,,,,,,,,,,,,,,,,,,,,,,,,,,,
5.58,tail,-19.9,10.86,-0.11,0.0,0.19,,0.0,0.0,0.442,-2.11,-24.52,103.45,-34.28,11.34,87.19,34.8,2.9,97.21,34.89,-51.42,105.47,-32.7,-62.4,88.15,-11.78,-53.09,96.24,,,,,,,,,,,,,,,,,,,,,,,,,,,,,,,,,,,,,0.0,0.0,0.0,0.0,0.0,0.0,0.0,0.0,0.0,0.0,0.0,0.0,0.0,0.0,0.0,0.0,0.0,0.0,,,,,,,,,,,,,,,,,,,,,,,,,,,,,,,,,,,,,,,,,,,,,,,,,,,,,,,,,,,,,,,,,,,,,,,,,
5.68,tail,-19.92,10.92,-0.14,-0.03,0.17,,0.0,0.0,0.442,-2.11,-24.52,103.45,-34.28,11.34,87.19,34.8,2.9,97.21,34.89,-51.42,105.47,-32.7,-62.4,88.15,-11.78,-53.09,96.24,,,,,,,,,,,,,,,,,,,,,,,,,,,,,,,,,,,,,0.0,0.0,0.0,0.0,0.0,0.0,0.0,0.0,0.0,0.0,0.0,0.0,0.0,0.0,0.0,0.0,0.0,0.0,,,,,,,,,,,,,,,,,,,,,,,,,,,,,,,,,,,,,,,,,,,,,,,,,,,,,,,,,,,,,,,,,,,,,,,,,
5.78,tail,-19.92,11.0,-0.07,0.06,0.19,,0.0,0.0,0.442,-2.11,-24.52,103.45,-34.28,11.34,87.19,34.8,2.9,97.21,34.89,-51.42,105.47,-32.7,-62.4,88.15,-11.78,-53.09,96.24,,,,,,,,,,,,,,,,,,,,,,,,,,,,,,,,,,,,,0.0,0.0,0.0,0.0,0.0,0.0,0.0,0.0,0.0,0.0,0.0,0.0,0.0,0.0,0.0,0.0,0.0,0.0,,,,,,,,,,,,,,,,,,,,,,,,,,,,,,,,,,,,,,,,,,,,,,,,,,,,,,,,,,,,,,,,,,,,,,,,,
5.88,tail,-19.93,11.06,-0.11,-0.01,0.23,,0.0,0.0,0.442,-2.11,-24.52,103.45,-34.28,11.34,87.19,34.8,2.9,97.21,34.89,-51.42,105.47,-32.7,-62.4,88.15,-11.78,-53.09,96.24,,,,,,,,,,,,,,,,,,,,,,,,,,,,,,,,,,,,,0.0,0.0,0.0,0.0,0.0,0.0,0.0,0.0,0.0,0.0,0.0,0.0,0.0,0.0,0.0,0.0,0.0,0.0,,,,,,,,,,,,,,,,,,,,,,,,,,,,,,,,,,,,,,,,,,,,,,,,,,,,,,,,,,,,,,,,,,,,,,,,,
5.98,tail,-19.94,11.12,-0.13,-0.0,0.14,,0.0,0.0,0.442,-2.11,-24.52,103.45,-34.28,11.34,87.19,34.8,2.9,97.21,34.89,-51.42,105.47,-32.7,-62.4,88.15,-11.78,-53.09,96.24,,,,,,,,,,,,,,,,,,,,,,,,,,,,,,,,,,,,,0.0,0.0,0.0,0.0,0.0,0.0,0.0,0.0,0.0,0.0,0.0,0.0,0.0,0.0,0.0,0.0,0.0,0.0,,,,,,,,,,,,,,,,,,,,,,,,,,,,,,,,,,,,,,,,,,,,,,,,,,,,,,,,,,,,,,,,,,,,,,,,,
6.08,tail,-19.95,11.18,-0.12,0.03,0.14,,0.0,0.0,0.442,-2.11,-24.52,103.45,-34.28,11.34,87.19,34.8,2.9,97.21,34.89,-51.42,105.47,-32.7,-62.4,88.15,-11.78,-53.09,96.24,,,,,,,,,,,,,,,,,,,,,,,,,,,,,,,,,,,,,0.0,0.0,0.0,0.0,0.0,0.0,0.0,0.0,0.0,0.0,0.0,0.0,0.0,0.0,0.0,0.0,0.0,0.0,,,,,,,,,,,,,,,,,,,,,,,,,,,,,,,,,,,,,,,,,,,,,,,,,,,,,,,,,,,,,,,,,,,,,,,,,
6.18,tail,-19.95,11.25,-0.11,0.03,0.16,,0.0,0.0,0.442,-2.11,-24.52,103.45,-34.28,11.34,87.19,34.8,2.9,97.21,34.89,-51.42,105.47,-32.7,-62.4,88.15,-11.78,-53.09,96.24,,,,,,,,,,,,,,,,,,,,,,,,,,,,,,,,,,,,,0.0,0.0,0.0,0.0,0.0,0.0,0.0,0.0,0.0,0.0,0.0,0.0,0.0,0.0,0.0,0.0,0.0,0.0,,,,,,,,,,,,,,,,,,,,,,,,,,,,,,,,,,,,,,,,,,,,,,,,,,,,,,,,,,,,,,,,,,,,,,,,,
6.28,tail,-19.96,11.31,-0.11,0.05,0.19,,0.0,0.0,0.442,-2.11,-24.52,103.45,-34.28,11.34,87.19,34.8,2.9,97.21,34.89,-51.42,105.47,-32.7,-62.4,88.15,-11.78,-53.09,96.24,,,,,,,,,,,,,,,,,,,,,,,,,,,,,,,,,,,,,0.0,0.0,0.0,0.0,0.0,0.0,0.0,0.0,0.0,0.0,0.0,0.0,0.0,0.0,0.0,0.0,0.0,0.0,,,,,,,,,,,,,,,,,,,,,,,,,,,,,,,,,,,,,,,,,,,,,,,,,,,,,,,,,,,,,,,,,,,,,,,,,
