t_s,phase,roll_deg,pitch_deg,gyro_x_dps,gyro_y_dps,gyro_z_dps,height_ref_mm,vx_ref_mps,vy_ref_mps,max_cur_a,q0_deg,q1_deg,q2_deg,q3_deg,q4_deg,q5_deg,q6_deg,q7_deg,q8_deg,q9_deg,q10_deg,q11_deg,q12_deg,q13_deg,q14_deg,q15_deg,q16_deg,q17_deg,cmd0_deg,cmd1_deg,cmd2_deg,cmd3_deg,cmd4_deg,cmd5_deg,cmd6_deg,cmd7_deg,cmd8_deg,cmd9_deg,cmd10_deg,cmd11_deg,cmd12_deg,cmd13_deg,cmd14_deg,cmd15_deg,cmd16_deg,cmd17_deg,act0,act1,act2,act3,act4,act5,act6,act7,act8,act9,act10,act11,act12,act13,act14,act15,act16,act17,cur0_a,cur1_a,cur2_a,cur3_a,cur4_a,cur5_a,cur6_a,cur7_a,cur8_a,cur9_a,cur10_a,cur11_a,cur12_a,cur13_a,cur14_a,cur15_a,cur16_a,cur17_a,obs0,obs1,obs2,obs3,obs4,obs5,obs6,obs7,obs8,obs9,obs10,obs11,obs12,obs13,obs14,obs15,obs16,obs17,obs18,obs19,obs20,obs21,obs22,obs23,obs24,obs25,obs26,obs27,obs28,obs29,obs30,obs31,obs32,obs33,obs34,obs35,obs36,obs37,obs38,obs39,obs40,obs41,obs42,obs43,obs44,obs45,obs46,obs47,obs48,obs49,obs50,obs51,obs52,obs53,obs54,obs55,obs56,obs57,obs58,obs59,obs60,obs61,obs62,obs63,obs64,obs65,obs66,obs67,obs68,obs69,obs70,obs71,rot60_k
0.0,run,1.77,0.75,0.52,-0.48,-0.55,0.0,0.0,0.0,0.013,-0.18,19.16,79.72,-0.09,16.0,78.93,-0.09,19.42,80.33,0.44,16.08,79.01,0.0,18.98,79.54,-0.09,17.4,79.37,-1.68,17.66,78.22,-1.59,14.76,80.25,1.41,17.92,81.66,1.76,14.94,80.51,1.5,17.48,78.04,-1.59,16.08,80.69,-1.0,-1.0,-0.3818,-1.0,-1.0,1.0,1.0,-1.0,1.0,1.0,-1.0,1.0,0.2565,-1.0,-0.3427,-1.0,-1.0,1.0,0.013,0.006,0.006,0.013,0.0,0.0,0.006,0.013,0.0,0.0,0.0,0.013,0.006,0.006,0.013,0.013,0.006,0.0,0.0,0.0,0.0,0.0,-0.0031,0.0031,0.0,0.0,0.0,0.0031,0.0,0.0,0.0,0.0,0.0,0.0,-0.0015,0.0015,0.0,0.0,0.0,0.0,-0.0075,0.0064,0.0,0.0,0.0,0.0069,0.0,0.0,0.0,0.0,0.0,0.0,-0.0037,0.0037,0.0,0.0,-0.0063,-0.0011,0.0107,0.0,0.0,0.0,0.0,0.0,0.0,0.0,0.0,0.0,0.0,0.0,0.0,0.0,0.0,0.0,0.0,0.0,0.0,0.0,0.0,0.0,0.0,0.0,0.0,0.0,0.0,0.0,0.0,0.0,0.0,0.0,0
0.04,run,1.71,0.8,-0.56,0.25,1.03,0.0,0.0,0.0,0.013,-0.53,18.98,79.72,-0.26,15.73,79.19,0.0,18.98,80.33,0.7,15.73,79.1,0.0,18.63,79.37,-0.26,17.23,79.54,-3.18,19.16,79.72,-3.09,13.26,81.75,-0.09,16.42,80.16,3.26,13.44,82.01,0.0,15.98,79.54,-3.09,14.58,82.19,-1.0,1.0,1.0,-1.0,-1.0,1.0,-1.0,-1.0,-1.0,1.0,-1.0,1.0,-1.0,0.2873,1.0,-1.0,-1.0,1.0,0.013,0.006,0.006,0.013,0.0,0.0,0.006,0.013,0.0,0.0,0.0,0.013,0.006,0.006,0.013,0.013,0.006,0.0,0.0,0.0,0.0,0.0,-0.0046,0.0031,0.0,0.0,0.0031,0.0031,-0.0061,0.0,0.0,0.0,0.0,0.0,-0.0031,0.0031,0.0,0.0,0.0,0.0,-0.0078,0.0045,0.0,0.0,0.0051,0.0048,-0.0101,0.0,0.0,0.0,0.0,0.0,-0.0051,0.0051,0.0035,-0.0035,0.0091,-0.0085,-0.0095,-1.0,-1.0,-0.3818,-1.0,-1.0,1.0,1.0,-1.0,1.0,1.0,-1.0,1.0,0.2565,-1.0,-0.3427,-1.0,-1.0,1.0,0.0,0.0,0.0,0.0,0.0,0.0,0.0,0.0,0.0,0.0,0.0,0.0,0.0,0
0.08,run,1.37,0.82,-8.07,-0.5,2.97,0.0,0.0,0.0,0.013,-1.23,18.46,79.19,-0.79,15.21,79.8,0.09,18.28,80.95,1.41,15.38,79.98,0.88,18.02,78.57,-1.23,16.7,80.07,-4.68,20.66,81.22,-4.59,11.76,83.25,-1.59,17.92,81.66,4.76,11.94,83.51,-1.5,17.48,81.04,-4.59,13.08,83.69,-0.4213,1.0,0.2907,-1.0,-1.0,0.6382,-1.0,1.0,1.0,1.0,-1.0,1.0,-0.8666,1.0,1.0,-1.0,-1.0,1.0,0.013,0.006,0.006,0.013,0.0,0.0,0.006,0.013,0.0,0.0,0.0,0.013,0.006,0.006,0.013,0.013,0.006,0.0,-0.0061,-0.0031,0.0,-0.0031,-0.0092,0.0077,0.0015,-0.0077,0.0031,0.0077,-0.0123,0.0015,0.0,-0.0061,-0.0031,-0.0031,-0.0061,0.0061,-0.0231,-0.0115,0.0,-0.0115,-0.0228,0.0204,0.0058,-0.0289,0.0035,0.0207,-0.0302,0.0058,0.0,-0.0231,-0.0115,-0.0115,-0.0151,0.0151,-0.0019,0.001,-0.0098,0.0043,0.0179,-1.0,1.0,1.0,-1.0,-1.0,1.0,-1.0,-1.0,-1.0,1.0,-1.0,1.0,-1.0,0.2873,1.0,-1.0,-1.0,1.0,0.0,0.0,0.0,0.0,0.0,0.0,0.0,0.0,0.0,0.0,0.0,0.0,0.0,0
0.12,run,1.19,0.74,-2.66,-3.17,-4.78,0.0,0.0,0.0,0.033,-2.37,18.11,78.93,-1.49,14.41,80.77,0.62,17.58,81.3,2.11,14.41,81.04,1.05,17.23,78.66,-2.02,15.91,80.95,-6.18,22.16,79.72,-6.09,10.26,84.75,-3.09,19.42,83.16,6.26,10.44,85.01,0.0,15.98,79.54,-6.09,11.58,85.19,-1.0,1.0,0.0821,-1.0,-1.0,1.0,-1.0,1.0,1.0,1.0,-1.0,1.0,1.0,-0.3073,-1.0,-1.0,-1.0,1.0,0.026,0.0,0.0,0.026,0.006,0.013,0.006,0.006,0.0,0.033,0.0,0.019,0.006,0.006,0.0,0.026,0.013,0.006,-0.0184,-0.0123,-0.0092,-0.0123,-0.0184,0.0184,0.0031,-0.0199,0.0138,0.0199,-0.0184,0.0169,0.0153,-0.0169,-0.0169,-0.0199,-0.0153,0.0153,-0.062,-0.0424,-0.0344,-0.0424,-0.0503,0.0544,0.0098,-0.066,0.0426,0.0603,-0.044,0.0613,0.0573,-0.0562,-0.0596,-0.0711,-0.045,0.045,-0.0321,0.0024,-0.1408,-0.0087,0.0519,-0.4213,1.0,0.2907,-1.0,-1.0,0.6382,-1.0,1.0,1.0,1.0,-1.0,1.0,-0.8666,1.0,1.0,-1.0,-1.0,1.0,0.0,0.0,0.0,0.0,0.0,0.0,0.0,0.0,0.0,0.0,0.0,0.0,0.0,0
0.16,run,0.94,0.79,-5.37,1.86,-10.39,0.0,0.0,0.0,0.033,-3.34,18.11,79.01,-2.9,13.36,82.0,0.62,17.31,81.74,3.34,13.27,82.18,0.79,16.61,78.84,-3.34,14.85,81.91,-7.68,23.66,81.22,-7.59,8.76,86.25,-1.59,17.92,81.66,7.76,8.94,86.51,1.5,17.48,81.04,-7.59,10.08,86.69,-1.0,1.0,0.2249,-1.0,-0.4371,1.0,-0.0134,0.354,-0.839,1.0,-1.0,1.0,1.0,1.0,1.0,-1.0,-1.0,1.0,0.026,0.0,0.0,0.026,0.006,0.013,0.006,0.006,0.0,0.033,0.0,0.019,0.006,0.006,0.0,0.026,0.013,0.006,-0.0383,-0.0184,-0.0138,-0.0245,-0.0322,0.0353,0.0123,-0.0322,0.0199,0.0322,-0.0353,0.0353,0.0184,-0.0307,-0.0153,-0.0337,-0.0291,0.0307,-0.1183,-0.0528,-0.0413,-0.0758,-0.0871,0.1015,0.0414,-0.0923,0.0528,0.0883,-0.0942,0.1121,0.0516,-0.0912,-0.036,-0.1016,-0.0833,0.0891,-0.0471,-0.0041,-0.0464,-0.0554,-0.0835,-1.0,1.0,0.0821,-1.0,-1.0,1.0,-1.0,1.0,1.0,1.0,-1.0,1.0,1.0,-0.3073,-1.0,-1.0,-1.0,1.0,0.0,0.0,0.0,0.0,0.0,0.0,0.0,0.0,0.0,0.0,0.0,0.0,0.0,0
0.2,run,0.76,0.62,-4.23,-3.84,-3.66,0.0,0.0,0.0,0.033,-4.92,18.19,79.37,-3.96,12.13,83.23,0.62,17.4,82.35,4.66,12.04,83.41,0.26,15.82,79.54,-4.57,13.62,83.06,-9.18,25.16,82.72,-9.09,7.26,87.75,-3.09,19.42,83.16,9.26,7.44,88.01,3.0,15.98,82.54,-9.09,8.58,88.19,-1.0,1.0,0.79,-1.0,-1.0,0.4046,-1.0,1.0,0.8048,1.0,-1.0,1.0,1.0,-0.2359,1.0,-1.0,-1.0,1.0,0.026,0.0,0.0,0.026,0.006,0.013,0.006,0.006,0.0,0.033,0.0,0.019,0.006,0.006,0.0,0.026,0.013,0.006,-0.0552,-0.0184,-0.0123,-0.0491,-0.0506,0.0568,0.0123,-0.0368,0.0276,0.0537,-0.0552,0.0552,0.0138,-0.0414,-0.0123,-0.0568,-0.0476,0.0476,-0.1463,-0.0369,-0.0232,-0.1455,-0.1302,0.1519,0.029,-0.0819,0.0659,0.1427,-0.141,0.1535,0.0188,-0.1043,-0.0136,-0.1577,-0.1276,0.1259,-0.0695,0.0,-0.0937,0.0324,-0.1814,-1.0,1.0,0.2249,-1.0,-0.4371,1.0,-0.0134,0.354,-0.839,1.0,-1.0,1.0,1.0,1.0,1.0,-1.0,-1.0,1.0,0.0,0.0,0.0,0.0,0.0,0.0,0.0,0.0,0.0,0.0,0.0,0.0,0.0,0
0.24,run,0.52,0.3,-5.22,-7.82,-3.64,0.0,0.0,0.0,0.104,-5.89,18.81,80.16,-4.92,10.72,84.73,-0.62,18.02,82.88,5.98,10.63,84.73,0.18,15.82,80.33,-5.98,12.57,83.94,-10.68,23.66,83.79,-10.59,5.76,89.25,-4.59,20.92,81.66,10.76,5.94,89.51,4.5,14.48,84.04,-10.59,7.08,89.69,-1.0,0.5691,0.2211,-1.0,0.077,1.0,-0.7434,1.0,0.0588,1.0,-1.0,1.0,0.7745,0.4712,0.4565,-1.0,-1.0,1.0,0.013,0.104,0.006,0.026,0.006,0.0,0.006,0.013,0.006,0.019,0.0,0.013,0.0,0.0,0.033,0.013,0.026,0.006,-0.0828,-0.0169,-0.0061,-0.0675,-0.0721,0.0782,0.0123,-0.0353,0.0383,0.0767,-0.0767,0.0767,0.0046,-0.0552,0.0,-0.0782,-0.069,0.0675,-0.2055,-0.0201,0.0067,-0.1706,-0.1714,0.1865,0.0203,-0.0516,0.0862,0.1858,-0.1789,0.1877,-0.0212,-0.1246,0.0363,-0.1906,-0.1695,0.1626,-0.0853,-0.0147,-0.0738,-0.0671,-0.0639,-1.0,1.0,0.79,-1.0,-1.0,0.4046,-1.0,1.0,0.8048,1.0,-1.0,1.0,1.0,-0.2359,1.0,-1.0,-1.0,1.0,0.0,0.0,0.0,0.0,0.0,0.0,0.0,0.0,0.0,0.0,0.0,0.0,0.0,0
0.28,run,0.24,0.09,-7.3,-3.82,-2.16,0.0,0.0,0.0,0.104,-7.91,19.86,81.39,-6.86,9.23,86.4,-1.93,18.98,83.06,7.56,8.96,86.31,0.44,15.29,81.56,-7.73,11.07,85.96,-12.18,22.16,82.29,-12.09,4.26,90.75,-6.09,22.42,80.16,12.26,4.44,91.01,6.0,12.98,85.54,-12.09,5.58,91.19,-1.0,0.0331,0.1976,-1.0,-0.3963,0.3946,-1.0,1.0,-0.1702,1.0,-1.0,1.0,1.0,-0.149,0.3474,-1.0,-1.0,1.0,0.013,0.104,0.006,0.026,0.006,0.0,0.006,0.013,0.006,0.019,0.0,0.013,0.0,0.0,0.033,0.013,0.026,0.006,-0.0997,-0.0061,0.0077,-0.0844,-0.0966,0.1043,-0.0092,-0.0245,0.0476,0.0997,-0.1012,0.0997,0.0031,-0.0552,0.0138,-0.1028,-0.0874,0.0828,-0.2072,0.0262,0.0565,-0.1827,-0.212,0.2284,-0.0664,0.0041,0.0949,0.2164,-0.2173,0.2177,-0.0206,-0.0872,0.0772,-0.2255,-0.1877,0.1714,-0.1056,-0.0428,-0.0911,-0.1365,-0.0635,-1.0,0.5691,0.2211,-1.0,0.077,1.0,-0.7434,1.0,0.0588,1.0,-1.0,1.0,0.7745,0.4712,0.4565,-1.0,-1.0,1.0,0.0,0.0,0.0,0.0,0.0,0.0,0.0,0.0,0.0,0.0,0.0,0.0,0.0,0
0.32,run,0.23,-0.12,-0.45,-5.13,-5.08,0.0,0.0,0.0,0.104,-8.88,20.48,82.35,-8.17,8.0,87.45,-2.99,20.04,83.06,8.88,7.65,87.54,1.41,14.68,82.62,-8.96,9.58,87.19,-13.68,20.66,83.79,-13.59,5.76,92.25,-7.59,20.92,78.66,13.76,2.94,92.51,4.5,11.48,87.04,-13.59,4.08,92.69,-1.0,-0.0349,0.768,-1.0,0.8985,1.0,-1.0,0.648,-1.0,1.0,-1.0,1.0,-0.3575,-0.1509,0.8085,-1.0,-1.0,1.0,0.013,0.104,0.006,0.026,0.006,0.0,0.006,0.013,0.006,0.019,0.0,0.013,0.0,0.0,0.033,0.013,0.026,0.006,-0.135,0.0123,0.0291,-0.1181,-0.1227,0.1335,-0.0322,-0.0077,0.0506,0.1273,-0.1304,0.1273,0.0077,-0.0644,0.0353,-0.1335,-0.1135,0.1181,-0.2542,0.0753,0.106,-0.2323,-0.2291,0.25,-0.1176,0.0551,0.0759,0.2369,-0.2423,0.2378,-0.0002,-0.0895,0.1205,-0.2528,-0.2121,0.2291,-0.1302,-0.0608,-0.1274,-0.0667,-0.0377,-1.0,0.0331,0.1976,-1.0,-0.3963,0.3946,-1.0,1.0,-0.1702,1.0,-1.0,1.0,1.0,-0.149,0.3474,-1.0,-1.0,1.0,0.0,0.0,0.0,0.0,0.0,0.0,0.0,0.0,0.0,0.0,0.0,0.0,0.0,0
0.36,run,-0.09,-0.34,-8.49,-6.32,-6.07,0.0,0.0,0.0,0.123,-10.28,21.01,83.06,-9.58,6.86,88.77,-4.13,20.83,82.88,10.11,6.33,88.95,2.29,13.54,83.67,-10.37,8.35,88.59,-15.18,19.16,82.29,-15.09,4.26,90.75,-9.09,19.42,77.16,15.26,1.44,94.01,3.0,9.98,88.54,-15.09,2.58,94.19,-0.6275,-1.0,-0.4734,-1.0,-0.153,-1.0,-1.0,0.1219,-0.4066,1.0,-1.0,1.0,-0.4571,0.5618,1.0,-1.0,-1.0,1.0,0.013,0.123,0.0,0.013,0.006,0.0,0.013,0.006,0.071,0.026,0.0,0.026,0.0,0.006,0.026,0.006,0.026,0.013,-0.1519,0.023,0.046,-0.1411,-0.1442,0.1519,-0.0506,0.0107,0.0506,0.1503,-0.1534,0.1488,0.0245,-0.0752,0.0537,-0.1549,-0.1396,0.1396,-0.2406,0.0926,0.1369,-0.2481,-0.2402,0.2435,-0.1508,0.107,0.0531,0.2514,-0.2551,0.2463,0.0626,-0.1026,0.1528,-0.2568,-0.2454,0.2402,-0.1314,-0.0798,-0.0078,-0.0895,-0.0887,-1.0,-0.0349,0.768,-1.0,0.8985,1.0,-1.0,0.648,-1.0,1.0,-1.0,1.0,-0.3575,-0.1509,0.8085,-1.0,-1.0,1.0,0.0,0.0,0.0,0.0,0.0,0.0,0.0,0.0,0.0,0.0,0.0,0.0,0.0,0
0.4,run,-0.25,-0.71,-3.74,-10.46,-0.23,0.0,0.0,0.0,0.123,-11.69,21.36,83.41,-10.99,5.98,90.18,-5.45,21.36,82.09,11.51,4.92,90.26,3.34,12.39,85.08,-11.87,6.94,90.09,-16.68,17.66,83.79,-16.59,5.76,92.25,-10.59,20.92,78.66,16.76,-0.06,95.51,1.5,8.48,90.04,-16.59,1.08,95.69,-1.0,-1.0,1.0,-1.0,0.7724,0.6382,-1.0,1.0,1.0,1.0,-1.0,1.0,-1.0,-0.3705,1.0,-1.0,-1.0,1.0,0.013,0.123,0.0,0.013,0.006,0.0,0.013,0.006,0.071,0.026,0.0,0.026,0.0,0.006,0.026,0.006,0.026,0.013,-0.1764,0.0322,0.0583,-0.1657,-0.1641,0.1749,-0.0706,0.0245,0.0476,0.1718,-0.1764,0.1733,0.0399,-0.0951,0.0721,-0.1795,-0.1611,0.1641,-0.2608,0.0994,0.142,-0.266,-0.2431,0.257,-0.1805,0.1268,0.0257,0.2567,-0.2651,0.2647,0.1015,-0.1468,0.1762,-0.2721,-0.2526,0.2605,-0.1587,-0.0988,-0.1481,-0.1104,-0.106,-0.6275,-1.0,-0.4734,-1.0,-0.153,-1.0,-1.0,0.1219,-0.4066,1.0,-1.0,1.0,-0.4571,0.5618,1.0,-1.0,-1.0,1.0,0.0,0.0,0.0,0.0,0.0,0.0,0.0,0.0,0.0,0.0,0.0,0.0,0.0,0
0.44,run,-0.3,-1.07,-1.25,-9.64,3.39,0.0,0.0,0.0,0.123,-13.1,21.45,83.41,-12.39,5.01,91.23,-6.77,21.71,81.3,12.92,3.43,91.67,3.96,11.16,86.4,-13.1,5.62,91.67,-18.18,16.16,82.29,-18.09,7.26,90.75,-12.09,19.42,80.16,18.26,-1.56,97.01,3.0,9.98,91.54,-18.09,-0.42,97.19,-1.0,-1.0,-0.7914,-1.0,0.9079,-1.0,-1.0,-1.0,1.0,1.0,-1.0,1.0,0.2214,0.7476,0.352,-1.0,-1.0,1.0,0.013,0.123,0.0,0.013,0.006,0.0,0.013,0.006,0.071,0.026,0.0,0.026,0.0,0.006,0.026,0.006,0.026,0.013,-0.201,0.0383,0.0644,-0.1902,-0.1795,0.1994,-0.0936,0.0337,0.0337,0.1963,-0.201,0.1963,0.0583,-0.115,0.0966,-0.2056,-0.1856,0.1902,-0.275,0.0927,0.1225,-0.2786,-0.228,0.2723,-0.213,0.1234,-0.034,0.2721,-0.278,0.272,0.1404,-0.1779,0.2158,-0.2887,-0.2692,0.2805,-0.1728,-0.1306,-0.0653,-0.1826,-0.0041,-1.0,-1.0,1.0,-1.0,0.7724,0.6382,-1.0,1.0,1.0,1.0,-1.0,1.0,-1.0,-0.3705,1.0,-1.0,-1.0,1.0,0.0,0.0,0.0,0.0,0.0,0.0,0.0,0.0,0.0,0.0,0.0,0.0,0.0,0
0.48,run,-0.46,-1.44,-4.03,-10.55,0.06,0.0,0.0,0.0,0.123,-14.5,21.45,82.88,-13.71,4.48,91.93,-8.17,21.53,80.33,14.41,2.02,93.08,4.39,9.93,87.8,-14.59,4.22,92.99,-19.68,14.66,83.79,-19.59,5.76,89.25,-13.59,20.92,81.66,19.76,-3.06,98.51,1.5,8.48,93.04,-19.59,-1.92,98.69,-1.0,-1.0,0.8319,-1.0,0.5516,-1.0,-1.0,1.0,0.9587,1.0,-1.0,1.0,-0.8501,0.4819,0.5187,-1.0,-1.0,1.0,0.019,0.013,0.006,0.013,0.0,0.006,0.013,0.0,0.078,0.019,0.0,0.033,0.0,0.0,0.026,0.006,0.033,0.013,-0.2255,0.0399,0.0644,-0.2148,-0.1963,0.2178,-0.1166,0.0399,0.0199,0.2209,-0.227,0.2209,0.069,-0.1365,0.1197,-0.227,-0.2086,0.2178,-0.2842,0.0706,0.0858,-0.2868,-0.2227,0.2594,-0.2352,0.1093,-0.0754,0.2823,-0.2921,0.2821,0.1384,-0.2048,0.2371,-0.2823,-0.2745,0.2996,-0.1777,-0.162,-0.0218,-0.1683,0.0592,-1.0,-1.0,-0.7914,-1.0,0.9079,-1.0,-1.0,-1.0,1.0,1.0,-1.0,1.0,0.2214,0.7476,0.352,-1.0,-1.0,1.0,0.0,0.0,0.0,0.0,0.0,0.0,0.0,0.0,0.0,0.0,0.0,0.0,0.0,0
0.52,run,-0.39,-1.98,1.95,-13.72,-3.9,0.0,0.0,0.0,0.123,-16.0,21.45,82.71,-15.29,4.48,92.11,-9.67,21.01,79.72,15.91,0.53,94.48,4.39,9.23,89.3,-16.0,2.81,94.39,-21.18,13.16,82.29,-21.09,7.26,87.75,-15.09,22.42,83.16,21.26,-4.56,100.01,-0.0,6.98,91.54,-21.09,-3.42,100.19,-1.0,-1.0,-0.3597,-1.0,1.0,-0.5967,-1.0,1.0,1.0,1.0,-0.2256,1.0,-0.1384,0.3021,-0.7363,-1.0,-1.0,1.0,0.019,0.013,0.006,0.013,0.0,0.006,0.013,0.0,0.078,0.019,0.0,0.033,0.0,0.0,0.026,0.006,0.033,0.013,-0.25,0.0399,0.0552,-0.2378,-0.2056,0.2301,-0.1411,0.0368,0.0031,0.247,-0.2516,0.2454,0.0767,-0.158,0.1442,-0.2531,-0.2332,0.2408,-0.291,0.0494,0.0255,-0.2871,-0.1904,0.2276,-0.2567,0.065,-0.1161,0.2954,-0.2965,0.2895,0.1257,-0.2239,0.258,-0.2954,-0.2842,0.296,-0.1918,-0.1942,-0.0703,-0.1842,0.001,-1.0,-1.0,0.8319,-1.0,0.5516,-1.0,-1.0,1.0,0.9587,1.0,-1.0,1.0,-0.8501,0.4819,0.5187,-1.0,-1.0,1.0,0.0,0.0,0.0,0.0,0.0,0.0,0.0,0.0,0.0,0.0,0.0,0.0,0.0,0
0.56,run,0.19,-2.02,13.84,-1.77,-3.71,0.0,0.0,0.0,0.123,-17.4,20.74,82.79,-16.88,4.48,92.29,-10.99,21.18,79.45,17.31,-0.79,95.8,3.78,8.53,90.53,-17.4,1.41,95.71,-22.68,11.66,83.79,-22.59,7.08,86.25,-16.59,23.92,84.66,22.76,-3.06,101.51,-1.5,8.48,90.04,-22.59,-4.92,101.69,-1.0,-1.0,0.3229,-1.0,0.5832,-1.0,-1.0,1.0,1.0,1.0,0.7267,1.0,-1.0,0.8825,0.0229,-1.0,-1.0,1.0,0.019,0.013,0.006,0.013,0.0,0.006,0.013,0.0,0.078,0.019,0.0,0.033,0.0,0.0,0.026,0.006,0.033,0.013,-0.2761,0.0399,0.0522,-0.2654,-0.2056,0.2332,-0.1672,0.0276,-0.0077,0.273,-0.2777,0.27,0.0767,-0.1703,0.1703,-0.2777,-0.2577,0.2654,-0.3007,0.0346,0.0064,-0.3036,-0.1333,0.1707,-0.2766,0.0113,-0.1212,0.3037,-0.3045,0.2939,0.088,-0.2024,0.2775,-0.2981,-0.2902,0.2985,-0.1856,-0.2421,0.0341,-0.2395,-0.068,-1.0,-1.0,-0.3597,-1.0,1.0,-0.5967,-1.0,1.0,1.0,1.0,-0.2256,1.0,-0.1384,0.3021,-0.7363,-1.0,-1.0,1.0,0.0,0.0,0.0,0.0,0.0,0.0,0.0,0.0,0.0,0.0,0.0,0.0,0.0,0
0.6,run,0.73,-1.88,8.88,8.26,-3.42,0.0,0.0,0.0,0.123,-19.07,19.6,82.79,-18.63,5.01,91.58,-12.39,21.45,79.37,18.81,-2.11,97.29,3.08,7.56,91.58,-18.9,-0.09,97.12,-24.18,10.16,82.29,-24.09,5.58,84.75,-18.09,22.42,86.16,24.26,-1.56,103.01,-3.0,9.98,88.54,-24.09,-6.42,100.19,-1.0,-1.0,0.1422,-1.0,-0.7587,0.1657,-1.0,0.0776,1.0,1.0,1.0,1.0,-1.0,1.0,-0.2604,-1.0,-1.0,0.1287,0.0,0.0,0.0,0.019,0.019,0.013,0.013,0.006,0.045,0.013,0.0,0.033,0.026,0.0,0.019,0.006,0.033,0.006,-0.3007,0.0276,0.0537,-0.293,-0.2056,0.2362,-0.1902,0.0307,-0.0123,0.2976,-0.3007,0.293,0.066,-0.1825,0.1917,-0.3022,-0.2823,0.2884,-0.3034,-0.0222,0.0103,-0.3171,-0.0933,0.1311,-0.2808,0.0195,-0.1023,0.3055,-0.3003,0.2929,0.0209,-0.1881,0.2756,-0.3016,-0.2961,0.296,-0.1342,-0.2453,0.2416,-0.0308,-0.0647,-1.0,-1.0,0.3229,-1.0,0.5832,-1.0,-1.0,1.0,1.0,1.0,0.7267,1.0,-1.0,0.8825,0.0229,-1.0,-1.0,1.0,0.0,0.0,0.0,0.0,0.0,0.0,0.0,0.0,0.0,0.0,0.0,0.0,0.0,0
0.64,run,0.67,-2.12,-1.61,-4.77,-6.92,0.0,0.0,0.0,0.123,-20.3,18.19,82.79,-19.69,5.54,90.88,-13.8,22.15,79.37,20.21,-3.16,98.79,2.11,7.12,92.29,-20.3,-1.41,98.53,-25.68,8.66,83.79,-25.59,4.08,86.25,-19.59,20.92,87.66,25.76,-0.06,104.51,-4.5,11.48,90.04,-25.59,-7.92,98.69,-1.0,0.2032,0.6719,-1.0,-1.0,1.0,-1.0,-0.431,1.0,1.0,1.0,1.0,-1.0,1.0,0.8398,-1.0,-1.0,-0.613,0.0,0.0,0.0,0.019,0.019,0.013,0.013,0.006,0.045,0.013,0.0,0.033,0.026,0.0,0.019,0.006,0.033,0.006,-0.3298,0.0077,0.0537,-0.3237,-0.1963,0.224,-0.2148,0.0353,-0.0138,0.3237,-0.3237,0.3191,0.0537,-0.1994,0.2102,-0.3283,-0.3083,0.3129,-0.3211,-0.09,0.0072,-0.3364,-0.031,0.046,-0.2881,0.0308,-0.0773,0.3112,-0.2961,0.3023,-0.0312,-0.1946,0.2616,-0.3084,-0.3045,0.2988,-0.0875,-0.2334,0.155,0.1442,-0.0596,-1.0,-1.0,0.1422,-1.0,-0.7587,0.1657,-1.0,0.0776,1.0,1.0,1.0,1.0,-1.0,1.0,-0.2604,-1.0,-1.0,0.1287,0.0,0.0,0.0,0.0,0.0,0.0,0.0,0.0,0.0,0.0,0.0,0.0,0.0,0
0.68,run,2.1,-1.88,36.28,8.86,-2.07,0.0,0.0,0.0,0.123,-21.8,16.96,82.79,-21.09,5.98,89.56,-15.12,22.24,79.37,21.62,-4.04,100.28,0.97,6.94,92.55,-21.71,-2.81,99.58,-24.18,7.16,82.29,-27.09,2.58,87.75,-21.09,22.42,89.16,27.26,1.44,103.01,-6.0,9.98,88.54,-27.09,-9.42,97.19,-0.3372,-0.42,-0.4099,-1.0,-1.0,1.0,-1.0,1.0,1.0,1.0,1.0,-1.0,-1.0,-0.898,-0.3979,-1.0,-1.0,-1.0,0.0,0.0,0.0,0.019,0.019,0.013,0.013,0.006,0.045,0.013,0.0,0.033,0.026,0.0,0.019,0.006,0.033,0.006,-0.3513,-0.0169,0.0537,-0.3421,-0.1871,0.2117,-0.2393,0.0476,-0.0138,0.3482,-0.3421,0.3451,0.0368,-0.2071,0.2224,-0.3528,-0.3313,0.3375,-0.3053,-0.155,0.0051,-0.3045,0.0128,-0.0138,-0.2937,0.0676,-0.0541,0.3098,-0.2762,0.3094,-0.085,-0.165,0.2291,-0.3079,-0.2994,0.3012,-0.0929,-0.2538,-0.0281,-0.0832,-0.1208,-1.0,0.2032,0.6719,-1.0,-1.0,1.0,-1.0,-0.431,1.0,1.0,1.0,1.0,-1.0,1.0,0.8398,-1.0,-1.0,-0.613,0.0,0.0,0.0,0.0,0.0,0.0,0.0,0.0,0.0,0.0,0.0,0.0,0.0,0
0.72,run,2.61,-2.28,14.4,-5.62,-5.64,0.0,0.0,0.0,0.123,-23.03,15.56,82.62,-22.5,5.98,88.51,-16.52,22.32,80.16,23.03,-4.39,101.51,-0.62,7.03,92.64,-23.12,-4.31,100.37,-22.68,5.66,83.79,-28.59,1.08,89.25,-22.59,20.92,90.66,28.76,2.94,104.51,-7.5,11.48,90.04,-25.59,-10.92,95.69,1.0,-0.6386,1.0,-1.0,-1.0,1.0,-1.0,-1.0,0.5294,1.0,1.0,1.0,-1.0,1.0,1.0,1.0,-1.0,-1.0,0.0,0.0,0.0,0.006,0.006,0.006,0.013,0.006,0.0,0.019,0.006,0.019,0.039,0.091,0.006,0.006,0.026,0.0,-0.3774,-0.0383,0.0537,-0.3666,-0.1795,0.1887,-0.2623,0.0491,-0.0138,0.3728,-0.3574,0.3712,0.0169,-0.2102,0.227,-0.3774,-0.3559,0.3559,-0.3119,-0.1894,0.0035,-0.3056,0.0379,-0.0963,-0.2922,0.0531,-0.0379,0.3093,-0.2511,0.3148,-0.1347,-0.1271,0.1777,-0.308,-0.302,0.2801,0.0322,-0.2331,0.6333,0.1546,-0.0362,-0.3372,-0.42,-0.4099,-1.0,-1.0,1.0,-1.0,1.0,1.0,1.0,1.0,-1.0,-1.0,-0.898,-0.3979,-1.0,-1.0,-1.0,0.0,0.0,0.0,0.0,0.0,0.0,0.0,0.0,0.0,0.0,0.0,0.0,0.0,0
0.76,run,2.9,-2.33,10.3,-0.22,-6.73,0.0,0.0,0.0,0.123,-23.99,14.24,82.35,-23.91,5.98,87.54,-17.93,22.32,81.47,24.26,-4.57,102.57,-1.76,7.56,92.11,-24.52,-5.71,100.9,-21.18,4.16,82.29,-30.09,-0.42,90.75,-24.09,22.42,92.16,30.26,4.44,103.01,-6.0,12.98,88.54,-24.09,-12.42,94.19,1.0,-0.7199,-0.2889,-1.0,-1.0,0.8613,-1.0,1.0,1.0,1.0,1.0,-0.9375,0.5857,1.0,0.1555,1.0,-1.0,-1.0,0.0,0.0,0.0,0.006,0.006,0.006,0.013,0.006,0.0,0.019,0.006,0.019,0.039,0.091,0.006,0.006,0.026,0.0,-0.3988,-0.0629,0.0506,-0.3912,-0.1795,0.1703,-0.2869,0.0506,0.0,0.3973,-0.3636,0.3927,-0.0107,-0.2086,0.2286,-0.4019,-0.382,0.3697,-0.2985,-0.2241,-0.009,-0.3055,0.0265,-0.1361,-0.2961,0.0429,0.025,0.3081,-0.1987,0.3005,-0.1973,-0.0832,0.1301,-0.3071,-0.3087,0.2476,0.0768,-0.2683,0.2513,-0.0981,-0.0984,1.0,-0.6386,1.0,-1.0,-1.0,1.0,-1.0,-1.0,0.5294,1.0,1.0,1.0,-1.0,1.0,1.0,1.0,-1.0,-1.0,0.0,0.0,0.0,0.0,0.0,0.0,0.0,0.0,0.0,0.0,0.0,0.0,0.0,0
0.8,run,3.43,-2.72,15.31,-8.55,-12.33,0.0,0.0,0.0,0.123,-24.61,12.92,82.35,-25.22,5.45,86.75,-19.25,22.15,82.79,25.66,-4.57,103.27,-2.9,8.44,91.23,-25.49,-7.12,100.99,-19.68,5.66,83.79,-31.59,-1.92,92.25,-22.59,23.92,93.66,31.76,5.94,101.51,-4.5,12.28,87.04,-22.59,-13.92,92.69,1.0,1.0,1.0,-1.0,-1.0,1.0,-0.0764,1.0,1.0,1.0,1.0,-1.0,0.9397,0.6777,-1.0,1.0,-0.5486,-1.0,0.0,0.0,0.0,0.006,0.006,0.006,0.013,0.006,0.0,0.019,0.006,0.019,0.039,0.091,0.006,0.006,0.026,0.0,-0.4157,-0.0859,0.046,-0.4157,-0.1795,0.1534,-0.3114,0.0506,0.023,0.4188,-0.3666,0.4111,-0.0307,-0.1994,0.2194,-0.4264,-0.4065,0.3789,-0.2723,-0.2432,-0.0235,-0.3059,0.0186,-0.1586,-0.2994,0.03,0.1038,0.2963,-0.1506,0.2794,-0.2129,-0.0237,0.0565,-0.3071,-0.3082,0.2079,0.1016,-0.2723,0.1797,-0.0038,-0.1175,1.0,-0.7199,-0.2889,-1.0,-1.0,0.8613,-1.0,1.0,1.0,1.0,1.0,-0.9375,0.5857,1.0,0.1555,1.0,-1.0,-1.0,0.0,0.0,0.0,0.0,0.0,0.0,0.0,0.0,0.0,0.0,0.0,0.0,0.0,0
0.84,run,4.32,-3.11,25.25,-10.0,-7.66,0.0,0.0,0.0,0.175,-25.14,11.6,82.35,-26.72,4.48,86.84,-20.57,21.88,84.11,26.98,-4.39,103.8,-3.96,9.49,90.09,-26.19,-8.53,100.99,-18.18,4.16,85.29,-33.09,-3.42,90.75,-21.09,25.42,95.16,33.26,7.44,103.01,-3.0,13.78,85.54,-21.09,-15.42,91.19,-0.0132,-1.0,0.6731,-1.0,-1.0,-1.0,-0.4746,1.0,1.0,1.0,1.0,0.7032,1.0,1.0,-1.0,1.0,0.0577,-1.0,0.0,0.006,0.019,0.019,0.0,0.013,0.019,0.006,0.0,0.033,0.084,0.019,0.052,0.175,0.006,0.0,0.039,0.019,-0.4264,-0.1089,0.046,-0.4387,-0.1887,0.1396,-0.3344,0.0476,0.046,0.4433,-0.3666,0.4234,-0.0506,-0.1841,0.204,-0.4433,-0.431,0.3804,-0.2308,-0.2565,-0.0165,-0.3004,-0.0215,-0.1628,-0.2959,0.0095,0.159,0.2994,-0.1054,0.2416,-0.2238,0.0409,-0.0179,-0.2782,-0.3078,0.1513,0.1484,-0.3059,0.2671,-0.1493,-0.2153,1.0,1.0,1.0,-1.0,-1.0,1.0,-0.0764,1.0,1.0,1.0,1.0,-1.0,0.9397,0.6777,-1.0,1.0,-0.5486,-1.0,0.0,0.0,0.0,0.0,0.0,0.0,0.0,0.0,0.0,0.0,0.0,0.0,0.0,0
0.88,run,5.34,-3.67,23.15,-12.16,-8.49,0.0,0.0,0.0,0.175,-25.14,10.2,82.71,-28.12,3.16,86.84,-21.62,22.32,85.61,28.3,-3.69,103.89,-4.83,10.46,88.68,-26.46,-9.93,100.28,-19.68,2.66,83.79,-34.59,-4.92,89.25,-22.59,26.92,96.66,34.76,8.94,104.51,-4.5,15.28,84.04,-19.59,-16.92,89.69,-1.0,-1.0,-0.2435,-1.0,-1.0,-0.2616,-1.0,1.0,1.0,1.0,1.0,0.68,-0.3337,1.0,-0.5115,1.0,-0.6042,-1.0,0.0,0.006,0.019,0.019,0.0,0.013,0.019,0.006,0.0,0.033,0.084,0.019,0.052,0.175,0.006,0.0,0.039,0.019,-0.4357,-0.1319,0.046,-0.4648,-0.2056,0.1411,-0.3574,0.043,0.069,0.4663,-0.3636,0.4326,-0.069,-0.1657,0.1841,-0.4556,-0.4556,0.3804,-0.1962,-0.2661,-0.0115,-0.3083,-0.0785,-0.1082,-0.2936,-0.0106,0.1978,0.2961,-0.0623,0.2037,-0.2259,0.0978,-0.0875,-0.2409,-0.3077,0.1059,0.2258,-0.3401,0.4407,-0.1746,-0.1337,-0.0132,-1.0,0.6731,-1.0,-1.0,-1.0,-0.4746,1.0,1.0,1.0,1.0,0.7032,1.0,1.0,-1.0,1.0,0.0577,-1.0,0.0,0.0,0.0,0.0,0.0,0.0,0.0,0.0,0.0,0.0,0.0,0.0,0.0,0
0.92,run,6.08,-3.99,19.32,-8.52,-5.59,0.0,0.0,0.0,0.175,-24.79,8.79,83.41,-29.53,1.67,87.45,-22.41,22.85,86.92,29.79,-2.64,103.89,-5.45,11.69,87.19,-26.63,-11.34,99.4,-21.18,1.16,85.29,-35.0,-6.42,90.75,-24.09,28.42,98.16,35.0,10.44,106.01,-6.0,16.78,85.54,-18.09,-18.42,88.19,-1.0,-1.0,0.9908,-1.0,-1.0,0.6568,-1.0,1.0,1.0,1.0,1.0,0.5748,-1.0,1.0,1.0,1.0,-0.2425,-1.0,0.0,0.006,0.019,0.019,0.0,0.013,0.019,0.006,0.0,0.033,0.084,0.019,0.052,0.175,0.006,0.0,0.039,0.019,-0.4357,-0.1565,0.0522,-0.4893,-0.2286,0.1411,-0.3758,0.0506,0.0951,0.4893,-0.3513,0.4341,-0.0844,-0.1488,0.1595,-0.4602,-0.4801,0.3682,-0.1373,-0.278,0.0149,-0.3076,-0.141,-0.0757,-0.2743,0.0212,0.2359,0.2933,0.0023,0.1483,-0.2154,0.1316,-0.153,-0.1858,-0.3071,0.0282,0.3151,-0.3896,0.404,-0.2122,-0.1481,-1.0,-1.0,-0.2435,-1.0,-1.0,-0.2616,-1.0,1.0,1.0,1.0,1.0,0.68,-0.3337,1.0,-0.5115,1.0,-0.6042,-1.0,0.0,0.0,0.0,0.0,0.0,0.0,0.0,0.0,0.0,0.0,0.0,0.0,0.0,0
0.96,run,7.25,-4.5,29.73,-14.33,-3.46,0.0,0.0,0.0,0.208,-23.91,7.29,84.11,-31.03,0.18,88.33,-23.12,23.99,88.42,31.2,-1.58,103.89,-5.62,12.92,85.78,-26.1,-12.74,98.17,-19.68,-0.34,86.79,-35.0,-7.92,89.25,-25.59,26.92,99.66,35.0,11.94,104.51,-7.5,18.28,87.04,-16.59,-19.92,86.69,0.3882,-1.0,0.8046,-1.0,-1.0,-0.0414,-1.0,-0.7296,1.0,1.0,1.0,0.1176,-1.0,1.0,1.0,1.0,-0.0226,-1.0,0.013,0.006,0.013,0.006,0.0,0.026,0.019,0.0,0.0,0.026,0.201,0.111,0.019,0.208,0.013,0.006,0.039,0.026,-0.4295,-0.181,0.0644,-0.5139,-0.2546,0.1519,-0.3896,0.0598,0.1181,0.5154,-0.3329,0.4341,-0.0951,-0.1273,0.1335,-0.4633,-0.5047,0.3528,-0.0731,-0.2867,0.0565,-0.3074,-0.1965,-0.0127,-0.2438,0.0494,0.2515,0.3032,0.0707,0.1038,-0.1911,0.1727,-0.205,-0.1416,-0.3071,-0.0378,0.3792,-0.4171,0.3372,-0.1487,-0.0975,-1.0,-1.0,0.9908,-1.0,-1.0,0.6568,-1.0,1.0,1.0,1.0,1.0,0.5748,-1.0,1.0,1.0,1.0,-0.2425,-1.0,0.0,0.0,0.0,0.0,0.0,0.0,0.0,0.0,0.0,0.0,0.0,0.0,0.0,0
1.0,run,9.07,-5.24,45.37,-20.13,2.06,0.0,0.0,0.0,0.208,-22.85,5.89,84.73,-32.34,-1.32,89.12,-23.64,25.22,89.74,32.43,-0.44,104.24,-5.62,14.24,84.99,-25.05,-14.15,96.94,-18.18,-1.84,88.29,-35.0,-9.42,87.75,-27.09,25.42,101.16,35.0,13.44,106.01,-9.0,19.78,88.54,-15.09,-18.42,85.19,1.0,-1.0,1.0,-1.0,-1.0,-1.0,-1.0,-0.3683,1.0,1.0,1.0,0.6386,-1.0,1.0,1.0,1.0,1.0,-1.0,0.013,0.006,0.013,0.006,0.0,0.026,0.019,0.0,0.0,0.026,0.201,0.111,0.019,0.208,0.013,0.006,0.039,0.026,-0.4142,-0.2071,0.0767,-0.54,-0.2807,0.1672,-0.4019,0.0798,0.1442,0.54,-0.3145,0.4341,-0.0982,-0.1058,0.1089,-0.4541,-0.5292,0.3313,0.0063,-0.2985,0.0855,-0.313,-0.2354,0.0486,-0.2167,0.1094,0.2738,0.3042,0.1185,0.0727,-0.1453,0.2014,-0.2355,-0.0646,-0.307,-0.107,0.4817,-0.4613,0.5188,-0.2501,-0.0603,0.3882,-1.0,0.8046,-1.0,-1.0,-0.0414,-1.0,-0.7296,1.0,1.0,1.0,0.1176,-1.0,1.0,1.0,1.0,-0.0226,-1.0,0.0,0.0,0.0,0.0,0.0,0.0,0.0,0.0,0.0,0.0,0.0,0.0,0.0,0
1.04,run,10.91,-6.17,48.16,-25.36,0.82,0.0,0.002,0.0,0.208,-21.53,4.57,85.52,-33.4,-2.9,89.65,-24.43,26.1,91.14,33.49,0.79,104.5,-6.33,15.56,84.29,-24.17,-15.47,95.54,-16.68,-3.34,89.79,-35.0,-10.92,86.25,-28.59,23.92,102.66,35.0,14.94,107.51,-10.5,21.28,87.04,-13.59,-16.92,83.69,1.0,-1.0,1.0,-1.0,-1.0,-1.0,-1.0,-0.8226,1.0,1.0,1.0,0.7565,-1.0,1.0,0.1706,1.0,1.0,-1.0,0.013,0.006,0.013,0.006,0.0,0.026,0.019,0.0,0.0,0.026,0.201,0.111,0.019,0.208,0.013,0.006,0.039,0.026,-0.3958,-0.2316,0.0874,-0.563,-0.3068,0.181,-0.4111,0.1012,0.1672,0.5614,-0.2945,0.4403,-0.0982,-0.0828,0.0951,-0.4357,-0.5538,0.3099,0.0738,-0.3015,0.1004,-0.3058,-0.2631,0.0861,-0.1864,0.1575,0.2784,0.2939,0.1581,0.074,-0.1017,0.2277,-0.2169,0.0242,-0.3074,-0.1559,0.64,-0.5258,0.7918,-0.3513,0.036,1.0,-1.0,1.0,-1.0,-1.0,-1.0,-1.0,-0.3683,1.0,1.0,1.0,0.6386,-1.0,1.0,1.0,1.0,1.0,-1.0,0.0,0.0,0.0,0.0,0.0,0.0,0.0,0.0,0.0,0.0133,0.0,0.0133,0.0,0
1.08,run,12.74,-7.46,47.08,-31.61,4.03,0.0,0.004,0.0,0.351,-20.04,3.08,86.57,-34.37,-4.39,89.91,-25.31,26.63,92.64,34.28,1.93,104.94,-7.12,17.14,83.85,-22.76,-16.61,94.04,-15.18,-4.84,91.29,-35.0,-12.42,84.75,-30.09,22.42,104.16,35.0,16.44,109.01,-12.0,22.78,88.54,-12.09,-15.42,82.19,1.0,-1.0,1.0,-1.0,-1.0,-1.0,-1.0,-0.7232,1.0,1.0,1.0,1.0,-1.0,1.0,0.9102,1.0,1.0,-1.0,0.013,0.006,0.026,0.0,0.006,0.019,0.045,0.0,0.0,0.006,0.351,0.104,0.039,0.084,0.019,0.006,0.033,0.026,-0.3728,-0.2546,0.1012,-0.5814,-0.3344,0.1902,-0.4249,0.1166,0.1917,0.5798,-0.273,0.4449,-0.1104,-0.0598,0.0828,-0.4203,-0.5768,0.2853,0.1376,-0.2969,0.1218,-0.2828,-0.2872,0.0946,-0.182,0.1675,0.2865,0.2744,0.1908,0.069,-0.117,0.2453,-0.1976,0.0742,-0.3011,-0.2007,0.8008,-0.6071,0.8406,-0.4427,0.0143,1.0,-1.0,1.0,-1.0,-1.0,-1.0,-1.0,-0.8226,1.0,1.0,1.0,0.7565,-1.0,1.0,0.1706,1.0,1.0,-1.0,0.0,0.0,0.0,0.0,0.0,0.0,0.0,0.0,0.0,0.0267,0.0,0.0267,0.0,0
1.12,run,14.0,-7.12,16.02,23.78,-5.01,0.0,0.006,0.0,0.351,-18.63,1.76,87.8,-34.98,-5.62,89.91,-26.81,26.98,94.04,35.16,3.16,105.47,-8.09,18.37,83.67,-21.36,-17.58,92.64,-13.68,-6.34,92.79,-35.0,-13.92,83.25,-31.59,20.92,105.66,35.0,17.94,110.51,-13.5,24.28,90.04,-10.59,-13.92,80.69,1.0,-1.0,1.0,-1.0,-1.0,-1.0,-1.0,-0.2623,1.0,1.0,1.0,0.8928,-1.0,1.0,0.3589,1.0,1.0,-1.0,0.013,0.006,0.026,0.0,0.006,0.019,0.045,0.0,0.0,0.006,0.351,0.104,0.039,0.084,0.019,0.006,0.033,0.026,-0.3467,-0.2807,0.1197,-0.5983,-0.3605,0.1948,-0.4403,0.1258,0.2178,0.5937,-0.2531,0.4525,-0.1243,-0.0322,0.0752,-0.3958,-0.5967,0.2592,0.194,-0.3056,0.1542,-0.2612,-0.2988,0.0835,-0.1849,0.1517,0.2983,0.2439,0.2083,0.077,-0.1336,0.2752,-0.1671,0.1439,-0.2855,-0.2382,0.9608,-0.7196,0.8216,-0.5516,0.0704,1.0,-1.0,1.0,-1.0,-1.0,-1.0,-1.0,-0.7232,1.0,1.0,1.0,1.0,-1.0,1.0,0.9102,1.0,1.0,-1.0,0.0,0.0,0.0,0.0,0.0,0.0,0.0,0.0,0.0,0.04,0.0,0.04,0.0,0
1.16,run,17.28,-4.13,20.92,19.58,-6.8,0.0,0.008,0.0,0.351,-14.24,-3.69,91.76,-35.24,-10.9,86.22,-30.67,24.52,99.05,35.16,8.79,108.37,-12.48,22.59,87.1,-15.82,-18.19,87.28,-12.18,-7.84,94.29,-35.0,-15.42,81.75,-33.09,19.42,107.16,33.5,19.44,109.01,-15.0,25.78,91.54,-9.09,-12.42,79.19,1.0,-1.0,1.0,-1.0,-1.0,-0.2243,-1.0,-1.0,1.0,-0.6526,1.0,-0.3045,-1.0,1.0,1.0,1.0,1.0,-1.0,0.0,0.006,0.006,0.006,0.0,0.0,0.013,0.033,0.013,0.013,0.267,0.195,0.019,0.065,0.039,0.019,0.006,0.026,-0.3221,-0.3037,0.1411,-0.609,-0.382,0.1948,-0.4663,0.1319,0.2424,0.609,-0.2316,0.4617,-0.1411,-0.0107,0.0721,-0.3712,-0.6136,0.2347,0.2283,-0.3006,0.1889,-0.2233,-0.29,0.0584,-0.2276,0.1293,0.3012,0.2285,0.2267,0.0886,-0.1571,0.2735,-0.1285,0.1932,-0.2634,-0.2592,1.0701,-0.6907,0.2795,0.415,-0.0875,1.0,-1.0,1.0,-1.0,-1.0,-1.0,-1.0,-0.2623,1.0,1.0,1.0,0.8928,-1.0,1.0,0.3589,1.0,1.0,-1.0,0.0,0.0,0.0,0.0,0.0,0.0,0.0,0.0,0.0,0.0533,0.0,0.0533,0.0,0
1.2,run,18.22,-3.01,22.69,30.31,-8.39,0.0,0.01,0.0,0.351,-14.15,-4.83,92.2,-35.24,-12.13,84.81,-31.11,23.2,100.37,35.07,10.2,108.81,-13.1,23.2,88.24,-14.41,-17.49,85.78,-10.68,-9.34,95.79,-35.0,-16.92,83.25,-34.59,17.92,108.66,32.0,20.94,107.51,-16.5,27.28,90.04,-7.59,-10.92,77.69,1.0,-1.0,1.0,-1.0,-1.0,1.0,-1.0,-1.0,1.0,-1.0,1.0,-0.1942,-1.0,1.0,-0.9886,1.0,1.0,-1.0,0.0,0.006,0.006,0.006,0.0,0.0,0.013,0.033,0.013,0.013,0.267,0.195,0.019,0.065,0.039,0.019,0.006,0.026,-0.2454,-0.3988,0.2102,-0.6136,-0.474,0.1304,-0.5338,0.089,0.3298,0.609,-0.1335,0.5123,-0.2178,0.0629,0.1319,-0.2746,-0.6243,0.1411,0.234,-0.3024,0.199,-0.1607,-0.292,-0.0214,-0.2246,0.049,0.2954,0.1599,0.2537,0.111,-0.1842,0.2627,-0.0321,0.2287,-0.1948,-0.2719,1.3564,-0.4297,0.3652,0.3418,-0.1187,1.0,-1.0,1.0,-1.0,-1.0,-0.2243,-1.0,-1.0,1.0,-0.6526,1.0,-0.3045,-1.0,1.0,1.0,1.0,1.0,-1.0,0.0,0.0,0.0,0.0,0.0,0.0,0.0,0.0,0.0,0.0667,0.0,0.0667,0.0,0
1.24,run,18.82,-2.29,17.38,20.58,-6.28,0.0,0.012,0.0,0.351,-13.1,-6.15,92.72,-35.24,-13.54,83.58,-31.73,21.8,101.6,34.72,11.6,108.9,-13.8,23.91,89.47,-13.01,-16.35,84.38,-9.18,-10.84,97.29,-35.0,-18.42,84.75,-35.0,16.42,110.16,30.5,19.44,106.01,-18.0,28.78,88.54,-6.09,-9.42,76.19,1.0,-1.0,1.0,-1.0,-1.0,1.0,-1.0,-1.0,1.0,-1.0,-0.0665,-0.4469,-1.0,1.0,-0.7774,1.0,1.0,-1.0,0.0,0.006,0.006,0.006,0.0,0.0,0.013,0.033,0.013,0.013,0.267,0.195,0.019,0.065,0.039,0.019,0.006,0.026,-0.2439,-0.4188,0.2178,-0.6136,-0.4955,0.1058,-0.5415,0.066,0.3528,0.6075,-0.1089,0.52,-0.2286,0.0736,0.1519,-0.25,-0.6121,0.115,0.1695,-0.286,0.1679,-0.1125,-0.2845,-0.1065,-0.1858,-0.0515,0.2926,0.1062,0.2691,0.1063,-0.1689,0.2239,0.0519,0.2516,-0.0906,-0.2876,1.4385,-0.3319,0.396,0.529,-0.1464,1.0,-1.0,1.0,-1.0,-1.0,1.0,-1.0,-1.0,1.0,-1.0,1.0,-0.1942,-1.0,1.0,-0.9886,1.0,1.0,-1.0,0.0,0.0,0.0,0.0,0.0,0.0,0.0,0.0,0.0,0.08,0.0,0.08,0.0,0
1.28,run,19.71,-1.82,26.12,11.74,-6.55,0.0,0.014,0.0,0.351,-12.04,-7.56,93.6,-35.24,-14.94,82.71,-32.52,20.39,102.57,33.93,13.01,108.9,-14.85,24.96,90.35,-11.6,-14.94,82.97,-7.68,-12.34,98.79,-35.0,-19.92,86.25,-35.0,14.92,111.66,29.0,17.94,104.51,-19.5,30.0,87.04,-4.59,-7.92,74.69,1.0,-1.0,1.0,-1.0,-1.0,1.0,-1.0,-1.0,1.0,-1.0,0.3809,0.0189,-1.0,1.0,-1.0,1.0,1.0,-1.0,0.013,0.0,0.013,0.006,0.0,0.0,0.013,0.026,0.019,0.026,0.234,0.0,0.019,0.104,0.026,0.013,0.006,0.026,-0.2255,-0.4418,0.227,-0.6136,-0.52,0.0844,-0.5522,0.0414,0.3743,0.6013,-0.0844,0.5216,-0.2408,0.0859,0.1733,-0.2255,-0.5921,0.0905,0.1877,-0.2865,0.152,-0.0788,-0.2912,-0.1551,-0.1704,-0.1281,0.2853,0.0514,0.2804,0.0801,-0.1643,0.2028,0.1168,0.2682,0.0114,-0.2933,1.4912,-0.2684,0.3034,0.3593,-0.1096,1.0,-1.0,1.0,-1.0,-1.0,1.0,-1.0,-1.0,1.0,-1.0,-0.0665,-0.4469,-1.0,1.0,-0.7774,1.0,1.0,-1.0,0.0,0.0,0.0,0.0,0.0,0.0,0.0,0.0,0.0,0.0933,0.0,0.0933,0.0,0
1.32,run,20.33,-1.42,18.94,9.91,2.01,0.0,0.016,0.0,0.351,-10.81,-8.96,94.66,-35.24,-16.26,82.0,-33.49,18.9,104.41,32.96,14.41,107.93,-16.26,26.37,90.88,-10.11,-13.62,81.56,-6.18,-13.84,100.29,-35.0,-21.42,87.75,-35.0,13.42,113.16,27.5,19.44,103.01,-21.0,30.0,85.54,-3.09,-6.42,73.19,1.0,-1.0,1.0,-1.0,-1.0,1.0,-1.0,-1.0,1.0,-1.0,1.0,0.2314,-1.0,1.0,-1.0,1.0,1.0,-1.0,0.013,0.0,0.013,0.006,0.0,0.0,0.013,0.026,0.019,0.026,0.234,0.0,0.019,0.104,0.026,0.013,0.006,0.026,-0.2071,-0.4663,0.2424,-0.6136,-0.5446,0.069,-0.566,0.0169,0.3912,0.5875,-0.0598,0.5216,-0.2592,0.1043,0.1887,-0.201,-0.5676,0.066,0.2002,-0.2923,0.1638,-0.0551,-0.2956,-0.1659,-0.1709,-0.1814,0.2628,-0.0157,0.288,0.0561,-0.1838,0.2107,0.1391,0.2794,0.0997,-0.2971,1.5692,-0.2277,0.4559,0.205,-0.1143,1.0,-1.0,1.0,-1.0,-1.0,1.0,-1.0,-1.0,1.0,-1.0,0.3809,0.0189,-1.0,1.0,-1.0,1.0,1.0,-1.0,0.0,0.0,0.0,0.0,0.0,0.0,0.0,0.0,0.0,0.1067,0.0,0.1067,0.0,0
1.36,run,20.91,-1.06,17.26,9.03,3.11,0.0,0.018,0.0,0.351,-9.4,-10.37,95.98,-35.24,-17.67,81.65,-34.1,17.49,105.82,31.73,15.56,106.79,-17.67,27.6,91.14,-8.7,-12.22,80.16,-4.68,-15.34,101.79,-35.0,-22.92,89.25,-35.0,11.92,114.66,26.0,20.94,101.51,-22.5,30.0,84.04,-1.59,-4.92,71.69,1.0,-1.0,1.0,-1.0,-1.0,1.0,-1.0,-1.0,1.0,-1.0,1.0,-0.4199,-1.0,1.0,-1.0,1.0,1.0,-1.0,0.013,0.0,0.013,0.006,0.0,0.0,0.013,0.026,0.019,0.026,0.234,0.0,0.019,0.104,0.026,0.013,0.006,0.026,-0.1856,-0.4909,0.2608,-0.6136,-0.5676,0.0568,-0.5829,-0.0092,0.4234,0.5706,-0.0353,0.5047,-0.2838,0.1289,0.1979,-0.1749,-0.5446,0.0414,0.2212,-0.2972,0.1841,-0.0386,-0.2938,-0.1624,-0.1833,-0.2254,0.3056,-0.0747,0.2942,-0.0244,-0.2213,0.2402,0.1321,0.294,0.1566,-0.3006,1.6229,-0.1932,0.3306,0.173,0.0351,1.0,-1.0,1.0,-1.0,-1.0,1.0,-1.0,-1.0,1.0,-1.0,1.0,0.2314,-1.0,1.0,-1.0,1.0,1.0,-1.0,0.0,0.0,0.0,0.0,0.0,0.0,0.0,0.0,0.0,0.12,0.0,0.12,0.0,0
1.4,run,21.42,-0.66,14.47,12.14,5.41,0.0,0.02,0.0,0.351,-8.17,-11.69,97.29,-35.16,-19.07,81.47,-34.54,16.0,107.14,30.32,16.52,105.21,-19.07,28.48,90.97,-7.29,-10.81,78.75,-3.18,-16.84,103.29,-35.0,-24.42,90.75,-35.0,10.42,116.16,24.5,22.44,100.01,-24.0,30.0,82.54,-0.09,-3.42,70.19,1.0,-1.0,1.0,-1.0,-1.0,1.0,-1.0,-1.0,1.0,-1.0,1.0,-0.3136,-1.0,1.0,-1.0,1.0,1.0,-1.0,0.019,0.006,0.026,0.006,0.0,0.039,0.006,0.026,0.026,0.065,0.189,0.0,0.026,0.019,0.0,0.019,0.013,0.026,-0.1611,-0.5154,0.2838,-0.6136,-0.5921,0.0506,-0.5937,-0.0337,0.4479,0.5492,-0.0153,0.4847,-0.3083,0.1503,0.2025,-0.1503,-0.52,0.0169,0.2463,-0.2995,0.2146,-0.027,-0.2971,-0.1366,-0.1683,-0.2492,0.3053,-0.1323,0.2803,-0.0914,-0.2464,0.2481,0.1096,0.2973,0.2011,-0.3019,1.6734,-0.1618,0.3012,0.1577,0.0543,1.0,-1.0,1.0,-1.0,-1.0,1.0,-1.0,-1.0,1.0,-1.0,1.0,-0.4199,-1.0,1.0,-1.0,1.0,1.0,-1.0,0.0,0.0,0.0,0.0,0.0,0.0,0.0,0.0,0.0,0.1333,0.0,0.1333,0.0,0
1.44,run,21.85,-0.24,11.12,11.8,6.13,0.0,0.022,0.0,0.351,-6.86,-13.01,98.7,-35.16,-20.39,81.83,-34.54,14.59,108.54,29.0,17.67,103.89,-20.48,29.09,90.35,-5.89,-9.32,77.34,-1.68,-18.34,104.79,-35.0,-25.92,92.25,-35.0,8.92,117.66,23.0,23.94,98.51,-25.5,30.0,81.04,1.41,-1.92,68.69,1.0,-1.0,1.0,-1.0,-1.0,1.0,-1.0,-1.0,1.0,-1.0,1.0,-0.2371,-1.0,1.0,-1.0,1.0,1.0,-1.0,0.019,0.006,0.026,0.006,0.0,0.039,0.006,0.026,0.026,0.065,0.189,0.0,0.026,0.019,0.0,0.019,0.013,0.026,-0.1396,-0.5384,0.3068,-0.6121,-0.6167,0.0476,-0.6013,-0.0598,0.4709,0.5246,0.0015,0.4571,-0.3329,0.1657,0.1994,-0.1258,-0.4955,-0.0077,0.2527,-0.2957,0.2363,-0.0132,-0.2997,-0.1071,-0.1465,-0.272,0.2998,-0.1844,0.2593,-0.1672,-0.2642,0.2311,0.0653,0.2999,0.2326,-0.3031,1.718,-0.1269,0.2526,0.2119,0.0944,1.0,-1.0,1.0,-1.0,-1.0,1.0,-1.0,-1.0,1.0,-1.0,1.0,-0.3136,-1.0,1.0,-1.0,1.0,1.0,-1.0,0.0,0.0,0.0,0.0,0.0,0.0,0.0,0.0,0.0,0.1467,0.0,0.1467,0.0,0
1.48,run,22.27,0.19,10.45,12.62,0.08,0.0,0.024,0.0,0.351,-5.54,-14.41,100.11,-35.16,-21.88,82.44,-34.63,13.1,109.86,27.69,18.81,102.57,-21.88,29.44,89.38,-4.48,-7.91,75.94,-0.18,-19.84,106.29,-35.0,-27.42,93.75,-33.5,7.42,119.16,21.5,25.44,97.01,-27.0,30.0,79.54,2.91,-0.42,67.19,1.0,-1.0,1.0,-1.0,-1.0,1.0,-0.7729,-1.0,1.0,-1.0,1.0,-0.4207,-1.0,1.0,-1.0,1.0,1.0,-1.0,0.019,0.006,0.026,0.006,0.0,0.039,0.006,0.026,0.026,0.065,0.189,0.0,0.026,0.019,0.0,0.019,0.013,0.026,-0.1166,-0.5614,0.3313,-0.6121,-0.6397,0.0537,-0.6013,-0.0844,0.4955,0.5016,0.0215,0.4341,-0.3574,0.1764,0.1887,-0.1012,-0.4694,-0.0322,0.264,-0.2941,0.2583,-0.0092,-0.2969,-0.0517,-0.1025,-0.2833,0.3027,-0.2161,0.257,-0.2041,-0.2779,0.2024,0.0051,0.3028,0.2615,-0.3051,1.7551,-0.0898,0.194,0.2059,0.107,1.0,-1.0,1.0,-1.0,-1.0,1.0,-1.0,-1.0,1.0,-1.0,1.0,-0.2371,-1.0,1.0,-1.0,1.0,1.0,-1.0,0.0,0.0,0.0,0.0,0.0,0.0,0.0,0.0,0.0,0.16,0.0,0.16,0.0,0
1.52,run,22.62,0.66,9.44,13.03,0.35,0.0,0.026,0.0,0.351,-4.31,-15.91,101.43,-35.16,-23.29,83.5,-34.63,11.69,111.27,26.37,20.04,101.07,-23.29,29.53,88.15,-3.08,-6.5,74.53,1.32,-21.34,107.79,-35.0,-28.92,95.25,-32.0,5.92,120.66,20.0,26.94,95.51,-28.5,30.0,78.04,4.41,1.08,65.69,1.0,-1.0,1.0,-1.0,-1.0,1.0,-0.3462,-1.0,1.0,-1.0,1.0,-0.4406,-1.0,1.0,-1.0,1.0,1.0,-1.0,0.052,0.0,0.033,0.0,0.0,0.065,0.006,0.026,0.033,0.104,0.247,0.0,0.019,0.013,0.006,0.019,0.006,0.026,-0.0936,-0.586,0.3559,-0.6121,-0.6657,0.0644,-0.6029,-0.1104,0.5185,0.4786,0.0414,0.4111,-0.382,0.1825,0.1718,-0.0767,-0.4449,-0.0568,0.271,-0.2978,0.2728,-0.0065,-0.3055,0.004,-0.0775,-0.296,0.2981,-0.2375,0.2546,-0.2291,-0.2865,0.1647,-0.0597,0.3039,0.275,-0.3055,1.7921,-0.0525,0.1824,0.2203,0.0014,1.0,-1.0,1.0,-1.0,-1.0,1.0,-0.7729,-1.0,1.0,-1.0,1.0,-0.4207,-1.0,1.0,-1.0,1.0,1.0,-1.0,0.0,0.0,0.0,0.0,0.0,0.0,0.0,0.0,0.0,0.1733,0.0,0.1733,0.0,0
1.56,run,22.93,1.19,9.24,13.48,-1.07,0.0,0.028,0.0,0.351,-2.99,-17.31,102.92,-35.16,-24.79,84.9,-34.54,10.2,112.59,25.05,21.27,99.67,-24.7,29.71,86.84,-1.67,-5.1,73.12,2.82,-22.84,109.29,-35.0,-30.42,96.75,-30.5,4.42,122.16,18.5,28.44,94.01,-30.0,30.0,76.54,5.91,2.58,64.19,1.0,-1.0,1.0,-1.0,-1.0,1.0,0.0944,-1.0,1.0,-1.0,1.0,-0.273,-1.0,1.0,-1.0,1.0,1.0,-1.0,0.052,0.0,0.033,0.0,0.0,0.065,0.006,0.026,0.033,0.104,0.247,0.0,0.019,0.013,0.006,0.019,0.006,0.026,-0.0721,-0.6121,0.3789,-0.6121,-0.6903,0.0828,-0.6029,-0.135,0.543,0.4556,0.0629,0.385,-0.4065,0.1841,0.1503,-0.0522,-0.4203,-0.0813,0.2698,-0.3057,0.2767,-0.0045,-0.3054,0.0715,-0.0543,-0.2987,0.3002,-0.2521,0.2583,-0.2576,-0.292,0.121,-0.1219,0.3043,0.284,-0.3054,1.823,-0.0116,0.1648,0.2274,0.0062,1.0,-1.0,1.0,-1.0,-1.0,1.0,-0.3462,-1.0,1.0,-1.0,1.0,-0.4406,-1.0,1.0,-1.0,1.0,1.0,-1.0,0.0,0.0,0.0,0.0,0.0,0.0,0.0,0.0,0.0,0.1867,0.0,0.1867,0.0,0
1.6,run,23.29,1.75,9.76,13.91,-0.5,0.0,0.03,0.0,0.351,-1.67,-18.63,104.33,-35.16,-26.19,86.31,-34.1,8.88,114.08,23.64,22.41,98.26,-26.1,29.88,85.34,-0.35,-3.69,71.72,4.32,-24.34,110.79,-35.0,-31.92,98.25,-29.0,2.92,123.66,17.0,29.94,92.51,-31.5,30.0,75.04,7.41,4.08,62.69,1.0,-1.0,1.0,-1.0,-1.0,1.0,0.2091,-1.0,1.0,-1.0,1.0,-0.1224,-1.0,1.0,-0.4392,1.0,1.0,-1.0,0.052,0.0,0.033,0.0,0.0,0.065,0.006,0.026,0.033,0.104,0.247,0.0,0.019,0.013,0.006,0.019,0.006,0.026,-0.0491,-0.6366,0.405,-0.6121,-0.7164,0.1074,-0.6013,-0.1611,0.566,0.4326,0.0844,0.3605,-0.431,0.1871,0.1273,-0.0276,-0.3958,-0.1058,0.2751,-0.306,0.2915,-0.0032,-0.3116,0.1421,-0.0322,-0.3069,0.2964,-0.2627,0.2614,-0.2724,-0.2965,0.0962,-0.1716,0.305,0.2909,-0.3058,1.8499,0.0345,0.1614,0.2352,-0.0187,1.0,-1.0,1.0,-1.0,-1.0,1.0,0.0944,-1.0,1.0,-1.0,1.0,-0.273,-1.0,1.0,-1.0,1.0,1.0,-1.0,0.0,0.0,0.0,0.0,0.0,0.0,0.0,0.0,0.0,0.2,0.0,0.2,0.0,0
1.64,run,23.48,2.34,3.35,16.49,7.4,0.0,0.032,0.0,0.351,-0.35,-20.13,105.73,-35.16,-27.6,87.63,-32.78,7.38,115.49,22.32,23.73,96.86,-27.6,29.97,83.94,1.14,-2.2,70.31,5.82,-25.84,112.29,-35.0,-33.42,99.75,-27.5,1.42,125.16,15.5,30.0,91.01,-33.0,30.0,76.54,8.91,5.58,61.19,1.0,-1.0,1.0,-1.0,-1.0,1.0,0.3735,-1.0,1.0,-1.0,1.0,-0.282,-1.0,1.0,0.198,0.9262,1.0,-0.9056,0.117,0.0,0.033,0.006,0.0,0.071,0.019,0.019,0.033,0.143,0.26,0.0,0.013,0.0,0.013,0.026,0.006,0.026,-0.0261,-0.6596,0.4295,-0.6121,-0.7409,0.1319,-0.5937,-0.1841,0.5921,0.408,0.1043,0.3359,-0.4556,0.1902,0.1012,-0.0046,-0.3712,-0.1304,0.279,-0.3006,0.2962,-0.0022,-0.3102,0.1916,0.0062,-0.3012,0.3054,-0.276,0.2578,-0.2828,-0.2997,0.0788,-0.218,0.2999,0.2957,-0.3062,1.8812,0.0839,0.1703,0.2428,-0.0087,1.0,-1.0,1.0,-1.0,-1.0,1.0,0.2091,-1.0,1.0,-1.0,1.0,-0.1224,-1.0,1.0,-0.4392,1.0,1.0,-1.0,0.0,0.0,0.0,0.0,0.0,0.0,0.0,0.0,0.0,0.2133,0.0,0.2133,0.0,0
1.68,run,23.73,2.97,6.43,17.13,7.75,0.0,0.034,0.0,0.351,0.97,-21.53,107.14,-35.07,-29.0,88.95,-31.46,5.98,116.89,21.18,24.96,95.54,-29.0,30.15,82.53,2.55,-0.79,68.91,7.32,-27.34,113.79,-33.5,-34.92,101.25,-26.0,-0.08,126.66,14.0,28.5,89.51,-34.5,30.0,78.04,7.41,7.08,62.69,1.0,-1.0,1.0,-0.3118,-1.0,1.0,1.0,-1.0,1.0,-1.0,0.8467,-0.8526,-1.0,1.0,0.3144,0.2022,1.0,-0.0184,0.117,0.0,0.033,0.006,0.0,0.071,0.019,0.019,0.033,0.143,0.26,0.0,0.013,0.0,0.013,0.026,0.006,0.026,-0.0031,-0.6857,0.4541,-0.6121,-0.7655,0.1549,-0.5706,-0.2102,0.6167,0.385,0.1273,0.3114,-0.4817,0.1917,0.0767,0.0215,-0.3451,-0.1549,0.282,-0.3087,0.2998,-0.0016,-0.3097,0.2208,0.0911,-0.3091,0.3063,-0.28,0.2672,-0.2905,-0.3081,0.061,-0.2451,0.3082,0.3053,-0.3068,1.8979,0.1354,0.0585,0.2879,0.1291,1.0,-1.0,1.0,-1.0,-1.0,1.0,0.3735,-1.0,1.0,-1.0,1.0,-0.282,-1.0,1.0,0.198,0.9262,1.0,-0.9056,0.0,0.0,0.0,0.0,0.0,0.0,0.0,0.0,0.0,0.2267,0.0,0.2267,0.0,0
1.72,run,24.19,3.33,12.21,11.06,6.09,0.0,0.036,0.0,0.351,2.29,-22.94,108.54,-34.98,-30.59,90.26,-30.15,4.57,118.21,19.78,25.93,94.04,-30.5,30.23,81.04,3.87,0.62,67.5,8.82,-28.84,115.29,-32.0,-36.42,102.75,-24.5,-1.58,128.16,12.5,27.0,88.01,-35.0,30.0,79.54,5.91,8.58,64.19,1.0,-1.0,1.0,0.7127,-1.0,1.0,1.0,-1.0,1.0,-1.0,0.902,-0.5804,-1.0,1.0,0.8448,-0.7884,1.0,0.5668,0.117,0.0,0.033,0.006,0.0,0.071,0.019,0.019,0.033,0.143,0.26,0.0,0.013,0.0,0.013,0.026,0.006,0.026,0.0199,-0.7102,0.4786,-0.6105,-0.79,0.1779,-0.5476,-0.2347,0.6412,0.3651,0.1488,0.2884,-0.5062,0.1948,0.0522,0.046,-0.3206,-0.1795,0.2841,-0.3086,0.3024,0.0047,-0.3093,0.2413,0.1505,-0.3089,0.3069,-0.2711,0.268,-0.2901,-0.3081,0.0542,-0.2641,0.3083,0.3062,-0.3073,1.9197,0.1904,0.1122,0.299,0.1353,1.0,-1.0,1.0,-0.3118,-1.0,1.0,1.0,-1.0,1.0,-1.0,0.8467,-0.8526,-1.0,1.0,0.3144,0.2022,1.0,-0.0184,0.0,0.0,0.0,0.0,0.0,0.0,0.0,0.0,0.0,0.24,0.0,0.24,0.0,0
1.76,run,24.5,3.43,8.89,4.26,4.77,0.0,0.038,0.0,0.351,3.6,-24.43,109.95,-34.63,-31.99,91.67,-28.74,3.16,119.53,18.37,26.72,92.64,-31.9,30.23,79.98,5.19,2.11,66.18,10.32,-30.34,116.79,-30.5,-37.92,104.25,-23.0,-3.08,129.66,11.0,28.5,86.51,-35.0,30.0,81.04,4.41,10.08,65.69,1.0,-1.0,1.0,1.0,-1.0,1.0,1.0,-1.0,1.0,-1.0,1.0,-0.6979,-1.0,1.0,0.3904,-1.0,1.0,0.8772,0.104,0.0,0.033,0.006,0.0,0.123,0.019,0.019,0.033,0.182,0.182,0.0,0.006,0.006,0.013,0.006,0.006,0.026,0.043,-0.7348,0.5031,-0.609,-0.8176,0.201,-0.5246,-0.2592,0.6642,0.3405,0.1657,0.2623,-0.5323,0.1963,0.0261,0.069,-0.2961,-0.204,0.2848,-0.3077,0.3034,0.009,-0.3196,0.2549,0.1913,-0.3079,0.3008,-0.2815,0.2506,-0.3004,-0.3131,0.0437,-0.2823,0.3017,0.306,-0.3068,1.9594,0.222,0.213,0.193,0.1064,1.0,-1.0,1.0,0.7127,-1.0,1.0,1.0,-1.0,1.0,-1.0,0.902,-0.5804,-1.0,1.0,0.8448,-0.7884,1.0,0.5668,0.0,0.0,0.0,0.0,0.0,0.0,0.0,0.0,0.0,0.2533,0.0,0.2533,0.0,0
1.8,run,24.77,3.55,7.4,4.46,2.83,0.0,0.04,0.0,0.351,5.1,-25.93,111.36,-34.01,-33.4,92.99,-27.25,1.76,120.94,16.96,27.25,91.32,-33.05,30.23,78.93,6.06,3.52,65.13,11.82,-31.84,118.29,-29.0,-39.42,105.75,-21.5,-4.58,131.16,9.5,30.0,85.01,-35.0,30.0,79.54,2.91,11.58,67.19,1.0,-1.0,1.0,1.0,-1.0,1.0,1.0,-1.0,1.0,-1.0,1.0,-1.0,-1.0,1.0,-0.1256,-1.0,1.0,1.0,0.104,0.0,0.033,0.006,0.0,0.123,0.019,0.019,0.033,0.182,0.182,0.0,0.006,0.006,0.013,0.006,0.006,0.026,0.066,-0.7609,0.5277,-0.6029,-0.8422,0.2255,-0.5001,-0.2838,0.6872,0.316,0.1795,0.2378,-0.5568,0.1963,0.0077,0.092,-0.27,-0.227,0.2853,-0.3127,0.304,0.0292,-0.3154,0.27,0.2255,-0.3072,0.2964,-0.2886,0.227,-0.3019,-0.3108,0.0306,-0.2663,0.2971,0.3116,-0.3006,1.9869,0.2302,0.1552,0.0744,0.0832,1.0,-1.0,1.0,1.0,-1.0,1.0,1.0,-1.0,1.0,-1.0,1.0,-0.6979,-1.0,1.0,0.3904,-1.0,1.0,0.8772,0.0,0.0,0.0,0.0,0.0,0.0,0.0,0.0,0.0,0.2667,0.0,0.2667,0.0,0
1.84,run,24.93,3.56,3.69,2.54,10.89,0.0,0.042,0.0,0.351,6.33,-27.33,112.76,-33.22,-34.8,94.48,-25.93,0.26,122.34,15.56,27.51,89.91,-34.01,30.23,78.4,6.77,5.01,64.25,13.32,-33.34,119.79,-27.5,-40.92,107.25,-20.0,-6.08,132.66,8.0,30.0,83.51,-35.0,30.0,78.04,1.41,13.08,68.69,1.0,-1.0,1.0,1.0,-1.0,1.0,1.0,-1.0,1.0,-1.0,1.0,-1.0,-1.0,1.0,-0.3281,-1.0,1.0,1.0,0.104,0.0,0.033,0.006,0.0,0.123,0.019,0.019,0.033,0.182,0.182,0.0,0.006,0.006,0.013,0.006,0.006,0.026,0.092,-0.7869,0.5522,-0.5921,-0.8667,0.2485,-0.474,-0.3083,0.7118,0.2915,0.1887,0.2148,-0.5768,0.1963,-0.0107,0.1074,-0.2454,-0.2454,0.2976,-0.3169,0.305,0.0608,-0.3129,0.2754,0.2558,-0.3072,0.2997,-0.2942,0.1934,-0.2978,-0.2925,0.0214,-0.2555,0.2656,0.3103,-0.2796,2.01,0.2407,0.1291,0.0779,0.0495,1.0,-1.0,1.0,1.0,-1.0,1.0,1.0,-1.0,1.0,-1.0,1.0,-1.0,-1.0,1.0,-0.1256,-1.0,1.0,1.0,0.0,0.0,0.0,0.0,0.0,0.0,0.0,0.0,0.0,0.28,0.0,0.28,0.0,0
1.88,run,25.1,3.59,4.63,2.91,13.22,0.0,0.044,0.0,0.351,7.82,-28.56,114.17,-32.08,-36.21,95.89,-24.52,-1.14,123.66,14.15,27.51,88.51,-34.54,30.23,78.13,7.12,6.33,63.63,14.82,-34.84,121.29,-26.0,-42.42,108.75,-18.5,-7.58,134.16,6.5,30.0,82.01,-35.0,30.0,76.54,-0.09,14.58,70.19,1.0,-1.0,1.0,1.0,-1.0,1.0,1.0,-1.0,1.0,-1.0,1.0,-1.0,-1.0,1.0,-0.7916,-1.0,1.0,1.0,0.117,0.0,0.026,0.033,0.0,0.111,0.019,0.033,0.045,0.156,0.13,0.0,0.006,0.013,0.0,0.0,0.013,0.006,0.1135,-0.8115,0.5768,-0.5783,-0.8912,0.2746,-0.451,-0.3344,0.7363,0.2669,0.1933,0.1902,-0.5937,0.1963,-0.0199,0.1197,-0.2194,-0.2608,0.289,-0.314,0.3056,0.0944,-0.3112,0.2907,0.2655,-0.313,0.3019,-0.2981,0.1527,-0.3006,-0.2681,0.015,-0.2134,0.232,0.3151,-0.2533,2.0239,0.2416,0.0644,0.0443,0.19,1.0,-1.0,1.0,1.0,-1.0,1.0,1.0,-1.0,1.0,-1.0,1.0,-1.0,-1.0,1.0,-0.3281,-1.0,1.0,1.0,0.0,0.0,0.0,0.0,0.0,0.0,0.0,0.0,0.0,0.2933,0.0,0.2933,0.0,0
1.92,run,24.88,3.65,-4.99,3.87,11.63,0.0,0.046,0.0,0.351,9.32,-30.06,115.66,-30.67,-37.44,97.29,-23.12,-2.46,124.98,12.74,27.69,87.01,-34.89,30.23,77.78,7.03,7.65,63.46,16.32,-36.34,122.79,-24.5,-43.92,110.25,-17.0,-9.08,135.66,5.0,30.0,80.51,-35.0,30.0,75.04,-1.59,16.08,71.69,1.0,-1.0,1.0,1.0,-1.0,1.0,1.0,-1.0,1.0,-1.0,1.0,-0.864,-1.0,1.0,-1.0,-1.0,1.0,1.0,0.117,0.0,0.026,0.033,0.0,0.111,0.019,0.033,0.045,0.156,0.13,0.0,0.006,0.013,0.0,0.0,0.013,0.006,0.1396,-0.833,0.6013,-0.5584,-0.9158,0.2991,-0.4264,-0.359,0.7593,0.2424,0.1933,0.1657,-0.6029,0.1963,-0.0245,0.1258,-0.1963,-0.2715,0.3006,-0.3008,0.3065,0.1413,-0.3104,0.2961,0.2784,-0.3116,0.2981,-0.3013,0.1069,-0.303,-0.2224,0.0105,-0.1668,0.1855,0.3074,-0.2178,2.0394,0.2443,0.0809,0.0508,0.2307,1.0,-1.0,1.0,1.0,-1.0,1.0,1.0,-1.0,1.0,-1.0,1.0,-1.0,-1.0,1.0,-0.7916,-1.0,1.0,1.0,0.0,0.0,0.0,0.0,0.0,0.0,0.0,0.0,0.0,0.3067,0.0,0.3067,0.0,0
1.96,run,24.94,3.89,2.58,8.78,8.66,0.0,0.048,0.0,0.351,10.81,-31.46,117.07,-29.36,-38.85,98.7,-21.71,-4.04,126.39,11.43,27.86,85.78,-34.89,30.23,77.08,6.33,9.05,63.54,17.82,-37.84,124.29,-23.0,-45.42,111.75,-15.5,-10.58,137.16,3.5,30.0,79.01,-35.0,30.0,73.54,-3.09,17.58,73.19,1.0,-1.0,0.768,1.0,-1.0,1.0,1.0,-1.0,1.0,-1.0,1.0,-0.9658,-1.0,1.0,-1.0,-1.0,1.0,1.0,0.117,0.0,0.026,0.033,0.0,0.111,0.019,0.033,0.045,0.156,0.13,0.0,0.006,0.013,0.0,0.0,0.013,0.006,0.1657,-0.859,0.6274,-0.5338,-0.9373,0.3237,-0.4019,-0.382,0.7823,0.2178,0.1963,0.1396,-0.609,0.1963,-0.0307,0.1243,-0.1733,-0.2746,0.3077,-0.3077,0.3118,0.1904,-0.2973,0.2987,0.2864,-0.3039,0.2945,-0.3024,0.0863,-0.3093,-0.1785,0.0073,-0.1396,0.1242,0.3009,-0.1639,2.0196,0.2494,-0.0871,0.0676,0.203,1.0,-1.0,1.0,1.0,-1.0,1.0,1.0,-1.0,1.0,-1.0,1.0,-0.864,-1.0,1.0,-1.0,-1.0,1.0,1.0,0.0,0.0,0.0,0.0,0.0,0.0,0.0,0.0,0.0,0.32,0.0,0.32,0.0,0
2.0,run,24.85,3.73,-1.56,-0.19,7.96,0.0,0.05,0.0,0.351,12.22,-32.87,118.65,-28.04,-40.34,100.11,-20.3,-5.45,127.79,9.93,27.95,84.2,-34.89,30.23,76.2,5.54,10.55,64.07,19.32,-39.34,122.79,-21.5,-46.92,113.25,-14.0,-12.08,138.66,2.0,30.0,77.51,-35.0,30.0,72.04,-4.59,19.08,74.69,1.0,-1.0,0.5623,1.0,-1.0,1.0,1.0,-1.0,1.0,-1.0,1.0,-0.7216,-1.0,1.0,-1.0,-1.0,1.0,1.0,0.091,0.0,0.019,0.039,0.0,0.13,0.013,0.019,0.065,0.208,0.104,0.0,0.0,0.006,0.019,0.006,0.0,0.013,0.1917,-0.8836,0.6519,-0.5108,-0.9618,0.3482,-0.3774,-0.4096,0.8069,0.1948,0.1994,0.1181,-0.609,0.1963,-0.043,0.112,-0.1488,-0.273,0.3133,-0.3076,0.3104,0.2197,-0.3003,0.3013,0.2926,-0.3165,0.2983,-0.2981,0.0719,-0.2972,-0.125,0.0051,-0.1438,0.0408,0.3028,-0.109,2.0248,0.2705,0.045,0.1533,0.1511,1.0,-1.0,0.768,1.0,-1.0,1.0,1.0,-1.0,1.0,-1.0,1.0,-0.9658,-1.0,1.0,-1.0,-1.0,1.0,1.0,0.0,0.0,0.0,0.0,0.0,0.0,0.0,0.0,0.0,0.3333,0.0,0.3333,0.0,0
2.04,run,24.0,4.28,-22.48,17.42,13.7,0.0,0.05,0.0,0.351,13.54,-34.28,119.97,-26.54,-41.66,101.6,-18.9,-6.86,129.11,8.35,27.95,82.88,-34.89,30.23,75.06,4.39,11.87,64.95,20.82,-40.84,121.29,-20.0,-48.42,114.75,-12.5,-13.58,140.16,0.5,30.0,76.01,-35.0,30.0,70.54,-6.09,20.58,76.19,1.0,-1.0,0.5724,1.0,-1.0,1.0,1.0,-1.0,1.0,-1.0,1.0,-0.7056,-1.0,1.0,-1.0,-1.0,1.0,1.0,0.091,0.0,0.019,0.039,0.0,0.13,0.013,0.019,0.065,0.208,0.104,0.0,0.0,0.006,0.019,0.006,0.0,0.013,0.2163,-0.9081,0.6796,-0.4878,-0.9879,0.3728,-0.3528,-0.4341,0.8314,0.1687,0.201,0.0905,-0.609,0.1963,-0.0583,0.0982,-0.1227,-0.2638,0.3109,-0.3069,0.3204,0.2397,-0.3076,0.3025,0.2965,-0.3131,0.3004,-0.306,0.0561,-0.3111,-0.0875,0.0036,-0.1579,-0.023,0.3093,-0.0419,2.0174,0.2562,-0.0272,-0.0034,0.1389,1.0,-1.0,0.5623,1.0,-1.0,1.0,1.0,-1.0,1.0,-1.0,1.0,-0.7216,-1.0,1.0,-1.0,-1.0,1.0,1.0,0.0,0.0,0.0,0.0,0.0,0.0,0.0,0.0,0.0,0.3333,0.0,0.3333,0.0,0
2.08,run,23.46,4.78,-12.37,16.32,5.83,0.0,0.05,0.0,0.351,15.03,-35.86,121.11,-25.14,-43.07,103.18,-17.4,-8.35,130.52,7.12,27.95,81.47,-34.89,30.32,73.65,3.08,13.27,65.83,22.32,-42.34,119.79,-18.5,-49.92,116.25,-11.0,-15.08,141.66,-1.0,28.5,74.51,-35.0,28.5,69.04,-7.59,22.08,77.69,1.0,-0.9602,-0.4548,1.0,-1.0,1.0,1.0,-1.0,1.0,-1.0,-0.3125,-0.9969,-1.0,0.4207,-1.0,-1.0,1.0,1.0,0.091,0.0,0.019,0.039,0.0,0.13,0.013,0.019,0.065,0.208,0.104,0.0,0.0,0.006,0.019,0.006,0.0,0.013,0.2393,-0.9327,0.7026,-0.4617,-1.0109,0.3988,-0.3283,-0.4587,0.8544,0.1411,0.201,0.0675,-0.609,0.1963,-0.0782,0.0782,-0.0997,-0.2485,0.304,-0.307,0.3106,0.2656,-0.3016,0.3096,0.2996,-0.3113,0.2966,-0.3178,0.0392,-0.3041,-0.0612,0.0025,-0.1854,-0.0909,0.3029,0.0282,1.9428,0.3042,-0.3924,0.304,0.2392,1.0,-1.0,0.5724,1.0,-1.0,1.0,1.0,-1.0,1.0,-1.0,1.0,-0.7056,-1.0,1.0,-1.0,-1.0,1.0,1.0,0.0,0.0,0.0,0.0,0.0,0.0,0.0,0.0,0.0,0.3333,0.0,0.3333,0.0,0
2.12,run,22.73,3.98,-18.35,-23.23,6.16,0.0,0.05,0.0,0.351,16.44,-37.18,121.9,-23.73,-44.3,104.68,-16.08,-9.67,131.75,5.62,27.95,79.89,-34.89,29.79,72.16,1.32,14.24,67.24,23.68,-40.84,118.29,-17.0,-51.42,117.75,-9.5,-16.58,143.16,-2.5,27.0,76.01,-33.5,27.0,69.61,-9.09,23.58,79.19,0.6764,-0.1674,-0.6619,1.0,-1.0,1.0,1.0,-1.0,1.0,-1.0,-1.0,0.5627,-0.6314,0.8759,0.0542,-1.0,1.0,1.0,0.104,0.0,0.013,0.033,0.0,0.084,0.019,0.033,0.104,0.175,0.033,0.0,0.0,0.013,0.006,0.013,0.026,0.006,0.2654,-0.9603,0.7225,-0.4372,-1.0354,0.4264,-0.3022,-0.4847,0.879,0.1197,0.201,0.043,-0.609,0.1979,-0.1028,0.0552,-0.0752,-0.2332,0.3108,-0.3187,0.2924,0.2782,-0.3034,0.3205,0.3078,-0.3159,0.2999,-0.3032,0.0275,-0.3051,-0.0429,0.0075,-0.222,-0.1501,0.3043,0.0774,1.8962,0.3481,-0.216,0.2848,0.1018,1.0,-0.9602,-0.4548,1.0,-1.0,1.0,1.0,-1.0,1.0,-1.0,-0.3125,-0.9969,-1.0,0.4207,-1.0,-1.0,1.0,1.0,0.0,0.0,0.0,0.0,0.0,0.0,0.0,0.0,0.0,0.3333,0.0,0.3333,0.0,0
2.16,run,22.94,4.07,5.61,2.75,7.73,0.0,0.05,0.0,0.351,17.84,-38.32,122.34,-22.24,-45.7,106.08,-14.68,-10.99,132.98,4.13,27.95,78.49,-34.8,29.27,71.02,0.35,15.64,68.82,22.18,-42.34,116.79,-15.5,-52.92,119.25,-8.0,-18.08,144.66,-4.0,25.5,77.51,-32.0,28.5,68.11,-10.59,25.08,80.69,-0.5574,-1.0,0.3262,1.0,-1.0,1.0,1.0,-1.0,0.948,-1.0,-1.0,0.917,0.2387,1.0,-0.5093,-1.0,1.0,1.0,0.104,0.0,0.013,0.033,0.0,0.084,0.019,0.033,0.104,0.175,0.033,0.0,0.0,0.013,0.006,0.013,0.026,0.006,0.2899,-0.9833,0.7363,-0.4126,-1.0569,0.4525,-0.2792,-0.5077,0.9004,0.0936,0.201,0.0153,-0.609,0.1887,-0.1289,0.0245,-0.0583,-0.2086,0.3097,-0.3094,0.2565,0.2868,-0.293,0.3222,0.3018,-0.3075,0.2905,-0.3101,0.0192,-0.3172,-0.03,-0.0293,-0.2532,-0.2202,0.2763,0.1463,1.8319,0.2784,-0.3203,-0.4055,0.1076,0.6764,-0.1674,-0.6619,1.0,-1.0,1.0,1.0,-1.0,1.0,-1.0,-1.0,0.5627,-0.6314,0.8759,0.0542,-1.0,1.0,1.0,0.0,0.0,0.0,0.0,0.0,0.0,0.0,0.0,0.0,0.3333,0.0,0.3333,0.0,0
2.2,run,23.04,3.7,0.41,-6.68,7.51,0.0,0.05,0.0,0.351,19.25,-39.46,122.52,-20.83,-47.11,107.58,-13.27,-12.3,133.95,2.81,27.77,77.34,-34.28,28.48,69.96,-1.32,17.23,70.22,20.68,-40.84,115.29,-14.0,-54.42,120.75,-6.5,-19.58,143.16,-5.5,24.0,79.01,-30.5,30.0,66.61,-12.09,26.58,82.19,-0.7866,0.377,-1.0,1.0,-1.0,0.9123,1.0,-1.0,0.3279,-1.0,-1.0,1.0,0.5211,1.0,-0.8954,-1.0,1.0,1.0,0.104,0.0,0.013,0.033,0.0,0.084,0.019,0.033,0.104,0.175,0.033,0.0,0.0,0.013,0.006,0.013,0.026,0.006,0.3145,-1.0032,0.744,-0.3866,-1.0815,0.4771,-0.2546,-0.5308,0.9219,0.0675,0.201,-0.0092,-0.6075,0.1795,-0.1488,0.0077,-0.0337,-0.181,0.3089,-0.2914,0.2083,0.2987,-0.2972,0.3177,0.3034,-0.3016,0.284,-0.315,0.0135,-0.3142,-0.0152,-0.055,-0.2521,-0.2175,0.2856,0.2061,1.8503,0.2861,0.0979,0.048,0.1349,-0.5574,-1.0,0.3262,1.0,-1.0,1.0,1.0,-1.0,0.948,-1.0,-1.0,0.917,0.2387,1.0,-0.5093,-1.0,1.0,1.0,0.0,0.0,0.0,0.0,0.0,0.0,0.0,0.0,0.0,0.3333,0.0,0.3333,0.0,0
2.24,run,22.86,3.65,-5.27,-0.74,1.36,0.0,0.05,0.0,0.351,20.3,-40.52,122.43,-19.42,-48.52,108.98,-11.87,-13.89,134.82,1.32,26.72,76.73,-33.22,28.04,68.82,-2.72,18.63,71.63,19.18,-39.34,113.79,-12.5,-55.92,119.25,-5.0,-21.08,141.66,-7.0,22.5,80.51,-29.0,30.0,68.11,-13.59,28.08,83.69,-1.0,0.7601,-0.2792,1.0,-1.0,0.5605,1.0,-1.0,-0.9385,-1.0,-1.0,1.0,0.4253,1.0,0.2727,-1.0,1.0,1.0,0.071,0.0,0.006,0.039,0.0,0.104,0.013,0.019,0.351,0.175,0.0,0.0,0.013,0.0,0.006,0.013,0.039,0.013,0.339,-1.0232,0.747,-0.362,-1.106,0.5031,-0.2301,-0.5538,0.9388,0.0445,0.1979,-0.0291,-0.5983,0.1657,-0.1672,-0.0215,-0.0061,-0.1565,0.3082,-0.2787,0.1573,0.301,-0.3,0.3201,0.3043,-0.2973,0.262,-0.3067,-0.0021,-0.2946,0.0238,-0.0903,-0.2455,-0.2614,0.3033,0.2362,1.8598,0.2543,0.0072,-0.1166,0.131,-0.7866,0.377,-1.0,1.0,-1.0,0.9123,1.0,-1.0,0.3279,-1.0,-1.0,1.0,0.5211,1.0,-0.8954,-1.0,1.0,1.0,0.0,0.0,0.0,0.0,0.0,0.0,0.0,0.0,0.0,0.3333,0.0,0.3333,0.0,0
2.28,run,22.65,3.55,-5.72,-2.07,-4.67,0.0,0.05,0.0,0.351,21.09,-41.4,121.99,-18.02,-49.83,110.48,-10.46,-15.29,135.44,-0.09,25.49,76.03,-32.17,27.95,67.68,-4.13,19.95,73.12,20.68,-37.84,112.29,-11.0,-57.42,117.75,-3.5,-22.58,140.16,-8.5,21.0,82.01,-27.5,30.0,69.61,-15.09,29.58,85.19,1.0,1.0,0.4411,1.0,-1.0,0.4241,1.0,-1.0,-0.8712,-1.0,-1.0,1.0,0.2182,1.0,0.179,-1.0,1.0,1.0,0.071,0.0,0.006,0.039,0.0,0.104,0.013,0.019,0.351,0.175,0.0,0.0,0.013,0.0,0.006,0.013,0.039,0.013,0.3574,-1.0416,0.7455,-0.3375,-1.1305,0.5277,-0.2056,-0.5814,0.9541,0.0184,0.1795,-0.0399,-0.5798,0.158,-0.1871,-0.046,0.0184,-0.1319,0.2844,-0.2638,0.1044,0.3023,-0.3015,0.3156,0.3046,-0.3111,0.2406,-0.3119,-0.0701,-0.2463,0.0853,-0.0918,-0.2462,-0.2745,0.3039,0.2569,1.8433,0.2492,-0.0919,-0.0129,0.0238,-1.0,0.7601,-0.2792,1.0,-1.0,0.5605,1.0,-1.0,-0.9385,-1.0,-1.0,1.0,0.4253,1.0,0.2727,-1.0,1.0,1.0,0.0,0.0,0.0,0.0,0.0,0.0,0.0,0.0,0.0,0.3333,0.0,0.3333,0.0,0
2.32,run,22.06,3.85,-12.2,6.71,-12.77,0.0,0.05,0.0,0.351,21.71,-42.01,121.2,-16.61,-51.15,112.06,-9.05,-16.61,135.88,-1.58,24.17,76.03,-30.85,28.39,67.15,-5.54,21.18,74.44,22.18,-36.34,110.79,-9.5,-58.92,116.25,-2.0,-24.08,138.66,-10.0,19.5,83.51,-26.0,30.0,68.11,-16.59,30.0,86.69,1.0,1.0,0.0941,1.0,-1.0,0.0521,1.0,-1.0,-0.8341,-1.0,-1.0,1.0,1.0,1.0,-0.5769,-1.0,1.0,1.0,0.071,0.0,0.006,0.039,0.0,0.104,0.013,0.019,0.351,0.175,0.0,0.0,0.013,0.0,0.006,0.013,0.039,0.013,0.3712,-1.0569,0.7378,-0.3129,-1.1536,0.5538,-0.181,-0.6059,0.9649,-0.0061,0.158,-0.0522,-0.5614,0.1565,-0.2071,-0.0706,0.0414,-0.1058,0.2511,-0.2424,0.0442,0.304,-0.2977,0.3191,0.3056,-0.3102,0.2089,-0.3108,-0.13,-0.2186,0.1291,-0.07,-0.2474,-0.2846,0.2994,0.278,1.825,0.2408,-0.0998,-0.0362,-0.0815,1.0,1.0,0.4411,1.0,-1.0,0.4241,1.0,-1.0,-0.8712,-1.0,-1.0,1.0,0.2182,1.0,0.179,-1.0,1.0,1.0,0.0,0.0,0.0,0.0,0.0,0.0,0.0,0.0,0.0,0.3333,0.0,0.3333,0.0,0
2.36,run,21.55,3.54,-11.97,-8.6,-22.97,0.0,0.05,0.0,0.689,22.06,-42.28,119.88,-15.21,-52.56,113.47,-7.56,-18.02,136.23,-3.16,22.85,76.03,-29.44,29.0,66.62,-7.03,22.32,75.76,23.68,-34.84,109.29,-8.0,-60.42,117.75,-0.5,-25.58,137.16,-11.5,18.0,85.01,-24.5,30.0,66.61,-18.09,30.0,88.19,1.0,1.0,-0.4966,1.0,-1.0,1.0,1.0,-1.0,-1.0,-1.0,-1.0,1.0,1.0,1.0,-0.6434,-1.0,1.0,1.0,0.019,0.006,0.019,0.039,0.0,0.033,0.019,0.033,0.689,0.091,0.0,0.058,0.013,0.013,0.0,0.006,0.071,0.019,0.382,-1.0677,0.724,-0.2884,-1.1766,0.5814,-0.1565,-0.6289,0.9725,-0.0322,0.135,-0.0522,-0.5384,0.1641,-0.2163,-0.0951,0.0629,-0.0828,0.216,-0.2099,-0.0208,0.3047,-0.2946,0.3268,0.3058,-0.3033,0.1749,-0.3152,-0.1771,-0.153,0.1765,-0.0203,-0.2077,-0.2911,0.29,0.2808,1.7735,0.2674,-0.2129,0.117,-0.2229,1.0,1.0,0.0941,1.0,-1.0,0.0521,1.0,-1.0,-0.8341,-1.0,-1.0,1.0,1.0,1.0,-0.5769,-1.0,1.0,1.0,0.0,0.0,0.0,0.0,0.0,0.0,0.0,0.0,0.0,0.3333,0.0,0.3333,0.0,0
2.4,run,21.53,3.18,0.53,-7.05,-29.75,0.0,0.05,0.0,0.689,22.15,-42.28,118.92,-13.8,-53.96,114.7,-6.15,-19.42,136.41,-4.66,21.45,76.55,-28.04,29.62,66.71,-8.7,23.55,77.08,25.18,-33.34,107.79,-6.5,-61.92,119.25,1.0,-27.08,135.66,-13.0,16.5,86.51,-23.0,30.0,65.11,-19.59,30.0,89.69,1.0,1.0,-0.2155,1.0,-1.0,1.0,0.6594,-0.4509,-1.0,-1.0,-1.0,1.0,1.0,1.0,-0.5321,-1.0,1.0,1.0,0.019,0.006,0.019,0.039,0.0,0.033,0.019,0.033,0.689,0.091,0.0,0.058,0.013,0.013,0.0,0.006,0.071,0.019,0.3881,-1.0723,0.701,-0.2638,-1.2011,0.6059,-0.1304,-0.6535,0.9787,-0.0598,0.112,-0.0522,-0.5139,0.1749,-0.2255,-0.1212,0.0828,-0.0598,0.1742,-0.1642,-0.101,0.3055,-0.2984,0.321,0.3121,-0.3046,0.1455,-0.3244,-0.2105,-0.1071,0.2158,0.0261,-0.18,-0.3018,0.2779,0.283,1.729,0.2396,-0.2089,-0.1501,-0.4008,1.0,1.0,-0.4966,1.0,-1.0,1.0,1.0,-1.0,-1.0,-1.0,-1.0,1.0,1.0,1.0,-0.6434,-1.0,1.0,1.0,0.0,0.0,0.0,0.0,0.0,0.0,0.0,0.0,0.0,0.3333,0.0,0.3333,0.0,0
2.44,run,21.4,2.79,-4.11,-8.83,-25.54,0.0,0.05,0.0,0.689,22.5,-42.01,117.33,-12.22,-55.37,116.02,-4.83,-20.74,136.49,-6.15,20.21,77.43,-26.63,29.79,66.36,-9.93,24.79,78.31,26.68,-31.84,106.29,-5.0,-63.42,120.75,-0.02,-28.58,134.16,-14.5,15.0,88.01,-21.5,30.0,63.61,-21.09,28.5,91.19,1.0,1.0,-0.3041,1.0,-1.0,1.0,-0.0006,-0.7523,-1.0,-1.0,-1.0,1.0,1.0,1.0,-1.0,-1.0,0.6714,1.0,0.019,0.006,0.019,0.039,0.0,0.033,0.019,0.033,0.689,0.091,0.0,0.058,0.013,0.013,0.0,0.006,0.071,0.019,0.3896,-1.0723,0.6842,-0.2393,-1.2257,0.6274,-0.1058,-0.678,0.9817,-0.0859,0.0874,-0.043,-0.4893,0.1856,-0.224,-0.1503,0.1043,-0.0368,0.1277,-0.115,-0.1343,0.3064,-0.3014,0.3057,0.311,-0.3057,0.1134,-0.3254,-0.2398,-0.0403,0.2436,0.0588,-0.1202,-0.3211,0.2755,0.2849,1.7277,0.2086,0.0092,-0.123,-0.5192,1.0,1.0,-0.2155,1.0,-1.0,1.0,0.6594,-0.4509,-1.0,-1.0,-1.0,1.0,1.0,1.0,-0.5321,-1.0,1.0,1.0,0.0,0.0,0.0,0.0,0.0,0.0,0.0,0.0,0.0,0.3333,0.0,0.3333,0.0,0
2.48,run,21.28,2.43,-4.56,-8.73,-16.53,0.0,0.05,0.0,0.689,23.29,-41.22,115.84,-10.81,-56.69,117.42,-3.43,-22.15,136.49,-7.56,18.72,78.57,-25.22,29.97,65.83,-11.43,25.93,79.54,28.18,-30.34,104.79,-3.5,-64.92,122.25,1.48,-27.08,132.66,-16.0,13.5,89.51,-20.0,30.0,62.11,-22.59,27.0,92.69,1.0,1.0,-0.7158,0.7922,-1.0,1.0,0.2594,0.5184,-1.0,-1.0,-1.0,1.0,1.0,1.0,-1.0,-1.0,-0.0318,1.0,0.058,0.052,0.013,0.026,0.006,0.033,0.013,0.065,0.39,0.084,0.0,0.052,0.013,0.0,0.006,0.006,0.091,0.058,0.3958,-1.0677,0.6565,-0.2117,-1.2502,0.6504,-0.0828,-0.701,0.9833,-0.112,0.066,-0.0276,-0.4648,0.1887,-0.2301,-0.1718,0.1258,-0.0153,0.1123,-0.0633,-0.1969,0.3174,-0.3025,0.2997,0.3034,-0.2998,0.0851,-0.325,-0.2479,0.029,0.262,0.0526,-0.107,-0.3048,0.2729,0.2794,1.7163,0.1744,-0.0717,-0.1541,-0.4457,1.0,1.0,-0.3041,1.0,-1.0,1.0,-0.0006,-0.7523,-1.0,-1.0,-1.0,1.0,1.0,1.0,-1.0,-1.0,0.6714,1.0,0.0,0.0,0.0,0.0,0.0,0.0,0.0,0.0,0.0,0.3333,0.0,0.3333,0.0,0
2.52,run,21.07,2.05,-6.14,-9.61,-11.63,0.0,0.05,0.0,0.689,24.26,-40.25,114.35,-9.32,-58.1,118.83,-2.11,-23.47,136.49,-8.88,17.31,79.98,-23.73,29.97,65.04,-12.83,26.81,80.86,29.68,-28.84,103.29,-5.0,-66.42,123.75,-0.02,-25.58,131.16,-17.5,12.0,91.01,-18.5,30.0,60.61,-24.09,25.5,94.19,1.0,1.0,-0.4415,-0.2355,-1.0,1.0,-0.1943,0.2915,-1.0,-1.0,-1.0,1.0,1.0,1.0,-1.0,-1.0,-0.342,1.0,0.058,0.052,0.013,0.026,0.006,0.033,0.013,0.065,0.39,0.084,0.0,0.052,0.013,0.0,0.006,0.006,0.091,0.058,0.4096,-1.0538,0.6305,-0.1871,-1.2732,0.675,-0.0583,-0.7256,0.9833,-0.1365,0.0399,-0.0077,-0.4403,0.1917,-0.2393,-0.1979,0.1457,0.0061,0.1304,0.0075,-0.2357,0.3143,-0.2981,0.3019,0.3045,-0.3019,0.0596,-0.3196,-0.2714,0.0951,0.2755,0.0483,-0.1094,-0.3112,0.2659,0.2762,1.706,0.1427,-0.0795,-0.1523,-0.2885,1.0,1.0,-0.7158,0.7922,-1.0,1.0,0.2594,0.5184,-1.0,-1.0,-1.0,1.0,1.0,1.0,-1.0,-1.0,-0.0318,1.0,0.0,0.0,0.0,0.0,0.0,0.0,0.0,0.0,0.0,0.3333,0.0,0.3333,0.0,0
2.56,run,20.86,1.53,-4.27,-12.4,-9.72,0.0,0.05,0.0,0.689,25.58,-38.85,112.94,-7.91,-59.5,120.23,-0.88,-24.7,136.49,-10.28,15.91,81.47,-22.41,29.97,63.9,-14.15,27.42,82.18,31.18,-27.34,101.79,-6.5,-67.92,125.25,-1.52,-24.08,129.66,-19.0,10.5,92.51,-17.0,30.0,59.11,-25.59,24.0,95.69,1.0,1.0,-0.0183,-1.0,-1.0,1.0,-0.6426,0.6377,-1.0,-1.0,-1.0,1.0,1.0,1.0,-1.0,-1.0,-1.0,1.0,0.058,0.052,0.013,0.026,0.006,0.033,0.013,0.065,0.39,0.084,0.0,0.052,0.013,0.0,0.006,0.006,0.091,0.058,0.4264,-1.037,0.6044,-0.1611,-1.2977,0.6995,-0.0353,-0.7486,0.9833,-0.1595,0.0153,0.0169,-0.4142,0.1917,-0.2531,-0.2224,0.1611,0.0291,0.1548,0.0687,-0.2631,0.3181,-0.301,0.3037,0.2997,-0.2979,0.0417,-0.3103,-0.2823,0.1589,0.291,0.0338,-0.1286,-0.3102,0.2438,0.2799,1.6878,0.1101,-0.1072,-0.1678,-0.203,1.0,1.0,-0.4415,-0.2355,-1.0,1.0,-0.1943,0.2915,-1.0,-1.0,-1.0,1.0,1.0,1.0,-1.0,-1.0,-0.342,1.0,0.0,0.0,0.0,0.0,0.0,0.0,0.0,0.0,0.0,0.3333,0.0,0.3333,0.0,0
2.6,run,20.86,0.89,0.74,-15.51,-8.82,0.0,0.05,0.0,0.689,26.98,-37.53,111.53,-6.77,-60.91,121.64,0.09,-25.75,136.41,-11.69,14.5,82.79,-21.09,29.97,62.58,-15.56,27.77,83.5,32.68,-25.84,103.29,-8.0,-69.42,124.22,-3.02,-22.58,128.16,-20.5,9.0,94.01,-15.5,30.0,57.61,-27.09,22.5,97.19,1.0,1.0,0.563,-1.0,-1.0,0.6967,-1.0,0.7354,-1.0,-1.0,-1.0,1.0,1.0,1.0,-1.0,-1.0,-1.0,0.9793,0.078,0.045,0.013,0.013,0.013,0.019,0.006,0.026,0.019,0.13,0.0,0.091,0.019,0.0,0.013,0.006,0.084,0.084,0.4495,-1.0124,0.5798,-0.1365,-1.3223,0.724,-0.0138,-0.7701,0.9833,-0.1841,-0.0092,0.043,-0.3912,0.1917,-0.273,-0.2454,0.1718,0.0522,0.1944,0.1399,-0.2759,0.3144,-0.3025,0.3043,0.2901,-0.2888,0.0292,-0.309,-0.2894,0.2088,0.2897,0.0237,-0.1645,-0.3032,0.2108,0.282,1.6696,0.0643,-0.0745,-0.2164,-0.1697,1.0,1.0,-0.0183,-1.0,-1.0,1.0,-0.6426,0.6377,-1.0,-1.0,-1.0,1.0,1.0,1.0,-1.0,-1.0,-1.0,1.0,0.0,0.0,0.0,0.0,0.0,0.0,0.0,0.0,0.0,0.3333,0.0,0.3333,0.0,0
2.64,run,20.86,0.37,1.28,-13.15,-6.95,0.0,0.05,0.0,0.689,28.39,-36.12,110.13,-5.8,-62.23,122.96,0.79,-26.46,135.79,-13.01,13.01,84.11,-19.51,29.97,61.17,-17.05,27.86,84.9,34.18,-24.34,104.79,-9.5,-70.92,125.72,-4.52,-21.08,126.66,-22.0,7.5,95.51,-14.0,30.0,56.11,-28.59,21.0,95.69,1.0,0.4814,1.0,-1.0,-1.0,0.8046,-1.0,1.0,-1.0,-1.0,-1.0,1.0,1.0,1.0,-0.5954,-1.0,-1.0,-0.1422,0.078,0.045,0.013,0.013,0.013,0.019,0.006,0.026,0.019,0.13,0.0,0.091,0.019,0.0,0.013,0.006,0.084,0.084,0.474,-0.9894,0.5553,-0.1166,-1.3468,0.7486,0.0031,-0.7885,0.9817,-0.2086,-0.0337,0.066,-0.3682,0.1917,-0.2961,-0.27,0.1779,0.0752,0.228,0.1841,-0.2851,0.2948,-0.3037,0.305,0.2663,-0.2712,0.0147,-0.3082,-0.2945,0.2323,0.289,0.0166,-0.2014,-0.3042,0.1706,0.2836,1.6696,0.0088,0.0129,-0.2708,-0.154,1.0,1.0,0.563,-1.0,-1.0,0.6967,-1.0,0.7354,-1.0,-1.0,-1.0,1.0,1.0,1.0,-1.0,-1.0,-1.0,0.9793,0.0,0.0,0.0,0.0,0.0,0.0,0.0,0.0,0.0,0.3333,0.0,0.3333,0.0,0
2.68,run,20.81,0.03,-1.38,-8.74,-0.07,0.0,0.05,0.0,0.689,29.62,-34.72,108.72,-5.19,-63.54,124.01,1.14,-26.89,134.82,-14.41,11.51,85.61,-18.11,29.97,59.68,-18.28,27.95,86.31,35.0,-25.84,106.29,-11.0,-72.42,124.22,-6.02,-19.58,125.16,-20.5,6.0,97.01,-12.5,30.0,54.61,-30.09,19.5,94.19,1.0,-0.2163,1.0,-1.0,-1.0,0.1962,-1.0,0.8892,-1.0,-0.4441,-1.0,1.0,0.8696,1.0,-0.4564,-1.0,-1.0,-1.0,0.078,0.045,0.013,0.013,0.013,0.019,0.006,0.026,0.019,0.13,0.0,0.091,0.019,0.0,0.013,0.006,0.084,0.084,0.4985,-0.9649,0.5308,-0.0997,-1.3698,0.7716,0.0153,-0.8007,0.971,-0.2316,-0.0598,0.089,-0.3405,0.1917,-0.3206,-0.2961,0.1795,0.0997,0.2523,0.2216,-0.2923,0.2701,-0.2995,0.3004,0.2327,-0.2362,-0.0303,-0.3026,-0.3046,0.2495,0.3066,0.0116,-0.2337,-0.3114,0.1252,0.2912,1.6692,-0.0364,0.0223,-0.2295,-0.1213,1.0,0.4814,1.0,-1.0,-1.0,0.8046,-1.0,1.0,-1.0,-1.0,-1.0,1.0,1.0,1.0,-0.5954,-1.0,-1.0,-0.1422,0.0,0.0,0.0,0.0,0.0,0.0,0.0,0.0,0.0,0.3333,0.0,0.3333,0.0,0
2.72,run,20.71,-0.45,-2.33,-12.36,1.12,0.0,0.05,0.0,0.689,30.94,-33.4,107.4,-4.83,-64.6,124.8,1.14,-26.72,133.95,-15.64,10.02,87.01,-16.79,29.97,58.27,-19.86,27.69,87.71,35.0,-27.34,107.79,-12.5,-73.92,122.72,-7.52,-21.08,123.66,-19.0,4.5,98.51,-14.0,30.0,55.55,-31.59,18.0,92.69,1.0,-1.0,1.0,-1.0,-1.0,0.4374,-1.0,-0.1053,-1.0,0.4465,-1.0,1.0,-0.5577,1.0,-0.1112,-1.0,-1.0,-1.0,0.111,0.071,0.006,0.0,0.019,0.006,0.013,0.006,0.006,0.169,0.0,0.058,0.013,0.0,0.013,0.013,0.0,0.065,0.52,-0.9403,0.5062,-0.089,-1.3929,0.79,0.0215,-0.8084,0.9541,-0.2562,-0.0859,0.115,-0.316,0.1917,-0.3467,-0.3175,0.181,0.1243,0.2567,0.2466,-0.2961,0.2291,-0.2954,0.2789,0.1858,-0.1939,-0.0841,-0.3034,-0.3105,0.2719,0.3061,0.0081,-0.2608,-0.298,0.0934,0.2953,1.6648,-0.0661,-0.0241,-0.1526,-0.0012,1.0,-0.2163,1.0,-1.0,-1.0,0.1962,-1.0,0.8892,-1.0,-0.4441,-1.0,1.0,0.8696,1.0,-0.4564,-1.0,-1.0,-1.0,0.0,0.0,0.0,0.0,0.0,0.0,0.0,0.0,0.0,0.3333,0.0,0.3333,0.0,0
2.76,run,20.82,-0.82,2.69,-8.13,2.4,0.0,0.05,0.0,0.689,32.08,-31.99,106.44,-4.83,-66.18,125.42,0.97,-26.1,132.89,-16.88,8.61,88.33,-15.47,29.97,57.04,-21.18,26.72,89.12,35.0,-28.84,109.29,-14.0,-75.42,124.22,-9.02,-22.58,122.16,-17.5,3.0,100.01,-15.5,30.0,57.05,-33.09,16.5,91.19,1.0,-1.0,1.0,-1.0,-1.0,0.9397,-1.0,-0.3939,-1.0,1.0,-1.0,1.0,-1.0,1.0,0.8777,-1.0,-1.0,-1.0,0.111,0.071,0.006,0.0,0.019,0.006,0.013,0.006,0.006,0.169,0.0,0.058,0.013,0.0,0.013,0.013,0.0,0.065,0.543,-0.9173,0.4832,-0.0828,-1.4113,0.8038,0.0215,-0.8053,0.9388,-0.2777,-0.112,0.1396,-0.293,0.1917,-0.3712,-0.3451,0.1764,0.1488,0.2656,0.2585,-0.2932,0.1833,-0.2755,0.2468,0.1301,-0.1243,-0.1161,-0.2925,-0.3147,0.282,0.3002,0.0057,-0.2742,-0.3117,0.0482,0.2984,1.656,-0.1086,-0.0406,-0.2158,0.0195,1.0,-1.0,1.0,-1.0,-1.0,0.4374,-1.0,-0.1053,-1.0,0.4465,-1.0,1.0,-0.5577,1.0,-0.1112,-1.0,-1.0,-1.0,0.0,0.0,0.0,0.0,0.0,0.0,0.0,0.0,0.0,0.3333,0.0,0.3333,0.0,0
2.8,run,20.92,-1.08,3.76,-5.45,5.92,0.0,0.05,0.0,0.689,32.78,-30.85,105.64,-4.92,-67.68,125.51,0.18,-25.4,132.1,-17.75,7.29,89.74,-14.5,29.97,55.99,-22.68,25.66,90.35,35.0,-30.34,110.79,-15.5,-76.92,122.72,-10.52,-24.08,120.66,-16.0,1.5,101.51,-17.0,30.0,58.55,-34.59,15.0,89.69,1.0,-1.0,1.0,-1.0,-1.0,0.2318,-1.0,-0.9256,-1.0,1.0,-1.0,1.0,-1.0,1.0,1.0,-1.0,-1.0,-1.0,0.111,0.071,0.006,0.0,0.019,0.006,0.013,0.006,0.006,0.169,0.0,0.058,0.013,0.0,0.013,0.013,0.0,0.065,0.563,-0.8928,0.4663,-0.0828,-1.4389,0.8145,0.0184,-0.7946,0.9204,-0.2991,-0.1365,0.1626,-0.27,0.1917,-0.3927,-0.3682,0.1595,0.1733,0.261,0.2734,-0.2688,0.1283,-0.2968,0.2132,0.0795,-0.0466,-0.1506,-0.2856,-0.3127,0.284,0.2968,0.004,-0.2728,-0.3048,-0.0298,0.3013,1.6657,-0.1407,0.0469,-0.1418,0.0419,1.0,-1.0,1.0,-1.0,-1.0,0.9397,-1.0,-0.3939,-1.0,1.0,-1.0,1.0,-1.0,1.0,0.8777,-1.0,-1.0,-1.0,0.0,0.0,0.0,0.0,0.0,0.0,0.0,0.0,0.0,0.3333,0.0,0.3333,0.0,0
2.84,run,20.29,-1.31,-6.1,-2.1,2.54,0.0,0.05,0.0,0.689,33.84,-29.0,105.12,-7.82,-71.1,124.1,-3.08,-23.64,128.94,-19.16,3.78,93.25,-13.36,29.97,54.84,-26.02,22.59,92.02,35.0,-31.84,112.29,-17.0,-78.42,121.22,-12.02,-25.58,119.16,-14.5,0.0,103.01,-18.5,30.0,60.05,-35.0,13.5,88.19,1.0,-1.0,1.0,-1.0,-1.0,0.0416,-1.0,-0.9109,-1.0,1.0,-1.0,1.0,-1.0,1.0,1.0,-1.0,-1.0,-1.0,0.052,0.039,0.013,0.013,0.019,0.013,0.013,0.006,0.058,0.052,0.0,0.045,0.006,0.0,0.013,0.019,0.006,0.006,0.5752,-0.8728,0.4525,-0.0844,-1.465,0.8161,0.0046,-0.7823,0.9066,-0.3145,-0.1595,0.1871,-0.2531,0.1917,-0.4111,-0.3942,0.1411,0.1948,0.2287,0.2661,-0.2399,0.0841,-0.3055,0.155,0.0039,0.0134,-0.1572,-0.2574,-0.3051,0.2908,0.271,0.0028,-0.2599,-0.3111,-0.0899,0.2914,1.6739,-0.1629,0.0657,-0.0951,0.1033,1.0,-1.0,1.0,-1.0,-1.0,0.2318,-1.0,-0.9256,-1.0,1.0,-1.0,1.0,-1.0,1.0,1.0,-1.0,-1.0,-1.0,0.0,0.0,0.0,0.0,0.0,0.0,0.0,0.0,0.0,0.3333,0.0,0.3333,0.0,0
2.88,run,19.98,-1.26,-9.66,2.85,-1.7,0.0,0.05,0.0,0.689,34.01,-28.74,105.12,-8.88,-72.25,123.22,-4.13,-23.55,127.97,-19.16,2.72,94.31,-13.45,29.97,54.93,-27.07,21.53,92.2,35.0,-33.34,113.79,-18.5,-79.92,119.72,-13.52,-27.08,117.66,-13.0,-1.5,104.51,-20.0,30.0,61.55,-35.0,12.0,86.69,1.0,-1.0,1.0,-1.0,-1.0,0.5429,-1.0,-1.0,-1.0,1.0,-1.0,1.0,-1.0,1.0,1.0,-1.0,-1.0,-1.0,0.052,0.039,0.013,0.013,0.019,0.013,0.013,0.006,0.058,0.052,0.0,0.045,0.006,0.0,0.013,0.019,0.006,0.006,0.5937,-0.8406,0.4433,-0.135,-1.5248,0.7915,-0.0522,-0.7517,0.8514,-0.339,-0.2209,0.2485,-0.2332,0.1917,-0.431,-0.4525,0.0874,0.224,0.1886,0.2363,-0.1822,-0.0197,-0.3067,0.0704,-0.0853,0.057,-0.1957,-0.2183,-0.3088,0.2988,0.2206,0.0019,-0.2129,-0.3082,-0.1462,0.2492,1.619,-0.1836,-0.1064,-0.0366,0.0443,1.0,-1.0,1.0,-1.0,-1.0,0.0416,-1.0,-0.9109,-1.0,1.0,-1.0,1.0,-1.0,1.0,1.0,-1.0,-1.0,-1.0,0.0,0.0,0.0,0.0,0.0,0.0,0.0,0.0,0.0,0.3333,0.0,0.3333,0.0,0
2.92,run,19.52,-1.37,-9.96,-1.54,-9.29,0.0,0.05,0.0,0.689,34.01,-28.74,105.91,-10.37,-73.65,122.17,-5.54,-23.82,126.65,-19.16,1.49,95.8,-13.89,29.97,55.46,-28.56,20.13,92.29,35.0,-34.84,115.29,-20.0,-80.0,121.22,-15.02,-28.58,116.16,-11.5,-3.0,106.01,-21.5,30.0,63.05,-35.0,10.5,85.19,1.0,-1.0,1.0,-1.0,-1.0,1.0,-1.0,-1.0,-1.0,1.0,-1.0,1.0,-1.0,1.0,1.0,-1.0,-1.0,-1.0,0.052,0.039,0.013,0.013,0.019,0.013,0.013,0.006,0.058,0.052,0.0,0.045,0.006,0.0,0.013,0.019,0.006,0.006,0.5967,-0.836,0.4433,-0.1534,-1.5447,0.7762,-0.0706,-0.7501,0.8345,-0.339,-0.2393,0.2669,-0.2347,0.1917,-0.4295,-0.4709,0.069,0.227,0.1466,0.1872,-0.1275,-0.1009,-0.3091,-0.0233,-0.1469,0.0471,-0.2169,-0.1528,-0.3033,0.2963,0.1472,0.0014,-0.1418,-0.3029,-0.1895,0.189,1.5919,-0.1793,-0.1687,0.0498,-0.0297,1.0,-1.0,1.0,-1.0,-1.0,0.5429,-1.0,-1.0,-1.0,1.0,-1.0,1.0,-1.0,1.0,1.0,-1.0,-1.0,-1.0,0.0,0.0,0.0,0.0,0.0,0.0,0.0,0.0,0.0,0.3333,0.0,0.3333,0.0,0
2.96,run,18.89,-1.73,-16.11,-8.74,-9.67,0.0,0.05,0.0,0.689,34.01,-28.74,107.14,-11.78,-75.06,121.2,-6.94,-24.52,125.42,-18.46,0.09,97.21,-14.77,29.97,56.6,-29.97,18.72,92.11,35.0,-36.34,116.79,-21.5,-80.0,122.72,-16.52,-30.08,114.66,-10.0,-4.5,107.51,-23.0,30.0,64.55,-35.0,9.0,83.69,1.0,-1.0,1.0,-1.0,-1.0,1.0,-1.0,-0.9036,-1.0,1.0,-1.0,1.0,-1.0,1.0,0.9873,-1.0,-1.0,-1.0,0.078,0.0,0.013,0.019,0.013,0.006,0.013,0.026,0.078,0.0,0.0,0.084,0.013,0.0,0.019,0.026,0.0,0.026,0.5967,-0.836,0.4571,-0.1795,-1.5693,0.7578,-0.0951,-0.7547,0.8115,-0.339,-0.2608,0.293,-0.2424,0.1917,-0.4203,-0.497,0.0445,0.2286,0.1026,0.131,-0.0379,-0.1677,-0.3077,-0.0848,-0.1941,0.0159,-0.2374,-0.107,-0.2922,0.3044,0.0745,0.001,-0.065,-0.3091,-0.224,0.138,1.5526,-0.1887,-0.1739,-0.0268,-0.1621,1.0,-1.0,1.0,-1.0,-1.0,1.0,-1.0,-1.0,-1.0,1.0,-1.0,1.0,-1.0,1.0,1.0,-1.0,-1.0,-1.0,0.0,0.0,0.0,0.0,0.0,0.0,0.0,0.0,0.0,0.3333,0.0,0.3333,0.0,0
3.0,run,18.38,-1.77,-11.21,0.26,-9.75,0.0,0.05,0.0,0.689,34.01,-29.62,108.81,-13.54,-76.73,120.5,-8.61,-25.4,123.84,-17.05,-1.41,98.79,-16.17,29.97,57.92,-31.64,17.14,90.62,35.0,-37.84,118.29,-23.0,-80.0,124.22,-18.02,-31.58,113.16,-8.5,-6.0,109.01,-24.5,30.0,66.05,-35.0,7.5,82.19,1.0,-1.0,1.0,-1.0,-1.0,1.0,-1.0,-0.1302,-1.0,1.0,-1.0,1.0,-1.0,1.0,0.6089,-1.0,-1.0,-1.0,0.078,0.0,0.013,0.019,0.013,0.006,0.013,0.026,0.078,0.0,0.0,0.084,0.013,0.0,0.019,0.026,0.0,0.026,0.5967,-0.836,0.4786,-0.204,-1.5938,0.7409,-0.1197,-0.767,0.79,-0.3267,-0.2853,0.3175,-0.2577,0.1917,-0.4004,-0.5216,0.0199,0.2255,0.0718,0.0917,0.054,-0.2094,-0.3074,-0.1227,-0.2279,-0.0349,-0.2467,-0.0289,-0.2966,0.3051,-0.0054,0.0007,0.0293,-0.3084,-0.2488,0.0851,1.4975,-0.2201,-0.2812,-0.1526,-0.1688,1.0,-1.0,1.0,-1.0,-1.0,1.0,-1.0,-0.9036,-1.0,1.0,-1.0,1.0,-1.0,1.0,0.9873,-1.0,-1.0,-1.0,0.0,0.0,0.0,0.0,0.0,0.0,0.0,0.0,0.0,0.3333,0.0,0.3333,0.0,0
3.04,run,18.09,-1.71,-7.63,0.87,-6.55,0.0,0.05,0.0,0.689,34.1,-30.67,110.21,-14.94,-77.87,120.23,-10.02,-26.46,122.61,-15.73,-2.64,100.28,-17.49,29.62,59.33,-32.96,15.73,89.21,35.0,-39.34,119.79,-24.5,-78.5,125.72,-19.52,-33.08,111.66,-7.0,-7.5,110.51,-26.0,30.0,67.55,-33.84,6.0,80.69,1.0,-1.0,1.0,-1.0,-0.6366,1.0,-1.0,-1.0,-1.0,1.0,-1.0,1.0,-1.0,1.0,0.0442,-0.9667,-1.0,-1.0,0.078,0.0,0.013,0.019,0.013,0.006,0.013,0.026,0.078,0.0,0.0,0.084,0.013,0.0,0.019,0.026,0.0,0.026,0.5967,-0.8514,0.5077,-0.2347,-1.623,0.7286,-0.1488,-0.7823,0.7624,-0.3022,-0.3114,0.3451,-0.2823,0.1917,-0.3774,-0.5507,-0.0077,0.1994,0.0503,0.0168,0.1279,-0.2415,-0.3053,-0.1238,-0.2497,-0.0719,-0.2581,0.0557,-0.2883,0.299,-0.0797,0.0005,0.0917,-0.306,-0.2596,-0.0211,1.4525,-0.2237,-0.1957,0.0046,-0.1701,1.0,-1.0,1.0,-1.0,-1.0,1.0,-1.0,-0.1302,-1.0,1.0,-1.0,1.0,-1.0,1.0,0.6089,-1.0,-1.0,-1.0,0.0,0.0,0.0,0.0,0.0,0.0,0.0,0.0,0.0,0.3333,0.0,0.3333,0.0,0
3.08,run,17.71,-1.26,-9.5,11.39,-7.59,0.0,0.05,0.0,0.689,34.1,-32.08,111.53,-16.35,-78.75,120.41,-11.43,-27.86,121.29,-14.5,-4.04,101.87,-18.81,29.79,60.56,-33.84,14.41,87.8,35.0,-40.84,121.29,-26.0,-77.0,127.22,-21.02,-34.58,110.16,-5.5,-9.0,112.01,-27.5,30.0,69.05,-32.34,4.5,79.19,1.0,-1.0,1.0,-1.0,-0.543,1.0,-1.0,-0.6365,-1.0,1.0,-1.0,1.0,-1.0,1.0,1.0,-0.7994,-1.0,-1.0,0.033,0.0,0.026,0.019,0.013,0.0,0.019,0.071,0.143,0.019,0.0,0.039,0.026,0.0,0.033,0.013,0.013,0.019,0.5983,-0.8698,0.5323,-0.2592,-1.6429,0.724,-0.1733,-0.8007,0.7409,-0.2792,-0.3329,0.3712,-0.3053,0.1856,-0.3528,-0.5737,-0.0322,0.1749,0.0409,-0.0568,0.1809,-0.2604,-0.2879,-0.1038,-0.2661,-0.1188,-0.2606,0.1246,-0.2817,0.3063,-0.1414,-0.0225,0.1555,-0.2998,-0.273,-0.1061,1.4271,-0.2185,-0.1331,0.0153,-0.1144,1.0,-1.0,1.0,-1.0,-0.6366,1.0,-1.0,-1.0,-1.0,1.0,-1.0,1.0,-1.0,1.0,0.0442,-0.9667,-1.0,-1.0,0.0,0.0,0.0,0.0,0.0,0.0,0.0,0.0,0.0,0.3333,0.0,0.3333,0.0,0
3.12,run,17.54,-0.91,-3.65,10.45,-7.08,0.0,0.05,0.0,0.689,34.37,-33.49,112.94,-17.75,-79.37,120.94,-12.74,-29.27,119.97,-13.18,-5.27,103.36,-20.04,29.71,61.96,-34.54,13.18,86.31,35.0,-42.34,122.79,-27.5,-75.5,128.72,-22.52,-36.08,108.66,-4.0,-10.5,113.51,-29.0,30.0,67.55,-30.84,3.0,77.69,1.0,-1.0,1.0,-1.0,-0.2855,1.0,-1.0,-1.0,-1.0,1.0,-1.0,1.0,-1.0,1.0,-0.0408,-0.617,-1.0,-1.0,0.033,0.0,0.026,0.019,0.013,0.0,0.019,0.071,0.143,0.019,0.0,0.039,0.026,0.0,0.033,0.013,0.013,0.019,0.5983,-0.8943,0.5553,-0.2838,-1.6582,0.7271,-0.1979,-0.8253,0.7179,-0.2577,-0.3574,0.3988,-0.3283,0.1887,-0.3313,-0.589,-0.0552,0.1503,0.0286,-0.1318,0.2129,-0.2743,-0.2591,-0.0611,-0.2783,-0.1752,-0.2687,0.1678,-0.2892,0.318,-0.1853,-0.0042,0.1894,-0.2674,-0.2774,-0.1663,1.3944,-0.1786,-0.1657,0.1987,-0.1325,1.0,-1.0,1.0,-1.0,-0.543,1.0,-1.0,-0.6365,-1.0,1.0,-1.0,1.0,-1.0,1.0,1.0,-0.7994,-1.0,-1.0,0.0,0.0,0.0,0.0,0.0,0.0,0.0,0.0,0.0,0.3333,0.0,0.3333,0.0,0
3.16,run,17.42,-0.75,-3.11,3.55,-12.03,0.0,0.05,0.0,0.689,34.37,-34.89,114.35,-19.16,-79.54,121.99,-14.24,-30.59,118.65,-11.78,-6.5,104.94,-21.36,29.71,63.28,-34.89,12.22,84.9,35.0,-43.84,124.29,-29.0,-74.0,130.22,-24.02,-37.58,107.16,-2.5,-12.0,115.01,-30.5,30.0,69.05,-29.34,1.5,76.19,1.0,-0.7968,1.0,-1.0,-0.1878,1.0,-1.0,-0.785,-1.0,1.0,-1.0,1.0,-1.0,1.0,0.7405,-0.4578,-1.0,-1.0,0.033,0.0,0.026,0.019,0.013,0.0,0.019,0.071,0.143,0.019,0.0,0.039,0.026,0.0,0.033,0.013,0.013,0.019,0.6029,-0.9189,0.5798,-0.3083,-1.669,0.7363,-0.2209,-0.8498,0.6949,-0.2347,-0.3789,0.4249,-0.3497,0.1871,-0.3068,-0.6013,-0.0767,0.1243,0.0374,-0.1848,0.2416,-0.2846,-0.2218,-0.0081,-0.2816,-0.2152,-0.2749,0.2042,-0.2834,0.3209,-0.2107,-0.0088,0.2251,-0.2335,-0.2752,-0.2148,1.3797,-0.1487,-0.0637,0.1825,-0.1236,1.0,-1.0,1.0,-1.0,-0.2855,1.0,-1.0,-1.0,-1.0,1.0,-1.0,1.0,-1.0,1.0,-0.0408,-0.617,-1.0,-1.0,0.0,0.0,0.0,0.0,0.0,0.0,0.0,0.0,0.0,0.3333,0.0,0.3333,0.0,0
3.2,run,17.14,-0.27,-6.92,13.02,-20.71,0.0,0.05,0.0,0.689,34.37,-36.3,115.75,-20.65,-79.54,123.13,-15.64,-31.99,117.25,-10.2,-7.82,106.52,-22.76,29.62,64.6,-34.89,10.46,83.5,35.0,-45.34,125.79,-30.5,-72.5,131.72,-25.52,-36.08,105.66,-1.0,-13.5,116.51,-32.0,30.0,70.55,-27.84,0.0,74.69,1.0,-0.535,1.0,-1.0,-0.6915,1.0,-1.0,0.0223,-1.0,1.0,-0.931,1.0,-1.0,1.0,0.0886,-0.4971,-1.0,-1.0,0.026,0.0,0.026,0.013,0.013,0.019,0.019,0.078,0.175,0.013,0.019,0.019,0.045,0.019,0.045,0.013,0.019,0.013,0.6029,-0.9434,0.6044,-0.3329,-1.672,0.7547,-0.247,-0.8728,0.6719,-0.2102,-0.4004,0.4525,-0.3728,0.1871,-0.2838,-0.6075,-0.0936,0.0997,0.0262,-0.2209,0.2607,-0.2907,-0.1667,0.063,-0.2944,-0.2365,-0.2782,0.2345,-0.2785,0.3276,-0.2333,-0.0061,0.2434,-0.1863,-0.2556,-0.2419,1.3689,-0.1342,-0.0543,0.0619,-0.2099,1.0,-0.7968,1.0,-1.0,-0.1878,1.0,-1.0,-0.785,-1.0,1.0,-1.0,1.0,-1.0,1.0,0.7405,-0.4578,-1.0,-1.0,0.0,0.0,0.0,0.0,0.0,0.0,0.0,0.0,0.0,0.3333,0.0,0.3333,0.0,0
3.24,run,16.94,0.04,-4.56,7.58,-20.6,0.0,0.05,0.0,0.689,34.37,-37.62,117.16,-21.97,-79.19,124.45,-17.05,-33.4,115.93,-8.96,-8.7,107.93,-24.17,29.53,65.92,-34.1,9.05,82.09,35.0,-43.84,127.29,-32.0,-71.0,133.22,-27.02,-37.58,104.16,0.5,-15.0,118.01,-33.5,30.0,69.05,-26.34,-1.5,73.19,1.0,0.6909,1.0,-1.0,0.0992,0.9753,-1.0,-0.6485,-1.0,0.5959,-0.8052,1.0,-1.0,1.0,-0.8712,-0.3333,-0.7341,-1.0,0.026,0.0,0.026,0.013,0.013,0.019,0.019,0.078,0.175,0.013,0.019,0.019,0.045,0.019,0.045,0.013,0.019,0.013,0.6029,-0.9679,0.6289,-0.359,-1.672,0.7747,-0.2715,-0.8974,0.6473,-0.1825,-0.4234,0.4801,-0.3973,0.1856,-0.2608,-0.6075,-0.1243,0.0752,0.0183,-0.2471,0.2749,-0.3018,-0.1167,0.1192,-0.2985,-0.258,-0.2872,0.2682,-0.2816,0.3334,-0.2558,-0.0101,0.2571,-0.1304,-0.2945,-0.2618,1.3449,-0.0925,-0.1207,0.2272,-0.3615,1.0,-0.535,1.0,-1.0,-0.6915,1.0,-1.0,0.0223,-1.0,1.0,-0.931,1.0,-1.0,1.0,0.0886,-0.4971,-1.0,-1.0,0.0,0.0,0.0,0.0,0.0,0.0,0.0,0.0,0.0,0.3333,0.0,0.3333,0.0,0
3.28,run,16.75,0.56,-3.56,11.45,-25.95,0.0,0.05,0.0,0.689,34.37,-39.02,118.56,-23.47,-78.13,126.04,-18.46,-34.45,114.61,-7.38,-10.37,109.42,-25.49,29.44,67.24,-33.31,7.65,80.77,35.0,-42.34,128.79,-33.5,-69.5,131.72,-28.52,-36.08,102.66,0.93,-16.5,119.51,-35.0,30.0,70.55,-24.84,0.0,71.69,1.0,0.7812,1.0,-1.0,-0.1043,-1.0,-1.0,0.9243,-1.0,0.0267,-0.4778,1.0,-1.0,1.0,0.1548,-0.4104,0.6456,-1.0,0.026,0.0,0.026,0.013,0.013,0.019,0.019,0.078,0.175,0.013,0.019,0.019,0.045,0.019,0.045,0.013,0.019,0.013,0.6029,-0.991,0.6535,-0.382,-1.6659,0.7977,-0.2961,-0.9219,0.6243,-0.1611,-0.4387,0.5047,-0.4218,0.1841,-0.2378,-0.5937,-0.1488,0.0506,0.0128,-0.2593,0.2845,-0.2976,-0.0587,0.1698,-0.3011,-0.2727,-0.2874,0.2683,-0.2547,0.3255,-0.2711,-0.0128,0.2663,-0.0395,-0.2982,-0.2753,1.3274,-0.0655,-0.0795,0.1322,-0.3595,1.0,0.6909,1.0,-1.0,0.0992,0.9753,-1.0,-0.6485,-1.0,0.5959,-0.8052,1.0,-1.0,1.0,-0.8712,-0.3333,-0.7341,-1.0,0.0,0.0,0.0,0.0,0.0,0.0,0.0,0.0,0.0,0.3333,0.0,0.3333,0.0,0
3.32,run,16.7,1.07,-1.6,13.2,-22.14,0.0,0.05,0.0,0.689,34.37,-40.43,119.97,-24.87,-77.08,127.44,-19.78,-35.42,113.29,-5.98,-11.95,110.83,-26.89,29.44,68.2,-32.17,6.24,79.28,35.0,-40.84,130.29,-35.0,-68.0,130.22,-30.02,-34.58,101.16,-0.57,-15.0,121.01,-35.0,30.0,69.05,-23.34,1.5,70.19,1.0,1.0,1.0,-1.0,0.1441,-1.0,-1.0,0.4975,-1.0,-1.0,0.281,1.0,-1.0,1.0,-1.0,1.0,1.0,-1.0,0.026,0.0,0.026,0.019,0.019,0.0,0.019,0.065,0.175,0.013,0.019,0.019,0.078,0.019,0.071,0.026,0.026,0.019,0.6029,-1.0155,0.678,-0.408,-1.6475,0.8253,-0.3206,-0.9403,0.6013,-0.1335,-0.4679,0.5308,-0.4449,0.1825,-0.2148,-0.5798,-0.1733,0.0276,0.009,-0.273,0.2907,-0.3055,0.0276,0.2218,-0.3023,-0.2595,-0.287,0.2908,-0.287,0.325,-0.2756,-0.0147,0.2722,0.0238,-0.3003,-0.2785,1.3107,-0.02,-0.0621,0.1999,-0.4529,1.0,0.7812,1.0,-1.0,-0.1043,-1.0,-1.0,0.9243,-1.0,0.0267,-0.4778,1.0,-1.0,1.0,0.1548,-0.4104,0.6456,-1.0,0.0,0.0,0.0,0.0,0.0,0.0,0.0,0.0,0.0,0.3333,0.0,0.3333,0.0,0
3.36,run,16.76,1.31,0.7,5.87,-13.14,0.0,0.05,0.0,0.689,34.37,-41.57,121.38,-26.28,-75.59,128.76,-21.27,-36.21,111.97,-4.57,-13.27,112.24,-28.21,29.36,68.91,-30.76,5.01,77.96,35.0,-39.34,131.79,-35.0,-66.5,128.72,-31.52,-33.08,99.66,-2.07,-13.5,122.51,-35.0,30.0,67.55,-21.84,3.0,68.69,1.0,1.0,1.0,-1.0,0.8784,-1.0,-1.0,0.7862,-1.0,-1.0,0.9328,1.0,-1.0,1.0,-1.0,1.0,1.0,-1.0,0.026,0.0,0.026,0.019,0.019,0.0,0.019,0.065,0.175,0.013,0.019,0.019,0.078,0.019,0.071,0.026,0.026,0.019,0.6029,-1.04,0.7026,-0.4326,-1.6291,0.8498,-0.3436,-0.9572,0.5783,-0.1089,-0.4955,0.5553,-0.4694,0.1825,-0.1979,-0.5599,-0.1979,0.0015,0.0063,-0.2832,0.2956,-0.306,0.0884,0.2474,-0.2979,-0.245,-0.2872,0.2956,-0.3045,0.3196,-0.285,-0.0103,0.2539,0.0915,-0.3023,-0.2928,1.3065,0.0246,-0.028,0.2304,-0.3865,1.0,1.0,1.0,-1.0,0.1441,-1.0,-1.0,0.4975,-1.0,-1.0,0.281,1.0,-1.0,1.0,-1.0,1.0,1.0,-1.0,0.0,0.0,0.0,0.0,0.0,0.0,0.0,0.0,0.0,0.3333,0.0,0.3333,0.0,0
3.4,run,16.76,1.37,-0.95,0.59,-4.43,0.0,0.05,0.0,0.689,34.37,-42.45,122.7,-27.69,-74.18,129.73,-22.68,-36.56,110.65,-3.25,-14.33,113.73,-29.71,29.36,69.35,-29.36,3.96,76.55,35.0,-37.84,133.29,-35.0,-65.0,127.22,-33.02,-31.58,98.16,-3.57,-12.0,124.01,-35.0,30.0,66.05,-20.34,4.5,67.19,1.0,0.6291,1.0,-1.0,0.2634,-1.0,-1.0,0.4856,-1.0,-1.0,1.0,1.0,-1.0,1.0,-1.0,1.0,1.0,-1.0,0.026,0.0,0.026,0.019,0.019,0.0,0.019,0.065,0.175,0.013,0.019,0.019,0.078,0.019,0.071,0.026,0.026,0.019,0.6029,-1.06,0.7271,-0.4571,-1.603,0.8728,-0.3697,-0.971,0.5553,-0.0844,-0.5185,0.5798,-0.4924,0.181,-0.1856,-0.5354,-0.2194,-0.0215,0.0044,-0.2733,0.2992,-0.3065,0.16,0.2597,-0.3067,-0.2234,-0.2876,0.2993,-0.2997,0.3161,-0.2861,-0.013,0.2239,0.1564,-0.2924,-0.2915,1.3115,0.0454,0.0121,0.1025,-0.2294,1.0,1.0,1.0,-1.0,0.8784,-1.0,-1.0,0.7862,-1.0,-1.0,0.9328,1.0,-1.0,1.0,-1.0,1.0,1.0,-1.0,0.0,0.0,0.0,0.0,0.0,0.0,0.0,0.0,0.0,0.3333,0.0,0.3333,0.0,0
3.44,run,16.92,1.46,4.28,1.11,0.14,0.0,0.05,0.0,0.689,34.45,-42.89,124.1,-29.09,-72.77,130.43,-24.08,-36.83,109.16,-2.11,-15.12,115.14,-31.03,29.36,69.61,-27.95,3.16,75.23,35.0,-36.34,134.79,-35.0,-63.5,125.72,-34.52,-30.08,96.66,-5.07,-10.5,125.51,-35.0,30.0,64.55,-18.84,6.0,65.69,1.0,0.3654,1.0,-1.0,0.1809,-1.0,-1.0,0.718,-0.2929,-1.0,1.0,1.0,-1.0,1.0,-1.0,1.0,1.0,-1.0,0.019,0.0,0.045,0.019,0.006,0.0,0.013,0.006,0.189,0.006,0.006,0.013,0.052,0.026,0.013,0.013,0.026,0.033,0.6029,-1.0753,0.7501,-0.4817,-1.5785,0.8897,-0.3942,-0.9771,0.5323,-0.0614,-0.5369,0.6059,-0.5185,0.181,-0.1779,-0.5108,-0.2378,-0.046,0.0031,-0.2484,0.2951,-0.3059,0.2033,0.2446,-0.306,-0.1792,-0.287,0.2952,-0.2783,0.3183,-0.2973,-0.0091,0.1853,0.2008,-0.2732,-0.2954,1.3113,0.0502,-0.0166,0.0103,-0.0774,1.0,0.6291,1.0,-1.0,0.2634,-1.0,-1.0,0.4856,-1.0,-1.0,1.0,1.0,-1.0,1.0,-1.0,1.0,1.0,-1.0,0.0,0.0,0.0,0.0,0.0,0.0,0.0,0.0,0.0,0.3333,0.0,0.3333,0.0,0
3.48,run,17.08,1.33,4.7,-4.36,1.7,0.0,0.05,0.0,0.689,34.45,-42.98,125.33,-30.5,-71.37,130.78,-25.58,-36.83,107.84,-1.41,-15.56,116.54,-32.26,29.36,69.61,-26.54,2.72,73.83,35.0,-34.84,136.29,-35.0,-62.0,124.22,-35.0,-28.58,95.16,-6.57,-9.0,127.01,-35.0,30.0,63.05,-17.34,7.5,64.19,1.0,0.1161,1.0,-1.0,-0.1304,-1.0,-1.0,0.0361,0.048,-1.0,1.0,1.0,-1.0,1.0,-1.0,1.0,1.0,-1.0,0.019,0.0,0.045,0.019,0.006,0.0,0.013,0.006,0.189,0.006,0.006,0.013,0.052,0.026,0.013,0.013,0.026,0.033,0.6044,-1.083,0.7747,-0.5062,-1.5539,0.902,-0.4188,-0.9817,0.5062,-0.0414,-0.5507,0.6305,-0.5415,0.181,-0.1733,-0.4863,-0.2516,-0.069,0.0079,-0.2027,0.2989,-0.3065,0.2347,0.2174,-0.3066,-0.1428,-0.299,0.2816,-0.2468,0.3152,-0.2947,-0.0064,0.147,0.2329,-0.2432,-0.2934,1.3253,0.0583,0.0748,0.0194,0.0024,1.0,0.3654,1.0,-1.0,0.1809,-1.0,-1.0,0.718,-0.2929,-1.0,1.0,1.0,-1.0,1.0,-1.0,1.0,1.0,-1.0,0.0,0.0,0.0,0.0,0.0,0.0,0.0,0.0,0.0,0.3333,0.0,0.3333,0.0,0
3.52,run,17.17,1.33,3.42,-1.97,4.01,0.0,0.05,0.0,0.689,34.54,-43.07,126.56,-31.9,-70.05,130.78,-26.98,-36.12,106.52,-0.88,-15.73,117.95,-33.22,29.36,68.91,-25.22,2.55,72.51,35.0,-36.34,137.79,-35.0,-60.5,122.72,-35.0,-27.08,96.66,-8.07,-7.5,125.51,-35.0,30.0,61.55,-15.84,9.0,62.69,1.0,-0.3667,1.0,-1.0,0.0589,-1.0,-1.0,0.4573,0.6608,-1.0,1.0,0.3192,-1.0,1.0,-1.0,1.0,1.0,-1.0,0.019,0.0,0.045,0.019,0.006,0.0,0.013,0.006,0.189,0.006,0.006,0.013,0.052,0.026,0.013,0.013,0.026,0.033,0.6044,-1.0845,0.7961,-0.5308,-1.5294,0.9081,-0.4449,-0.9817,0.4832,-0.0291,-0.5584,0.655,-0.563,0.181,-0.1733,-0.4617,-0.2592,-0.0936,0.0055,-0.1477,0.2896,-0.3064,0.2562,0.1752,-0.3122,-0.0999,-0.2954,0.2431,-0.2015,0.3125,-0.2867,-0.0044,0.1029,0.2549,-0.1989,-0.2972,1.3396,0.0474,0.0819,-0.0761,0.0298,1.0,0.1161,1.0,-1.0,-0.1304,-1.0,-1.0,0.0361,0.048,-1.0,1.0,1.0,-1.0,1.0,-1.0,1.0,1.0,-1.0,0.0,0.0,0.0,0.0,0.0,0.0,0.0,0.0,0.0,0.3333,0.0,0.3333,0.0,0
3.56,run,17.1,1.37,0.35,-0.63,5.43,0.0,0.05,0.0,0.689,34.63,-43.07,127.71,-33.05,-68.47,130.43,-28.39,-35.16,105.12,-0.88,-15.73,119.36,-33.84,29.36,68.2,-23.99,2.55,71.19,35.0,-37.84,139.29,-35.0,-59.0,121.22,-35.0,-28.58,98.16,-9.57,-6.0,124.01,-35.0,30.0,60.05,-14.34,10.5,61.19,1.0,-0.273,1.0,-1.0,-0.1044,-0.8738,-1.0,-0.4109,0.9535,-1.0,1.0,0.1995,-1.0,1.0,-1.0,1.0,1.0,-1.0,0.006,0.13,0.111,0.006,0.0,0.013,0.013,0.013,0.234,0.006,0.013,0.006,0.058,0.026,0.006,0.039,0.0,0.033,0.6059,-1.0861,0.8176,-0.5553,-1.5064,0.9081,-0.4694,-0.9695,0.4602,-0.0199,-0.5614,0.6796,-0.5798,0.181,-0.1856,-0.4387,-0.2623,-0.1166,0.0096,-0.1091,0.2834,-0.3067,0.2658,0.1226,-0.3108,-0.0239,-0.2933,0.2047,-0.1525,0.311,-0.2641,-0.0031,0.0259,0.2649,-0.1508,-0.2945,1.3472,0.0475,0.0597,-0.0344,0.07,1.0,-0.3667,1.0,-1.0,0.0589,-1.0,-1.0,0.4573,0.6608,-1.0,1.0,0.3192,-1.0,1.0,-1.0,1.0,1.0,-1.0,0.0,0.0,0.0,0.0,0.0,0.0,0.0,0.0,0.0,0.3333,0.0,0.3333,0.0,0
3.6,run,16.64,1.4,-10.18,-1.93,8.73,0.0,0.05,0.0,0.689,34.8,-42.54,128.85,-33.84,-67.15,129.55,-29.79,-33.75,103.89,-0.97,-15.38,120.67,-34.19,29.36,66.8,-22.5,2.81,69.7,35.0,-38.32,140.79,-35.0,-57.5,119.72,-35.0,-30.08,99.66,-11.07,-4.5,122.51,-35.0,30.0,58.55,-12.84,12.0,59.69,1.0,-0.2422,1.0,-1.0,0.0942,-0.4563,-1.0,-0.3434,1.0,-1.0,1.0,-0.7559,-1.0,1.0,-1.0,1.0,1.0,-1.0,0.006,0.13,0.111,0.006,0.0,0.013,0.013,0.013,0.234,0.006,0.013,0.006,0.058,0.026,0.006,0.039,0.0,0.033,0.6075,-1.0861,0.8376,-0.5752,-1.4788,0.902,-0.4939,-0.9526,0.4357,-0.0199,-0.5614,0.7041,-0.5906,0.181,-0.1979,-0.4172,-0.2623,-0.1396,0.0125,-0.0764,0.2732,-0.2895,0.2896,0.0628,-0.3096,0.0466,-0.2973,0.1433,-0.1068,0.3097,-0.2251,-0.0022,-0.0279,0.266,-0.1056,-0.2925,1.341,0.0501,0.0061,-0.011,0.0948,1.0,-0.273,1.0,-1.0,-0.1044,-0.8738,-1.0,-0.4109,0.9535,-1.0,1.0,0.1995,-1.0,1.0,-1.0,1.0,1.0,-1.0,0.0,0.0,0.0,0.0,0.0,0.0,0.0,0.0,0.0,0.3333,0.0,0.3333,0.0,0
3.64,run,15.93,1.56,-17.44,2.11,9.92,0.0,0.05,0.0,0.689,34.8,-41.66,129.9,-34.45,-65.83,128.5,-31.11,-32.43,102.74,-1.93,-14.33,121.9,-34.28,29.36,65.3,-21.18,3.52,68.29,35.0,-39.82,142.29,-35.0,-56.0,118.22,-35.0,-31.58,101.16,-12.57,-3.0,121.01,-35.0,30.0,57.05,-11.34,13.5,58.19,1.0,-0.466,1.0,-1.0,0.6803,-0.0571,-1.0,-0.7221,1.0,-1.0,1.0,-1.0,-1.0,1.0,-1.0,1.0,1.0,-1.0,0.006,0.13,0.111,0.006,0.0,0.013,0.013,0.013,0.234,0.006,0.013,0.006,0.058,0.026,0.006,0.039,0.0,0.033,0.6105,-1.0769,0.8575,-0.589,-1.4557,0.8866,-0.5185,-0.9281,0.4142,-0.0215,-0.5553,0.7271,-0.5967,0.181,-0.2224,-0.3912,-0.2577,-0.1657,0.0203,-0.0188,0.2665,-0.2547,0.2895,-0.0139,-0.3093,0.1252,-0.2891,0.0945,-0.0516,0.3036,-0.1807,-0.0015,-0.1121,0.2845,-0.0565,-0.3031,1.3012,0.0529,-0.1777,-0.0338,0.1523,1.0,-0.2422,1.0,-1.0,0.0942,-0.4563,-1.0,-0.3434,1.0,-1.0,1.0,-0.7559,-1.0,1.0,-1.0,1.0,1.0,-1.0,0.0,0.0,0.0,0.0,0.0,0.0,0.0,0.0,0.0,0.3333,0.0,0.3333,0.0,0
3.68,run,15.86,1.71,-2.85,2.75,9.44,0.0,0.05,0.0,0.689,34.8,-40.96,130.87,-34.72,-64.25,127.09,-32.34,-31.29,101.87,-2.81,-13.1,122.87,-34.28,29.36,63.9,-19.78,4.66,66.88,35.0,-41.32,143.79,-35.0,-54.5,116.72,-33.5,-33.08,102.66,-14.07,-1.5,119.51,-35.0,28.5,55.55,-9.84,15.0,56.69,1.0,-0.4137,1.0,-1.0,1.0,-0.1407,-0.3863,-1.0,1.0,-1.0,1.0,-1.0,-1.0,0.8604,-1.0,1.0,1.0,-1.0,0.0,0.143,0.292,0.006,0.006,0.013,0.006,0.0,0.195,0.026,0.026,0.0,0.039,0.006,0.0,0.045,0.0,0.033,0.6105,-1.0615,0.8759,-0.5998,-1.4327,0.8682,-0.5415,-0.905,0.3942,-0.0383,-0.5369,0.7486,-0.5983,0.181,-0.2485,-0.3682,-0.2454,-0.1902,0.0142,0.0441,0.2552,-0.2183,0.2884,-0.0784,-0.3023,0.1734,-0.2767,0.0033,0.0325,0.2926,-0.1322,-0.0011,-0.1757,0.285,0.0062,-0.3037,1.2389,0.0676,-0.3044,0.0368,0.1731,1.0,-0.466,1.0,-1.0,0.6803,-0.0571,-1.0,-0.7221,1.0,-1.0,1.0,-1.0,-1.0,1.0,-1.0,1.0,1.0,-1.0,0.0,0.0,0.0,0.0,0.0,0.0,0.0,0.0,0.0,0.3333,0.0,0.3333,0.0,0
3.72,run,15.88,1.73,-1.29,-0.24,6.54,0.0,0.05,0.0,0.689,34.8,-40.43,131.84,-34.72,-62.58,125.42,-33.57,-30.5,101.25,-4.22,-11.6,123.49,-34.28,29.27,62.23,-18.11,6.33,65.21,35.0,-42.82,145.29,-35.0,-53.0,115.22,-32.0,-34.58,104.16,-15.57,0.0,118.01,-35.0,30.0,54.05,-8.34,16.5,55.19,1.0,-1.0,1.0,-1.0,1.0,-1.0,0.2591,-1.0,1.0,-1.0,1.0,-1.0,-1.0,1.0,-1.0,1.0,1.0,-1.0,0.0,0.143,0.292,0.006,0.006,0.013,0.006,0.0,0.195,0.026,0.026,0.0,0.039,0.006,0.0,0.045,0.0,0.033,0.6105,-1.0492,0.8928,-0.6044,-1.4051,0.8437,-0.563,-0.8851,0.3789,-0.0537,-0.5154,0.7655,-0.5983,0.181,-0.273,-0.3436,-0.2255,-0.2148,0.01,0.0769,0.2419,-0.1701,0.3055,-0.1469,-0.2922,0.1962,-0.2513,-0.0553,0.1033,0.2681,-0.0926,-0.0007,-0.215,0.2915,0.0791,-0.3046,1.2324,0.0805,-0.0498,0.048,0.1647,1.0,-0.4137,1.0,-1.0,1.0,-0.1407,-0.3863,-1.0,1.0,-1.0,1.0,-1.0,-1.0,0.8604,-1.0,1.0,1.0,-1.0,0.0,0.0,0.0,0.0,0.0,0.0,0.0,0.0,0.0,0.3333,0.0,0.3333,0.0,0
3.76,run,15.99,1.9,-0.37,5.06,8.44,0.0,0.05,0.0,0.689,34.8,-40.17,132.45,-34.72,-61.17,124.01,-34.19,-30.15,101.07,-5.54,-10.46,123.66,-34.28,28.48,60.82,-16.7,7.65,63.72,35.0,-44.32,146.79,-33.5,-51.5,113.72,-30.5,-36.08,105.66,-17.07,1.5,116.51,-35.0,30.0,52.55,-6.84,18.0,53.69,1.0,-1.0,1.0,-0.7332,1.0,-0.4769,0.5943,-1.0,1.0,-1.0,1.0,-1.0,-1.0,1.0,-1.0,1.0,1.0,-1.0,0.0,0.143,0.292,0.006,0.006,0.013,0.006,0.0,0.195,0.026,0.026,0.0,0.039,0.006,0.0,0.045,0.0,0.033,0.6105,-1.04,0.9097,-0.6044,-1.376,0.8145,-0.5844,-0.8713,0.3682,-0.0782,-0.4893,0.7762,-0.5983,0.1795,-0.3022,-0.3145,-0.1963,-0.2439,0.007,0.0827,0.2223,-0.1191,0.3054,-0.1944,-0.272,0.1807,-0.2096,-0.1158,0.1542,0.2214,-0.0648,-0.0053,-0.2421,0.2956,0.147,-0.3048,1.2349,0.0819,-0.0225,-0.0042,0.1142,1.0,-1.0,1.0,-1.0,1.0,-1.0,0.2591,-1.0,1.0,-1.0,1.0,-1.0,-1.0,1.0,-1.0,1.0,1.0,-1.0,0.0,0.0,0.0,0.0,0.0,0.0,0.0,0.0,0.0,0.3333,0.0,0.3333,0.0,0
3.8,run,16.17,2.14,3.35,6.48,9.54,0.0,0.05,0.0,1.085,34.8,-40.17,132.89,-34.72,-59.68,122.52,-34.54,-30.15,101.07,-6.77,-9.32,123.49,-34.28,28.39,59.41,-15.29,9.05,62.31,35.0,-45.82,148.29,-32.0,-50.0,112.22,-29.0,-37.58,107.16,-18.57,3.0,115.01,-35.0,30.0,51.05,-8.34,19.5,52.19,1.0,-0.9347,1.0,0.832,1.0,-0.4398,1.0,-1.0,1.0,-1.0,1.0,-1.0,-1.0,1.0,-1.0,-0.8719,1.0,-1.0,0.0,0.026,1.085,0.013,0.013,0.013,0.0,0.019,0.058,0.052,0.071,0.006,0.039,0.013,0.0,0.045,0.013,0.026,0.6105,-1.0354,0.9204,-0.6044,-1.3514,0.79,-0.5952,-0.8652,0.3651,-0.1012,-0.4694,0.7793,-0.5983,0.1657,-0.3267,-0.2899,-0.1733,-0.27,0.0049,0.0749,0.1953,-0.0833,0.3045,-0.2268,-0.2301,0.1492,-0.1581,-0.1661,0.1817,0.1663,-0.0454,-0.0548,-0.2602,0.2977,0.1879,-0.3098,1.2444,0.0968,-0.0065,0.0883,0.1473,1.0,-1.0,1.0,-0.7332,1.0,-0.4769,0.5943,-1.0,1.0,-1.0,1.0,-1.0,-1.0,1.0,-1.0,1.0,1.0,-1.0,0.0,0.0,0.0,0.0,0.0,0.0,0.0,0.0,0.0,0.3333,0.0,0.3333,0.0,0
3.84,run,16.49,2.45,7.48,8.55,9.83,0.0,0.05,0.0,1.085,34.8,-40.17,133.33,-34.63,-58.36,121.11,-34.54,-30.15,100.99,-8.09,-7.91,123.05,-34.54,28.56,58.1,-13.8,10.37,60.82,33.5,-47.32,146.79,-30.5,-48.5,110.72,-27.5,-39.08,108.66,-20.07,4.5,113.51,-35.0,28.5,49.55,-9.84,21.0,50.69,-0.5023,-1.0,-0.3302,1.0,1.0,0.3653,1.0,-1.0,1.0,-1.0,1.0,-1.0,-1.0,0.2378,-1.0,-1.0,1.0,-0.6872,0.0,0.026,1.085,0.013,0.013,0.013,0.0,0.019,0.058,0.052,0.071,0.006,0.039,0.013,0.0,0.045,0.013,0.026,0.6105,-1.0354,0.9281,-0.6044,-1.3254,0.7639,-0.6013,-0.8652,0.3651,-0.1227,-0.4495,0.7762,-0.5983,0.1641,-0.3513,-0.2654,-0.1488,-0.2945,0.0034,0.0524,0.1655,-0.0583,0.3109,-0.2565,-0.184,0.1044,-0.1107,-0.1968,0.2019,0.1049,-0.0317,-0.0441,-0.2741,0.3003,0.2235,-0.3088,1.2601,0.1177,0.0585,0.1131,0.1666,1.0,-0.9347,1.0,0.832,1.0,-0.4398,1.0,-1.0,1.0,-1.0,1.0,-1.0,-1.0,1.0,-1.0,-0.8719,1.0,-1.0,0.0,0.0,0.0,0.0,0.0,0.0,0.0,0.0,0.0,0.3333,0.0,0.3333,0.0,0
3.88,run,16.7,3.13,4.23,18.58,10.2,0.0,0.05,0.0,1.085,34.72,-40.87,133.68,-33.75,-57.13,119.62,-34.45,-30.94,101.16,-9.49,-6.59,122.17,-34.8,29.18,57.04,-12.39,11.16,59.41,32.0,-48.82,145.29,-29.0,-47.0,109.22,-26.0,-40.58,110.16,-21.57,6.0,112.01,-35.0,27.0,48.05,-11.34,22.5,52.19,-1.0,-0.779,-1.0,1.0,0.0063,-0.5738,1.0,-1.0,1.0,-1.0,1.0,-1.0,-1.0,-1.0,-1.0,-1.0,1.0,0.2491,0.0,0.026,1.085,0.013,0.013,0.013,0.0,0.019,0.058,0.052,0.071,0.006,0.039,0.013,0.0,0.045,0.013,0.026,0.6105,-1.0354,0.9357,-0.6029,-1.3023,0.7394,-0.6013,-0.8652,0.3636,-0.1457,-0.4249,0.7685,-0.6029,0.1672,-0.3743,-0.2393,-0.1258,-0.3206,0.0024,0.0367,0.1446,-0.0351,0.3039,-0.2716,-0.1288,0.0731,-0.0832,-0.2241,0.2334,0.0447,-0.0395,-0.0194,-0.2782,0.3081,0.2428,-0.314,1.2881,0.1451,0.1306,0.1493,0.1715,-0.5023,-1.0,-0.3302,1.0,1.0,0.3653,1.0,-1.0,1.0,-1.0,1.0,-1.0,-1.0,0.2378,-1.0,-1.0,1.0,-0.6872,0.0,0.0,0.0,0.0,0.0,0.0,0.0,0.0,0.0,0.3333,0.0,0.3333,0.0,0
3.92,run,16.93,3.64,5.47,14.13,7.81,0.0,0.05,0.0,2.652,34.19,-41.92,133.68,-32.7,-56.07,118.21,-33.84,-31.99,102.22,-10.81,-5.19,121.2,-34.8,29.53,55.28,-11.25,12.92,57.92,30.5,-47.32,143.79,-27.5,-45.5,110.72,-24.5,-42.08,111.66,-23.07,7.5,110.51,-35.0,25.5,49.55,-12.84,24.0,53.69,-1.0,-0.3893,-1.0,1.0,-0.2277,0.6872,1.0,-1.0,1.0,-1.0,0.7716,-1.0,-1.0,-1.0,-0.0297,-1.0,1.0,1.0,0.006,0.0,2.652,0.019,0.013,0.013,0.013,0.078,0.0,0.071,0.078,0.065,0.006,0.013,0.0,0.026,0.019,0.019,0.609,-1.0477,0.9419,-0.5875,-1.2809,0.7133,-0.5998,-0.879,0.3666,-0.1703,-0.4019,0.7532,-0.6075,0.1779,-0.3927,-0.2148,-0.112,-0.3451,-0.0041,-0.0203,0.1242,0.033,0.2933,-0.288,-0.0844,-0.0006,-0.0467,-0.2489,0.2497,-0.0263,-0.0449,0.0267,-0.2638,0.3077,0.2217,-0.3119,1.3065,0.2046,0.0738,0.3244,0.178,-1.0,-0.779,-1.0,1.0,0.0063,-0.5738,1.0,-1.0,1.0,-1.0,1.0,-1.0,-1.0,-1.0,-1.0,-1.0,1.0,0.2491,0.0,0.0,0.0,0.0,0.0,0.0,0.0,0.0,0.0,0.3333,0.0,0.3333,0.0,0
4.06,tail,16.24,7.15,-4.69,26.06,-5.55,,0.0,0.0,2.652,32.87,-50.54,123.93,-30.76,-54.05,114.08,-31.99,-33.66,108.02,-11.69,-4.66,121.2,-34.89,28.83,52.21,-11.16,14.5,56.16,,,,,,,,,,,,,,,,,,,,,,,,,,,,,,,,,,,,,0.0,0.0,0.0,0.0,0.0,0.0,0.0,0.0,0.0,0.0,0.0,0.0,0.0,0.0,0.0,0.0,0.0,0.0,,,,,,,,,,,,,,,,,,,,,,,,,,,,,,,,,,,,,,,,,,,,,,,,,,,,,,,,,,,,,,,,,,,,,,,,,
4.16,tail,12.27,13.62,-33.33,53.23,-6.24,,0.0,0.0,2.652,32.43,-62.49,114.7,-30.41,-54.14,111.97,-32.08,-33.75,113.73,-9.32,-7.29,125.24,-34.89,28.3,51.42,-14.94,14.41,55.2,,,,,,,,,,,,,,,,,,,,,,,,,,,,,,,,,,,,,0.0,0.0,0.0,0.0,0.0,0.0,0.0,0.0,0.0,0.0,0.0,0.0,0.0,0.0,0.0,0.0,0.0,0.0,,,,,,,,,,,,,,,,,,,,,,,,,,,,,,,,,,,,,,,,,,,,,,,,,,,,,,,,,,,,,,,,,,,,,,,,,
4.26,tail,11.8,13.61,-3.95,0.26,1.84,,0.0,0.0,2.652,32.52,-66.53,112.41,-30.41,-54.05,110.74,-31.99,-33.75,113.91,-7.12,-7.47,125.77,-34.98,25.05,51.42,-19.16,12.3,55.11,,,,,,,,,,,,,,,,,,,,,,,,,,,,,,,,,,,,,0.0,0.0,0.0,0.0,0.0,0.0,0.0,0.0,0.0,0.0,0.0,0.0,0.0,0.0,0.0,0.0,0.0,0.0,,,,,,,,,,,,,,,,,,,,,,,,,,,,,,,,,,,,,,,,,,,,,,,,,,,,,,,,,,,,,,,,,,,,,,,,,
4.36,tail,11.36,13.64,-3.85,0.24,-0.19,,0.0,0.0,2.652,32.52,-66.53,112.41,-30.41,-53.96,110.57,-31.99,-33.75,114.08,-6.94,-7.56,125.95,-34.98,23.03,51.42,-20.21,8.0,55.2,,,,,,,,,,,,,,,,,,,,,,,,,,,,,,,,,,,,,0.0,0.0,0.0,0.0,0.0,0.0,0.0,0.0,0.0,0.0,0.0,0.0,0.0,0.0,0.0,0.0,0.0,0.0,,,,,,,,,,,,,,,,,,,,,,,,,,,,,,,,,,,,,,,,,,,,,,,,,,,,,,,,,,,,,,,,,,,,,,,,,
4.46,tail,11.35,13.63,-0.26,0.0,0.47,,0.0,0.0,2.652,32.52,-66.53,112.41,-30.41,-53.96,110.57,-31.99,-33.75,114.17,-6.94,-7.73,125.95,-34.98,23.03,51.42,-20.21,7.12,55.2,,,,,,,,,,,,,,,,,,,,,,,,,,,,,,,,,,,,,0.0,0.0,0.0,0.0,0.0,0.0,0.0,0.0,0.0,0.0,0.0,0.0,0.0,0.0,0.0,0.0,0.0,0.0,,,,,,,,,,,,,,,,,,,,,,,,,,,,,,,,,,,,,,,,,,,,,,,,,,,,,,,,,,,,,,,,,,,,,,,,,
4.56,tail,11.37,13.62,-0.11,0.0,0.29,,0.0,0.0,2.652,32.52,-66.53,112.41,-30.41,-53.96,110.57,-31.99,-33.75,114.35,-6.94,-7.73,125.95,-34.98,23.03,51.42,-20.21,7.12,55.2,,,,,,,,,,,,,,,,,,,,,,,,,,,,,,,,,,,,,0.0,0.0,0.0,0.0,0.0,0.0,0.0,0.0,0.0,0.0,0.0,0.0,0.0,0.0,0.0,0.0,0.0,0.0,,,,,,,,,,,,,,,,,,,,,,,,,,,,,,,,,,,,,,,,,,,,,,,,,,,,,,,,,,,,,,,,,,,,,,,,,
4.66,tail,11.37,13.61,-0.18,0.03,0.35,,0.0,0.0,2.652,32.52,-66.53,112.41,-30.41,-53.96,110.57,-31.99,-33.75,114.43,-6.94,-7.73,125.95,-34.98,23.03,51.42,-20.21,7.12,55.2,,,,,,,,,,,,,,,,,,,,,,,,,,,,,,,,,,,,,0.0,0.0,0.0,0.0,0.0,0.0,0.0,0.0,0.0,0.0,0.0,0.0,0.0,0.0,0.0,0.0,0.0,0.0,,,,,,,,,,,,,,,,,,,,,,,,,,,,,,,,,,,,,,,,,,,,,,,,,,,,,,,,,,,,,,,,,,,,,,,,,
4.76,tail,11.38,13.62,-0.17,0.08,0.31,,0.0,0.0,2.652,32.52,-66.53,112.41,-30.41,-53.96,110.57,-31.99,-33.75,114.52,-6.94,-7.73,125.95,-34.98,23.03,51.42,-20.21,7.12,55.2,,,,,,,,,,,,,,,,,,,,,,,,,,,,,,,,,,,,,0.0,0.0,0.0,0.0,0.0,0.0,0.0,0.0,0.0,0.0,0.0,0.0,0.0,0.0,0.0,0.0,0.0,0.0,,,,,,,,,,,,,,,,,,,,,,,,,,,,,,,,,,,,,,,,,,,,,,,,,,,,,,,,,,,,,,,,,,,,,,,,,
4.86,tail,11.39,13.61,-0.11,0.05,0.32,,0.0,0.0,2.652,32.52,-66.53,112.41,-30.41,-53.96,110.57,-31.99,-33.75,114.52,-6.94,-7.73,125.95,-34.98,23.03,51.42,-20.21,7.12,55.2,,,,,,,,,,,,,,,,,,,,,,,,,,,,,,,,,,,,,0.0,0.0,0.0,0.0,0.0,0.0,0.0,0.0,0.0,0.0,0.0,0.0,0.0,0.0,0.0,0.0,0.0,0.0,,,,,,,,,,,,,,,,,,,,,,,,,,,,,,,,,,,,,,,,,,,,,,,,,,,,,,,,,,,,,,,,,,,,,,,,,
4.96,tail,11.4,13.61,-0.12,0.03,0.29,,0.0,0.0,2.652,32.52,-66.53,112.41,-30.41,-53.96,110.57,-31.99,-33.75,114.52,-6.94,-7.73,125.95,-34.98,23.03,51.42,-20.21,7.12,55.2,,,,,,,,,,,,,,,,,,,,,,,,,,,,,,,,,,,,,0.0,0.0,0.0,0.0,0.0,0.0,0.0,0.0,0.0,0.0,0.0,0.0,0.0,0.0,0.0,0.0,0.0,0.0,,,,,,,,,,,,,,,,,,,,,,,,,,,,,,,,,,,,,,,,,,,,,,,,,,,,,,,,,,,,,,,,,,,,,,,,,
5.06,tail,11.4,13.6,-0.16,-0.06,0.37,,0.0,0.0,2.652,32.52,-66.53,112.41,-30.41,-53.96,110.57,-31.99,-33.75,114.61,-6.94,-7.73,125.95,-34.98,23.03,51.42,-20.21,7.12,55.2,,,,,,,,,,,,,,,,,,,,,,,,,,,,,,,,,,,,,0.0,0.0,0.0,0.0,0.0,0.0,0.0,0.0,0.0,0.0,0.0,0.0,0.0,0.0,0.0,0.0,0.0,0.0,,,,,,,,,,,,,,,,,,,,,,,,,,,,,,,,,,,,,,,,,,,,,,,,,,,,,,,,,,,,,,,,,,,,,,,,,
5.16,tail,11.4,13.59,-0.13,-0.0,0.26,,0.0,0.0,2.652,32.52,-66.53,112.41,-30.41,-53.96,110.57,-31.99,-33.75,114.61,-6.94,-7.73,125.95,-34.98,23.03,51.42,-20.21,7.12,55.2,,,,,,,,,,,,,,,,,,,,,,,,,,,,,,,,,,,,,0.0,0.0,0.0,0.0,0.0,0.0,0.0,0.0,0.0,0.0,0.0,0.0,0.0,0.0,0.0,0.0,0.0,0.0,,,,,,,,,,,,,,,,,,,,,,,,,,,,,,,,,,,,,,,,,,,,,,,,,,,,,,,,,,,,,,,,,,,,,,,,,
5.26,tail,11.41,13.57,-0.13,-0.06,0.31,,0.0,0.0,2.652,32.52,-66.53,112.41,-30.41,-53.96,110.57,-31.99,-33.75,114.61,-6.94,-7.73,125.95,-34.98,23.03,51.42,-20.21,7.12,55.2,,,,,,,,,,,,,,,,,,,,,,,,,,,,,,,,,,,,,0.0,0.0,0.0,0.0,0.0,0.0,0.0,0.0,0.0,0.0,0.0,0.0,0.0,0.0,0.0,0.0,0.0,0.0,,,,,,,,,,,,,,,,,,,,,,,,,,,,,,,,,,,,,,,,,,,,,,,,,,,,,,,,,,,,,,,,,,,,,,,,,
5.36,tail,11.42,13.57,-0.14,0.03,0.32,,0.0,0.0,2.652,32.52,-66.53,112.41,-30.41,-53.96,110.57,-31.99,-33.75,114.61,-6.94,-7.73,125.95,-34.98,23.03,51.42,-20.21,7.12,55.2,,,,,,,,,,,,,,,,,,,,,,,,,,,,,,,,,,,,,0.0,0.0,0.0,0.0,0.0,0.0,0.0,0.0,0.0,0.0,0.0,0.0,0.0,0.0,0.0,0.0,0.0,0.0,,,,,,,,,,,,,,,,,,,,,,,,,,,,,,,,,,,,,,,,,,,,,,,,,,,,,,,,,,,,,,,,,,,,,,,,,
5.46,tail,11.43,13.56,-0.14,-0.0,0.29,,0.0,0.0,2.652,32.52,-66.53,112.41,-30.41,-53.96,110.57,-31.99,-33.75,114.61,-6.94,-7.73,125.95,-34.98,23.03,51.42,-20.21,7.12,55.2,,,,,,,,,,,,,,,,,,,,,,,,,,,,,,,,,,,,,0.0,0.0,0.0,0.0,0.0,0.0,0.0,0.0,0.0,0.0,0.0,0.0,0.0,0.0,0.0,0.0,0.0,0.0,,,,,,,,,,,,,,,,,,,,,,,,,,,,,,,,,,,,,,,,,,,,,,,,,,,,,,,,,,,,,,,,,,,,,,,,,
5.56,tail,11.44,13.55,-0.13,-0.01,0.29,,0.0,0.0,2.652,32.52,-66.53,112.41,-30.41,-53.96,110.57,-31.99,-33.75,114.61,-6.94,-7.73,125.95,-34.98,23.03,51.42,-20.21,7.12,55.2,,,,,,,,,,,,,,,,,,,,,,,,,,,,,,,,,,,,,0.0,0.0,0.0,0.0,0.0,0.0,0.0,0.0,0.0,0.0,0.0,0.0,0.0,0.0,0.0,0.0,0.0,0.0,,,,,,,,,,,,,,,,,,,,,,,,,,,,,,,,,,,,,,,,,,,,,,,,,,,,,,,,,,,,,,,,,,,,,,,,,
5.66,tail,11.45,13.55,-0.12,0.0,0.32,,0.0,0.0,2.652,32.52,-66.53,112.41,-30.41,-53.96,110.57,-31.99,-33.75,114.61,-6.94,-7.73,125.95,-34.98,23.03,51.42,-20.21,7.12,55.2,,,,,,,,,,,,,,,,,,,,,,,,,,,,,,,,,,,,,0.0,0.0,0.0,0.0,0.0,0.0,0.0,0.0,0.0,0.0,0.0,0.0,0.0,0.0,0.0,0.0,0.0,0.0,,,,,,,,,,,,,,,,,,,,,,,,,,,,,,,,,,,,,,,,,,,,,,,,,,,,,,,,,,,,,,,,,,,,,,,,,
5.76,tail,11.46,13.55,-0.09,0.05,0.32,,0.0,0.0,2.652,32.52,-66.53,112.41,-30.41,-53.96,110.57,-31.99,-33.75,114.61,-6.94,-7.73,125.95,-34.98,23.03,51.42,-20.21,7.12,55.2,,,,,,,,,,,,,,,,,,,,,,,,,,,,,,,,,,,,,0.0,0.0,0.0,0.0,0.0,0.0,0.0,0.0,0.0,0.0,0.0,0.0,0.0,0.0,0.0,0.0,0.0,0.0,,,,,,,,,,,,,,,,,,,,,,,,,,,,,,,,,,,,,,,,,,,,,,,,,,,,,,,,,,,,,,,,,,,,,,,,,
5.86,tail,11.47,13.54,-0.11,-0.0,0.32,,0.0,0.0,2.652,32.52,-66.53,112.41,-30.41,-53.96,110.57,-31.99,-33.75,114.61,-6.94,-7.73,125.95,-34.98,23.03,51.42,-20.21,7.12,55.2,,,,,,,,,,,,,,,,,,,,,,,,,,,,,,,,,,,,,0.0,0.0,0.0,0.0,0.0,0.0,0.0,0.0,0.0,0.0,0.0,0.0,0.0,0.0,0.0,0.0,0.0,0.0,,,,,,,,,,,,,,,,,,,,,,,,,,,,,,,,,,,,,,,,,,,,,,,,,,,,,,,,,,,,,,,,,,,,,,,,,
5.96,tail,11.48,13.53,-0.12,-0.0,0.32,,0.0,0.0,2.652,32.52,-66.53,112.41,-30.41,-53.96,110.57,-31.99,-33.75,114.61,-6.94,-7.73,125.95,-34.98,23.03,51.42,-20.21,7.12,55.2,,,,,,,,,,,,,,,,,,,,,,,,,,,,,,,,,,,,,0.0,0.0,0.0,0.0,0.0,0.0,0.0,0.0,0.0,0.0,0.0,0.0,0.0,0.0,0.0,0.0,0.0,0.0,,,,,,,,,,,,,,,,,,,,,,,,,,,,,,,,,,,,,,,,,,,,,,,,,,,,,,,,,,,,,,,,,,,,,,,,,
6.06,tail,11.49,13.52,-0.09,0.01,0.28,,0.0,0.0,2.652,32.52,-66.53,112.41,-30.41,-53.96,110.57,-31.99,-33.75,114.61,-6.94,-7.73,125.95,-34.98,23.03,51.42,-20.21,7.12,55.2,,,,,,,,,,,,,,,,,,,,,,,,,,,,,,,,,,,,,0.0,0.0,0.0,0.0,0.0,0.0,0.0,0.0,0.0,0.0,0.0,0.0,0.0,0.0,0.0,0.0,0.0,0.0,,,,,,,,,,,,,,,,,,,,,,,,,,,,,,,,,,,,,,,,,,,,,,,,,,,,,,,,,,,,,,,,,,,,,,,,,
6.16,tail,11.51,13.52,-0.05,0.07,0.31,,0.0,0.0,2.652,32.52,-66.53,112.41,-30.41,-53.96,110.57,-31.99,-33.75,114.61,-6.94,-7.73,125.95,-34.98,23.03,51.42,-20.21,7.12,55.2,,,,,,,,,,,,,,,,,,,,,,,,,,,,,,,,,,,,,0.0,0.0,0.0,0.0,0.0,0.0,0.0,0.0,0.0,0.0,0.0,0.006,0.0,0.0,0.0,0.0,0.0,0.0,,,,,,,,,,,,,,,,,,,,,,,,,,,,,,,,,,,,,,,,,,,,,,,,,,,,,,,,,,,,,,,,,,,,,,,,,
6.26,tail,11.52,13.52,-0.13,0.02,0.29,,0.0,0.0,2.652,32.52,-66.53,112.41,-30.41,-53.96,110.57,-31.99,-33.75,114.61,-6.94,-7.73,125.95,-34.98,23.03,51.42,-20.21,7.12,55.2,,,,,,,,,,,,,,,,,,,,,,,,,,,,,,,,,,,,,0.0,0.0,0.0,0.0,0.0,0.0,0.0,0.0,0.0,0.0,0.0,0.0,0.0,0.0,0.0,0.0,0.0,0.0,,,,,,,,,,,,,,,,,,,,,,,,,,,,,,,,,,,,,,,,,,,,,,,,,,,,,,,,,,,,,,,,,,,,,,,,,
6.36,tail,11.52,13.51,-0.12,0.01,0.29,,0.0,0.0,2.652,32.52,-66.53,112.41,-30.41,-53.96,110.57,-31.99,-33.75,114.61,-6.94,-7.73,125.95,-34.98,23.03,51.42,-20.21,7.12,55.2,,,,,,,,,,,,,,,,,,,,,,,,,,,,,,,,,,,,,0.0,0.0,0.0,0.0,0.0,0.0,0.0,0.0,0.0,0.0,0.0,0.0,0.0,0.0,0.0,0.0,0.0,0.0,,,,,,,,,,,,,,,,,,,,,,,,,,,,,,,,,,,,,,,,,,,,,,,,,,,,,,,,,,,,,,,,,,,,,,,,,
6.46,tail,11.53,13.51,-0.12,0.0,0.33,,0.0,0.0,2.652,32.52,-66.53,112.41,-30.41,-53.96,110.57,-31.99,-33.75,114.61,-6.94,-7.73,125.95,-34.98,23.03,51.42,-20.21,7.12,55.2,,,,,,,,,,,,,,,,,,,,,,,,,,,,,,,,,,,,,0.0,0.0,0.0,0.0,0.0,0.0,0.0,0.0,0.0,0.0,0.0,0.0,0.0,0.0,0.0,0.0,0.0,0.0,,,,,,,,,,,,,,,,,,,,,,,,,,,,,,,,,,,,,,,,,,,,,,,,,,,,,,,,,,,,,,,,,,,,,,,,,
6.56,tail,11.54,13.5,-0.14,-0.0,0.32,,0.0,0.0,2.652,32.52,-66.53,112.41,-30.41,-53.96,110.57,-31.99,-33.75,114.61,-6.94,-7.73,125.95,-34.98,23.03,51.42,-20.21,7.12,55.2,,,,,,,,,,,,,,,,,,,,,,,,,,,,,,,,,,,,,0.0,0.0,0.0,0.0,0.0,0.0,0.0,0.0,0.0,0.0,0.0,0.0,0.0,0.0,0.0,0.0,0.0,0.0,,,,,,,,,,,,,,,,,,,,,,,,,,,,,,,,,,,,,,,,,,,,,,,,,,,,,,,,,,,,,,,,,,,,,,,,,
6.66,tail,11.54,13.49,-0.12,0.03,0.29,,0.0,0.0,2.652,32.52,-66.53,112.41,-30.41,-53.96,110.57,-31.99,-33.75,114.61,-6.94,-7.73,125.95,-34.98,23.03,51.42,-20.21,7.12,55.2,,,,,,,,,,,,,,,,,,,,,,,,,,,,,,,,,,,,,0.0,0.0,0.0,0.0,0.0,0.0,0.0,0.0,0.0,0.0,0.0,0.0,0.0,0.0,0.0,0.0,0.0,0.0,,,,,,,,,,,,,,,,,,,,,,,,,,,,,,,,,,,,,,,,,,,,,,,,,,,,,,,,,,,,,,,,,,,,,,,,,
6.76,tail,11.55,13.49,-0.13,0.01,0.29,,0.0,0.0,2.652,32.52,-66.53,112.41,-30.41,-53.96,110.57,-31.99,-33.75,114.61,-6.94,-7.73,125.95,-34.98,23.03,51.42,-20.21,7.12,55.2,,,,,,,,,,,,,,,,,,,,,,,,,,,,,,,,,,,,,0.0,0.0,0.0,0.0,0.0,0.0,0.0,0.0,0.0,0.0,0.0,0.0,0.0,0.0,0.0,0.0,0.0,0.0,,,,,,,,,,,,,,,,,,,,,,,,,,,,,,,,,,,,,,,,,,,,,,,,,,,,,,,,,,,,,,,,,,,,,,,,,
6.86,tail,11.55,13.49,-0.12,-0.0,0.33,,0.0,0.0,2.652,32.52,-66.53,112.41,-30.41,-53.96,110.57,-31.99,-33.75,114.61,-6.94,-7.73,125.95,-34.98,23.03,51.42,-20.21,7.12,55.2,,,,,,,,,,,,,,,,,,,,,,,,,,,,,,,,,,,,,0.0,0.0,0.0,0.0,0.0,0.0,0.0,0.0,0.0,0.0,0.0,0.0,0.0,0.0,0.0,0.0,0.0,0.0,,,,,,,,,,,,,,,,,,,,,,,,,,,,,,,,,,,,,,,,,,,,,,,,,,,,,,,,,,,,,,,,,,,,,,,,,
6.96,tail,11.56,13.48,-0.11,0.01,0.3,,0.0,0.0,2.652,32.52,-66.53,112.41,-30.41,-53.96,110.57,-31.99,-33.75,114.61,-6.94,-7.73,125.95,-34.98,23.03,51.42,-20.21,7.12,55.2,,,,,,,,,,,,,,,,,,,,,,,,,,,,,,,,,,,,,0.0,0.0,0.0,0.0,0.0,0.0,0.0,0.0,0.0,0.0,0.0,0.0,0.0,0.0,0.0,0.0,0.0,0.0,,,,,,,,,,,,,,,,,,,,,,,,,,,,,,,,,,,,,,,,,,,,,,,,,,,,,,,,,,,,,,,,,,,,,,,,,
