t_s,phase,roll_deg,pitch_deg,gyro_x_dps,gyro_y_dps,gyro_z_dps,height_ref_mm,vx_ref_mps,vy_ref_mps,max_cur_a,q0_deg,q1_deg,q2_deg,q3_deg,q4_deg,q5_deg,q6_deg,q7_deg,q8_deg,q9_deg,q10_deg,q11_deg,q12_deg,q13_deg,q14_deg,q15_deg,q16_deg,q17_deg,cmd0_deg,cmd1_deg,cmd2_deg,cmd3_deg,cmd4_deg,cmd5_deg,cmd6_deg,cmd7_deg,cmd8_deg,cmd9_deg,cmd10_deg,cmd11_deg,cmd12_deg,cmd13_deg,cmd14_deg,cmd15_deg,cmd16_deg,cmd17_deg,act0,act1,act2,act3,act4,act5,act6,act7,act8,act9,act10,act11,act12,act13,act14,act15,act16,act17,cur0_a,cur1_a,cur2_a,cur3_a,cur4_a,cur5_a,cur6_a,cur7_a,cur8_a,cur9_a,cur10_a,cur11_a,cur12_a,cur13_a,cur14_a,cur15_a,cur16_a,cur17_a,obs0,obs1,obs2,obs3,obs4,obs5,obs6,obs7,obs8,obs9,obs10,obs11,obs12,obs13,obs14,obs15,obs16,obs17,obs18,obs19,obs20,obs21,obs22,obs23,obs24,obs25,obs26,obs27,obs28,obs29,obs30,obs31,obs32,obs33,obs34,obs35,obs36,obs37,obs38,obs39,obs40,obs41,obs42,obs43,obs44,obs45,obs46,obs47,obs48,obs49,obs50,obs51,obs52,obs53,obs54,obs55,obs56,obs57,obs58,obs59,obs60,obs61,obs62,obs63,obs64,obs65,obs66,obs67,obs68,obs69,obs70,obs71,rot60_k
0.0,run,1.54,3.44,0.13,-0.56,-0.8,0.0,0.0,0.0,0.019,-0.18,19.95,79.72,0.35,16.96,78.57,0.09,19.51,81.91,0.09,17.49,79.01,0.0,18.98,79.37,-0.09,17.58,80.24,-1.68,18.36,78.22,-1.15,15.46,80.07,1.5,18.01,83.06,1.59,15.99,80.51,-1.5,17.48,77.87,-1.59,16.17,81.48,-0.9297,-1.0,-0.3891,-1.0,-1.0,1.0,1.0,-1.0,1.0,1.0,-1.0,1.0,-0.1921,-1.0,-0.4744,-1.0,-1.0,1.0,0.013,0.006,0.006,0.006,0.006,0.013,0.0,0.006,0.006,0.013,0.013,0.013,0.019,0.019,0.019,0.019,0.006,0.0,0.0,0.0015,0.0,0.0,0.0,0.0,0.0015,0.0,0.0,0.0,0.0,0.0,0.0,0.0,0.0,0.0,-0.0015,0.0,0.0,0.0037,0.0,0.0,0.0,0.0,0.0037,0.0,0.0,0.0,0.0,0.0,0.0,0.0,0.0,0.0,-0.0037,0.0,0.0,0.0,-0.0013,0.0015,0.0034,0.0,0.0,0.0,0.0,0.0,0.0,0.0,0.0,0.0,0.0,0.0,0.0,0.0,0.0,0.0,0.0,0.0,0.0,0.0,0.0,0.0,0.0,0.0,0.0,0.0,0.0,0.0,0.0,0.0,0.0,0.0,0
0.04,run,1.5,3.46,-0.43,0.03,-1.84,0.0,0.0,0.0,0.019,-0.53,19.78,79.63,0.35,16.96,78.75,0.09,19.25,82.27,0.18,17.4,79.28,-0.18,18.72,79.01,-0.44,17.4,80.51,-3.18,19.86,79.72,-2.65,13.96,81.57,0.0,16.51,81.56,3.09,14.49,82.01,-3.0,15.98,79.37,-3.09,14.67,82.98,-1.0,0.9869,1.0,-1.0,-1.0,1.0,-1.0,-1.0,-1.0,1.0,-1.0,1.0,-1.0,0.4462,1.0,-1.0,-1.0,1.0,0.013,0.006,0.006,0.006,0.006,0.013,0.0,0.006,0.006,0.013,0.013,0.013,0.019,0.019,0.019,0.019,0.006,0.0,0.0,0.0015,0.0,0.0,0.0,0.0,0.0015,0.0,0.0061,0.0,0.0,0.0,0.0,0.0,0.0,0.0,-0.0015,0.0046,0.0,0.0026,0.0,0.0,0.0,0.0,0.0026,0.0,0.01,0.0,0.0,0.0,0.0,0.0,0.0,0.0,-0.0026,0.0075,0.0002,-0.0045,0.0023,-0.0098,-0.0139,-0.9297,-1.0,-0.3891,-1.0,-1.0,1.0,1.0,-1.0,1.0,1.0,-1.0,1.0,-0.1921,-1.0,-0.4744,-1.0,-1.0,1.0,0.0,0.0,0.0,0.0,0.0,0.0,0.0,0.0,0.0,0.0,0.0,0.0,0.0,0
0.08,run,1.35,3.54,-2.96,1.68,-1.93,0.0,0.0,0.0,0.019,-1.23,19.34,79.1,-0.26,16.35,79.45,0.09,18.37,82.88,1.05,17.05,79.89,-0.97,18.11,78.4,-1.14,16.79,81.21,-1.68,18.36,81.22,-4.15,12.46,83.07,-1.5,18.01,83.06,4.59,12.99,83.51,-4.5,17.48,80.87,-4.59,13.17,84.48,0.3699,0.6291,0.2808,-1.0,-1.0,0.7202,-1.0,1.0,1.0,1.0,-1.0,1.0,-1.0,1.0,1.0,-1.0,-1.0,1.0,0.013,0.006,0.006,0.006,0.006,0.013,0.0,0.006,0.006,0.013,0.013,0.013,0.019,0.019,0.019,0.019,0.006,0.0,-0.0061,-0.0015,-0.0015,0.0,0.0,0.0031,0.0015,-0.0046,0.0123,0.0015,-0.0015,0.0046,-0.0031,-0.0046,-0.0061,-0.0061,-0.0046,0.0092,-0.023,-0.0097,-0.0058,0.0,0.0,0.0115,0.0018,-0.0173,0.0301,0.0058,-0.0058,0.0173,-0.0115,-0.0173,-0.023,-0.023,-0.0134,0.0226,-0.0029,-0.0027,-0.0076,0.0005,-0.0321,-1.0,0.9869,1.0,-1.0,-1.0,1.0,-1.0,-1.0,-1.0,1.0,-1.0,1.0,-1.0,0.4462,1.0,-1.0,-1.0,1.0,0.0,0.0,0.0,0.0,0.0,0.0,0.0,0.0,0.0,0.0,0.0,0.0,0.0,0
0.12,run,1.02,3.61,-8.55,1.05,-3.82,0.0,0.0,0.0,0.033,-2.02,18.9,78.84,-1.14,15.91,80.51,0.62,17.67,83.23,2.11,15.91,81.04,-1.93,17.31,78.31,-2.11,15.91,82.09,-3.18,19.86,82.72,-5.65,10.96,84.57,-3.0,19.51,84.56,6.09,11.49,85.01,-3.0,15.98,79.37,-6.09,11.67,85.98,-1.0,1.0,0.3056,-1.0,-1.0,1.0,-1.0,1.0,1.0,1.0,-1.0,0.7821,0.63,0.3317,-1.0,-1.0,-1.0,1.0,0.0,0.006,0.0,0.019,0.033,0.019,0.006,0.0,0.0,0.013,0.013,0.013,0.013,0.013,0.006,0.013,0.013,0.0,-0.0184,-0.0092,-0.0107,-0.0107,-0.0107,0.0153,0.0015,-0.0199,0.023,0.0169,-0.0077,0.0153,-0.0169,-0.0153,-0.0169,-0.0184,-0.0153,0.0215,-0.0622,-0.0356,-0.0386,-0.0403,-0.0403,0.0541,0.0013,-0.0697,0.0613,0.0616,-0.0271,0.0524,-0.0599,-0.0524,-0.0564,-0.0622,-0.0496,0.0618,-0.0161,0.0037,-0.0517,0.0293,-0.0337,0.3699,0.6291,0.2808,-1.0,-1.0,0.7202,-1.0,1.0,1.0,1.0,-1.0,1.0,-1.0,1.0,1.0,-1.0,-1.0,1.0,0.0,0.0,0.0,0.0,0.0,0.0,0.0,0.0,0.0,0.0,0.0,0.0,0.0,0
0.16,run,0.76,3.66,-6.97,1.32,-3.17,0.0,0.0,0.0,0.033,-2.55,18.72,78.93,-2.29,14.59,81.65,0.7,17.4,83.5,3.16,14.85,82.09,-2.99,16.79,78.4,-3.43,14.77,83.23,-4.68,21.36,81.22,-7.15,9.46,86.07,-1.92,21.01,86.06,7.59,9.99,86.51,-1.5,14.48,80.87,-7.59,10.17,87.48,-1.0,1.0,0.023,-1.0,-0.3802,1.0,-0.055,0.8656,0.2695,1.0,-1.0,1.0,0.3375,-0.3077,1.0,-1.0,-1.0,1.0,0.0,0.006,0.0,0.019,0.033,0.019,0.006,0.0,0.0,0.013,0.013,0.013,0.013,0.013,0.006,0.013,0.013,0.0,-0.0322,-0.0169,-0.0153,-0.0261,-0.0184,0.0337,0.0107,-0.0322,0.0291,0.0353,-0.0276,0.0353,-0.0337,-0.0291,-0.0184,-0.0353,-0.0307,0.0368,-0.0954,-0.0537,-0.0443,-0.0858,-0.057,0.107,0.0355,-0.0948,0.066,0.1122,-0.0938,0.1115,-0.1053,-0.0885,-0.0453,-0.1069,-0.0923,0.1009,-0.0448,0.0105,-0.1492,0.0183,-0.0667,-1.0,1.0,0.3056,-1.0,-1.0,1.0,-1.0,1.0,1.0,1.0,-1.0,0.7821,0.63,0.3317,-1.0,-1.0,-1.0,1.0,0.0,0.0,0.0,0.0,0.0,0.0,0.0,0.0,0.0,0.0,0.0,0.0,0.0,0
0.2,run,0.24,3.75,-13.08,2.49,-6.26,0.0,0.0,0.0,0.033,-3.25,18.54,79.37,-3.52,13.36,83.06,0.7,17.49,84.11,4.48,13.54,83.41,-3.6,16.17,79.28,-4.57,13.54,84.46,-6.18,22.86,82.72,-8.65,7.96,87.57,-3.42,19.51,87.56,9.09,8.49,88.01,0.0,12.98,82.37,-9.09,8.67,88.98,-1.0,1.0,1.0,-1.0,-0.9492,1.0,-1.0,0.1379,1.0,1.0,-1.0,1.0,0.0263,-0.6506,1.0,-1.0,-1.0,1.0,0.0,0.006,0.0,0.019,0.033,0.019,0.006,0.0,0.0,0.013,0.013,0.013,0.013,0.013,0.006,0.013,0.013,0.0,-0.0414,-0.0199,-0.0138,-0.046,-0.0414,0.0537,0.0123,-0.0368,0.0337,0.0537,-0.046,0.0537,-0.0522,-0.0383,-0.0169,-0.0583,-0.0506,0.0568,-0.1013,-0.0491,-0.0252,-0.1349,-0.1263,0.1498,0.0306,-0.0837,0.0635,0.1477,-0.1348,0.1472,-0.1428,-0.0965,-0.0259,-0.1612,-0.1395,0.1455,-0.068,0.0146,-0.1216,0.0231,-0.0552,-1.0,1.0,0.023,-1.0,-0.3802,1.0,-0.055,0.8656,0.2695,1.0,-1.0,1.0,0.3375,-0.3077,1.0,-1.0,-1.0,1.0,0.0,0.0,0.0,0.0,0.0,0.0,0.0,0.0,0.0,0.0,0.0,0.0,0.0,0
0.24,run,-0.37,3.62,-14.95,-3.16,-9.92,0.0,0.0,0.0,0.033,-4.22,18.98,80.16,-4.83,11.95,84.38,-0.26,18.02,85.08,5.8,11.78,84.81,-4.04,15.29,80.24,-5.98,12.22,85.87,-7.68,24.36,84.22,-10.15,9.46,89.07,-4.92,18.01,89.06,10.59,6.99,89.51,-1.5,11.48,83.87,-10.59,7.17,90.48,-0.5109,1.0,0.5275,-1.0,0.8656,1.0,-0.6928,0.2959,0.8953,1.0,-1.0,1.0,-1.0,-1.0,1.0,-1.0,-1.0,1.0,0.013,0.013,0.006,0.019,0.019,0.013,0.013,0.013,0.0,0.013,0.006,0.013,0.006,0.019,0.013,0.019,0.006,0.0,-0.0537,-0.023,-0.0061,-0.0675,-0.0629,0.0782,0.0123,-0.0353,0.0445,0.0767,-0.069,0.0767,-0.0629,-0.0491,-0.0015,-0.0782,-0.0721,0.0782,-0.1166,-0.0458,0.0109,-0.1745,-0.1684,0.1963,0.0214,-0.0528,0.0844,0.1891,-0.1801,0.1888,-0.14,-0.1076,0.039,-0.1871,-0.1777,0.1819,-0.1136,0.0223,-0.2283,0.0434,-0.1092,-1.0,1.0,1.0,-1.0,-0.9492,1.0,-1.0,0.1379,1.0,1.0,-1.0,1.0,0.0263,-0.6506,1.0,-1.0,-1.0,1.0,0.0,0.0,0.0,0.0,0.0,0.0,0.0,0.0,0.0,0.0,0.0,0.0,0.0,0
0.28,run,-0.64,3.77,-6.55,4.05,-10.25,0.0,0.0,0.0,0.033,-5.19,20.04,81.21,-6.24,10.72,85.78,-1.41,18.54,86.13,7.12,10.63,86.22,-4.04,14.15,81.3,-7.29,10.72,87.19,-9.18,22.86,82.72,-11.65,8.04,87.57,-6.42,16.51,90.56,12.09,5.49,91.01,-3.0,9.98,85.37,-12.09,5.67,91.98,-1.0,-0.0047,0.021,-1.0,0.6008,-1.0,-1.0,-1.0,1.0,1.0,-1.0,1.0,-1.0,-1.0,1.0,-1.0,-1.0,1.0,0.013,0.013,0.006,0.019,0.019,0.013,0.013,0.013,0.0,0.013,0.006,0.013,0.006,0.019,0.013,0.019,0.006,0.0,-0.0706,-0.0153,0.0077,-0.0905,-0.0874,0.1012,-0.0046,-0.0261,0.0614,0.0997,-0.0997,0.1012,-0.0706,-0.0644,0.0153,-0.1028,-0.0951,0.1028,-0.1451,-0.0032,0.0595,-0.2086,-0.2102,0.2239,-0.0485,-0.0024,0.1225,0.2189,-0.2414,0.2244,-0.1268,-0.133,0.0907,-0.2233,-0.2109,0.2196,-0.1667,0.0106,-0.261,-0.0551,-0.1732,-0.5109,1.0,0.5275,-1.0,0.8656,1.0,-0.6928,0.2959,0.8953,1.0,-1.0,1.0,-1.0,-1.0,1.0,-1.0,-1.0,1.0,0.0,0.0,0.0,0.0,0.0,0.0,0.0,0.0,0.0,0.0,0.0,0.0,0.0,0
0.32,run,-1.04,3.42,-10.34,-9.27,-8.69,0.0,0.0,0.0,0.033,-6.5,20.92,82.35,-7.65,9.76,87.1,-2.64,18.72,87.45,8.53,9.32,87.63,-3.52,12.83,82.62,-8.7,9.4,88.42,-10.68,21.36,84.22,-13.15,6.54,86.07,-7.92,15.01,92.06,13.59,3.99,92.51,-4.5,8.48,86.87,-13.59,4.17,93.48,-1.0,-0.8825,0.5844,-1.0,0.5579,0.0953,-1.0,-1.0,1.0,1.0,-1.0,1.0,-1.0,-0.1219,1.0,-1.0,-1.0,1.0,0.013,0.013,0.006,0.019,0.019,0.013,0.013,0.013,0.0,0.013,0.006,0.013,0.006,0.019,0.013,0.019,0.006,0.0,-0.0874,0.0031,0.0261,-0.115,-0.1089,0.1258,-0.0245,-0.0169,0.0798,0.1227,-0.1197,0.1258,-0.0706,-0.0844,0.0337,-0.1258,-0.1212,0.1258,-0.165,0.067,0.1109,-0.2383,-0.2279,0.249,-0.1089,0.0329,0.155,0.2397,-0.244,0.2494,-0.0888,-0.1681,0.1327,-0.2428,-0.2457,0.2402,-0.1902,0.0241,-0.1143,0.0707,-0.1789,-1.0,-0.0047,0.021,-1.0,0.6008,-1.0,-1.0,-1.0,1.0,1.0,-1.0,1.0,-1.0,-1.0,1.0,-1.0,-1.0,1.0,0.0,0.0,0.0,0.0,0.0,0.0,0.0,0.0,0.0,0.0,0.0,0.0,0.0,0
0.36,run,-1.5,3.05,-10.83,-8.93,-4.78,0.0,0.0,0.0,0.039,-7.65,21.71,83.14,-8.96,8.79,87.98,-3.96,18.37,88.77,9.84,8.0,89.03,-3.16,11.43,84.02,-10.11,8.0,89.74,-12.18,19.86,82.72,-14.65,8.04,84.57,-9.42,16.51,93.56,15.09,2.49,94.01,-6.0,6.98,88.37,-15.09,2.67,94.98,-1.0,-1.0,-0.288,-1.0,1.0,-0.7934,-1.0,0.7587,1.0,1.0,-1.0,1.0,-1.0,-1.0,1.0,-1.0,-1.0,1.0,0.006,0.039,0.0,0.013,0.013,0.006,0.026,0.006,0.0,0.026,0.013,0.013,0.0,0.006,0.006,0.019,0.013,0.006,-0.1104,0.0184,0.046,-0.1396,-0.1258,0.1488,-0.046,-0.0138,0.1028,0.1473,-0.1427,0.1503,-0.0614,-0.1074,0.0568,-0.1503,-0.1442,0.1473,-0.2015,0.1042,0.1521,-0.2585,-0.2225,0.2603,-0.1565,0.0345,0.1945,0.2595,-0.2567,0.2662,-0.0278,-0.2036,0.1789,-0.2617,-0.2579,0.2484,-0.2251,-0.0063,-0.1805,-0.1618,-0.1517,-1.0,-0.8825,0.5844,-1.0,0.5579,0.0953,-1.0,-1.0,1.0,1.0,-1.0,1.0,-1.0,-0.1219,1.0,-1.0,-1.0,1.0,0.0,0.0,0.0,0.0,0.0,0.0,0.0,0.0,0.0,0.0,0.0,0.0,0.0,0
0.4,run,-2.04,2.93,-13.15,-2.76,-3.26,0.0,0.0,0.0,0.039,-9.14,22.24,83.67,-10.37,8.0,88.59,-5.27,17.67,90.09,11.25,6.59,90.44,-3.34,9.76,85.52,-11.51,6.77,91.05,-13.68,18.36,84.22,-16.15,9.54,86.07,-10.92,15.01,95.06,16.59,0.99,95.51,-7.5,5.48,89.87,-16.59,1.17,96.48,-1.0,-1.0,0.4484,-1.0,1.0,0.3046,-1.0,-1.0,1.0,1.0,-1.0,1.0,-1.0,-0.7238,1.0,-1.0,-1.0,1.0,0.006,0.039,0.0,0.013,0.013,0.006,0.026,0.006,0.0,0.026,0.013,0.013,0.0,0.006,0.006,0.019,0.013,0.006,-0.1304,0.0322,0.0598,-0.1626,-0.1427,0.1641,-0.069,-0.0199,0.1258,0.1703,-0.1657,0.1749,-0.0552,-0.1319,0.0813,-0.1749,-0.1687,0.1703,-0.2155,0.1245,0.158,-0.2669,-0.2188,0.2395,-0.1955,0.0012,0.2221,0.2676,-0.2656,0.278,0.0035,-0.2342,0.2169,-0.2748,-0.2722,0.2598,-0.2655,-0.0384,-0.189,-0.1559,-0.0835,-1.0,-1.0,-0.288,-1.0,1.0,-0.7934,-1.0,0.7587,1.0,1.0,-1.0,1.0,-1.0,-1.0,1.0,-1.0,-1.0,1.0,0.0,0.0,0.0,0.0,0.0,0.0,0.0,0.0,0.0,0.0,0.0,0.0,0.0,0
0.44,run,-2.51,2.62,-11.47,-7.42,-3.88,0.0,0.0,0.0,0.039,-10.46,22.59,83.94,-11.78,7.38,88.86,-6.68,16.88,91.49,12.57,5.19,91.76,-3.96,8.61,86.66,-12.83,5.36,92.37,-15.18,16.86,85.72,-17.65,11.04,84.57,-12.42,13.51,96.56,18.09,-0.51,97.01,-9.0,3.98,91.37,-18.09,-0.33,97.98,-1.0,-1.0,0.4944,-1.0,1.0,-0.8747,-1.0,-0.3198,0.9661,1.0,-1.0,1.0,-1.0,-1.0,1.0,-1.0,-1.0,1.0,0.006,0.039,0.0,0.013,0.013,0.006,0.026,0.006,0.0,0.026,0.013,0.013,0.0,0.006,0.006,0.019,0.013,0.006,-0.1565,0.0414,0.069,-0.1871,-0.1565,0.1749,-0.092,-0.0322,0.1488,0.1948,-0.1902,0.1994,-0.0583,-0.1611,0.1074,-0.1994,-0.1902,0.1933,-0.2491,0.1218,0.1453,-0.2793,-0.2052,0.2081,-0.2235,-0.0453,0.2421,0.2797,-0.2784,0.2871,-0.0091,-0.2737,0.25,-0.2848,-0.2714,0.2685,-0.3122,-0.0496,-0.2295,-0.0482,-0.057,-1.0,-1.0,0.4484,-1.0,1.0,0.3046,-1.0,-1.0,1.0,1.0,-1.0,1.0,-1.0,-0.7238,1.0,-1.0,-1.0,1.0,0.0,0.0,0.0,0.0,0.0,0.0,0.0,0.0,0.0,0.0,0.0,0.0,0.0,0
0.48,run,-2.76,2.36,-5.32,-6.26,-7.94,0.0,0.0,0.0,0.045,-11.87,22.68,84.11,-13.18,7.03,88.68,-8.0,15.73,92.81,13.89,3.69,93.25,-4.83,7.12,88.15,-14.24,4.04,93.69,-16.68,15.36,87.22,-19.15,12.54,83.07,-13.92,15.01,98.06,19.59,-2.01,98.51,-10.5,2.48,92.87,-19.59,-1.83,99.48,-1.0,-1.0,0.5539,-1.0,1.0,-0.6619,-1.0,0.7547,1.0,1.0,-1.0,1.0,-1.0,-1.0,1.0,-1.0,-1.0,1.0,0.013,0.0,0.013,0.019,0.0,0.013,0.026,0.0,0.0,0.045,0.013,0.013,0.013,0.0,0.006,0.019,0.019,0.013,-0.1795,0.0476,0.0736,-0.2117,-0.1672,0.1795,-0.1166,-0.046,0.1733,0.2178,-0.2148,0.2224,-0.069,-0.181,0.1273,-0.2224,-0.2148,0.2163,-0.2606,0.1083,0.119,-0.2875,-0.1839,0.1629,-0.2484,-0.0835,0.2615,0.2821,-0.2869,0.2872,-0.0466,-0.2663,0.2498,-0.2856,-0.282,0.2742,-0.3536,-0.0759,-0.2002,-0.1296,-0.0676,-1.0,-1.0,0.4944,-1.0,1.0,-0.8747,-1.0,-0.3198,0.9661,1.0,-1.0,1.0,-1.0,-1.0,1.0,-1.0,-1.0,1.0,0.0,0.0,0.0,0.0,0.0,0.0,0.0,0.0,0.0,0.0,0.0,0.0,0.0,0
0.52,run,-2.92,2.33,-4.72,-0.97,-17.65,0.0,0.0,0.0,0.045,-13.27,22.59,84.73,-14.68,7.03,88.33,-9.4,14.68,94.22,15.29,2.29,94.57,-5.89,5.62,89.65,-15.82,2.72,95.01,-18.18,13.86,88.72,-20.65,14.04,81.57,-15.42,13.51,99.56,21.09,-3.51,100.01,-12.0,0.98,94.37,-21.09,-3.33,100.98,-1.0,-1.0,0.7522,-1.0,1.0,0.1311,-1.0,-0.1508,1.0,1.0,-1.0,1.0,-1.0,-0.4126,0.7783,-1.0,-1.0,1.0,0.013,0.0,0.013,0.019,0.0,0.013,0.026,0.0,0.0,0.045,0.013,0.013,0.013,0.0,0.006,0.019,0.019,0.013,-0.204,0.0491,0.0767,-0.2362,-0.1733,0.1764,-0.1396,-0.066,0.1963,0.2408,-0.2408,0.2485,-0.0844,-0.2071,0.1534,-0.247,-0.2378,0.2393,-0.2745,0.0815,0.0948,-0.2933,-0.1517,0.1025,-0.2602,-0.1333,0.2693,0.2838,-0.2986,0.2989,-0.0902,-0.2843,0.2727,-0.292,-0.2837,0.2783,-0.3746,-0.0991,-0.0929,-0.1092,-0.1386,-1.0,-1.0,0.5539,-1.0,1.0,-0.6619,-1.0,0.7547,1.0,1.0,-1.0,1.0,-1.0,-1.0,1.0,-1.0,-1.0,1.0,0.0,0.0,0.0,0.0,0.0,0.0,0.0,0.0,0.0,0.0,0.0,0.0,0.0,0
0.56,run,-2.96,2.27,-1.95,-1.25,-22.55,0.0,0.0,0.0,0.045,-14.68,21.88,85.52,-16.08,7.29,87.19,-10.81,13.89,95.62,16.7,0.88,95.98,-7.38,4.31,90.97,-17.14,1.49,96.42,-19.68,12.36,90.22,-22.15,15.54,80.07,-16.92,12.01,101.06,22.59,-5.01,101.51,-13.5,-0.52,95.87,-22.59,-4.83,102.48,-1.0,-1.0,0.7724,-1.0,1.0,-0.4479,-1.0,0.6089,1.0,1.0,-1.0,1.0,-1.0,-0.6708,0.9299,-1.0,-1.0,1.0,0.013,0.0,0.013,0.019,0.0,0.013,0.026,0.0,0.0,0.045,0.013,0.013,0.013,0.0,0.006,0.019,0.019,0.013,-0.2286,0.0476,0.0874,-0.2623,-0.1733,0.1703,-0.1641,-0.0844,0.2209,0.2654,-0.2654,0.2715,-0.1028,-0.2332,0.1795,-0.2746,-0.2608,0.2623,-0.2845,0.0513,0.1068,-0.3035,-0.1062,0.0487,-0.2745,-0.1626,0.2809,0.291,-0.3014,0.2958,-0.1324,-0.2971,0.289,-0.3083,-0.2852,0.2814,-0.3887,-0.1018,-0.0823,-0.017,-0.3081,-1.0,-1.0,0.7522,-1.0,1.0,0.1311,-1.0,-0.1508,1.0,1.0,-1.0,1.0,-1.0,-0.4126,0.7783,-1.0,-1.0,1.0,0.0,0.0,0.0,0.0,0.0,0.0,0.0,0.0,0.0,0.0,0.0,0.0,0.0,0
0.6,run,-3.0,2.42,-0.61,3.79,-22.65,0.0,0.0,0.0,0.045,-16.08,20.92,86.57,-17.49,8.17,86.13,-12.22,13.27,97.03,18.11,-0.53,97.38,-8.79,2.81,92.46,-18.63,0.0,97.82,-21.18,10.86,91.72,-23.65,17.04,81.57,-18.42,10.51,102.56,24.09,-6.51,103.01,-15.0,-2.02,97.37,-24.09,-6.33,103.98,-1.0,-1.0,1.0,-1.0,1.0,0.6641,-1.0,-0.0746,1.0,1.0,-1.0,1.0,-1.0,-0.4153,0.5753,-1.0,-1.0,1.0,0.013,0.0,0.013,0.019,0.013,0.019,0.026,0.013,0.0,0.039,0.006,0.013,0.013,0.0,0.0,0.019,0.013,0.013,-0.2531,0.0353,0.1012,-0.2869,-0.1687,0.1503,-0.1887,-0.0982,0.2454,0.2899,-0.2899,0.2961,-0.1289,-0.2562,0.2025,-0.2976,-0.2823,0.2869,-0.2909,-0.01,0.1263,-0.3042,-0.0571,-0.0405,-0.2839,-0.1654,0.2884,0.2954,-0.3027,0.2988,-0.1902,-0.294,0.2883,-0.3018,-0.2799,0.2887,-0.3926,-0.1071,-0.034,-0.0218,-0.3937,-1.0,-1.0,0.7724,-1.0,1.0,-0.4479,-1.0,0.6089,1.0,1.0,-1.0,1.0,-1.0,-0.6708,0.9299,-1.0,-1.0,1.0,0.0,0.0,0.0,0.0,0.0,0.0,0.0,0.0,0.0,0.0,0.0,0.0,0.0,0
0.64,run,-3.01,2.54,2.12,3.2,-14.56,0.0,0.0,0.0,0.045,-17.4,19.51,87.89,-18.81,9.32,84.73,-13.62,12.22,98.35,19.42,-1.93,98.88,-10.11,1.49,93.96,-20.13,-1.58,99.23,-22.68,9.36,93.22,-25.15,18.54,83.07,-18.53,9.01,104.06,25.59,-8.01,104.51,-16.5,-3.52,98.87,-25.59,-7.83,105.48,-1.0,-0.594,0.9569,-1.0,1.0,0.4182,-0.5293,-0.836,1.0,1.0,-1.0,1.0,-1.0,-0.4711,1.0,-1.0,-1.0,1.0,0.013,0.0,0.013,0.019,0.013,0.019,0.026,0.013,0.0,0.039,0.006,0.013,0.013,0.0,0.0,0.019,0.013,0.013,-0.2777,0.0184,0.1197,-0.3114,-0.1534,0.1319,-0.2132,-0.1089,0.27,0.3145,-0.3145,0.3206,-0.1534,-0.2823,0.2286,-0.3237,-0.3083,0.3114,-0.2957,-0.0703,0.1575,-0.305,0.0176,-0.0974,-0.2908,-0.1561,0.2939,0.2989,-0.304,0.3012,-0.2252,-0.3036,0.2997,-0.3091,-0.2938,0.2942,-0.3961,-0.094,-0.0106,0.0662,-0.3954,-1.0,-1.0,1.0,-1.0,1.0,0.6641,-1.0,-0.0746,1.0,1.0,-1.0,1.0,-1.0,-0.4153,0.5753,-1.0,-1.0,1.0,0.0,0.0,0.0,0.0,0.0,0.0,0.0,0.0,0.0,0.0,0.0,0.0,0.0,0
0.68,run,-2.87,2.75,3.47,4.86,-20.03,0.0,0.0,0.0,0.045,-18.81,18.02,89.21,-20.3,10.63,83.5,-15.03,11.16,99.84,20.92,-3.43,100.2,-11.6,0.09,95.36,-21.45,-2.99,100.63,-24.18,7.86,94.72,-26.65,17.04,81.57,-17.03,7.51,105.56,27.09,-9.51,106.01,-18.0,-5.02,100.37,-27.09,-9.33,106.98,-1.0,-0.7131,1.0,-1.0,0.1862,-1.0,-0.171,-0.0554,1.0,1.0,-1.0,1.0,-1.0,-0.7755,1.0,-1.0,-1.0,1.0,0.013,0.0,0.013,0.019,0.013,0.019,0.026,0.013,0.0,0.039,0.006,0.013,0.013,0.0,0.0,0.019,0.013,0.013,-0.3007,-0.0061,0.1427,-0.3344,-0.1335,0.1074,-0.2378,-0.1273,0.293,0.3375,-0.339,0.3467,-0.1764,-0.3053,0.2546,-0.3497,-0.3359,0.3359,-0.2932,-0.1412,0.1965,-0.2997,0.087,-0.1602,-0.2956,-0.1782,0.292,0.2955,-0.3048,0.3086,-0.2439,-0.2988,0.3075,-0.3141,-0.3091,0.2979,-0.3967,-0.0828,0.037,0.0559,-0.2542,-1.0,-0.594,0.9569,-1.0,1.0,0.4182,-0.5293,-0.836,1.0,1.0,-1.0,1.0,-1.0,-0.4711,1.0,-1.0,-1.0,1.0,0.0,0.0,0.0,0.0,0.0,0.0,0.0,0.0,0.0,0.0,0.0,0.0,0.0,0
0.72,run,-2.75,2.62,2.95,-3.63,-24.62,0.0,0.0,0.0,0.045,-20.21,16.7,90.62,-21.71,12.04,82.53,-16.26,9.93,101.25,22.41,-4.83,101.6,-13.01,-1.41,96.77,-22.94,-4.31,102.04,-25.68,6.36,96.22,-28.15,15.54,83.07,-18.05,6.01,107.06,28.59,-11.01,107.51,-19.5,-6.52,101.87,-28.59,-10.83,108.48,-1.0,-0.2248,1.0,-1.0,-0.4969,0.9659,-0.5156,-0.3423,1.0,1.0,-0.5249,1.0,-1.0,-0.5297,0.7871,-1.0,-1.0,1.0,0.019,0.0,0.013,0.019,0.019,0.006,0.013,0.006,0.0,0.045,0.006,0.006,0.013,0.0,0.006,0.013,0.019,0.013,-0.3252,-0.0322,0.1657,-0.3605,-0.1104,0.0859,-0.2623,-0.1457,0.3191,0.3636,-0.3651,0.3697,-0.2025,-0.3298,0.2792,-0.3728,-0.3605,0.3605,-0.2973,-0.1966,0.2238,-0.3076,0.1472,-0.1926,-0.2989,-0.1938,0.3022,0.3046,-0.3111,0.3023,-0.2685,-0.3012,0.3073,-0.3062,-0.3084,0.3006,-0.3849,-0.0648,0.0606,0.0848,-0.3496,-1.0,-0.7131,1.0,-1.0,0.1862,-1.0,-0.171,-0.0554,1.0,1.0,-1.0,1.0,-1.0,-0.7755,1.0,-1.0,-1.0,1.0,0.0,0.0,0.0,0.0,0.0,0.0,0.0,0.0,0.0,0.0,0.0,0.0,0.0,0
0.76,run,-2.83,2.68,-2.19,2.1,-20.04,0.0,0.0,0.0,0.045,-21.71,15.29,91.93,-23.12,12.74,82.0,-17.14,8.7,102.57,23.73,-6.33,103.01,-14.41,-2.9,98.17,-24.35,-5.89,103.45,-27.18,4.86,97.72,-29.65,14.04,84.57,-16.55,7.51,108.56,30.09,-12.51,109.01,-21.0,-8.02,103.37,-30.09,-12.33,109.98,-1.0,-0.291,1.0,-1.0,-1.0,1.0,-0.0108,1.0,0.946,1.0,0.169,1.0,-1.0,-1.0,0.7248,-1.0,-1.0,1.0,0.019,0.0,0.013,0.019,0.019,0.006,0.013,0.006,0.0,0.045,0.006,0.006,0.013,0.0,0.006,0.013,0.019,0.013,-0.3497,-0.0552,0.1902,-0.385,-0.0859,0.069,-0.2838,-0.1672,0.3436,0.3896,-0.3896,0.3942,-0.227,-0.3559,0.3037,-0.3988,-0.3835,0.385,-0.3001,-0.2239,0.2487,-0.3073,0.1951,-0.1981,-0.2898,-0.2162,0.3036,0.311,-0.3098,0.3036,-0.28,-0.3086,0.3071,-0.3121,-0.3022,0.3024,-0.3738,-0.0762,0.0516,-0.0633,-0.4296,-1.0,-0.2248,1.0,-1.0,-0.4969,0.9659,-0.5156,-0.3423,1.0,1.0,-0.5249,1.0,-1.0,-0.5297,0.7871,-1.0,-1.0,1.0,0.0,0.0,0.0,0.0,0.0,0.0,0.0,0.0,0.0,0.0,0.0,0.0,0.0,0
0.8,run,-3.24,2.76,-10.25,1.59,-18.39,0.0,0.0,0.0,0.045,-23.03,13.97,92.9,-24.52,14.06,81.74,-17.84,7.47,103.89,25.22,-7.82,104.5,-15.82,-4.31,99.67,-25.75,-7.29,104.85,-25.68,6.36,99.22,-31.15,12.54,86.07,-15.05,9.01,110.06,31.59,-14.01,110.51,-22.5,-9.52,101.87,-31.59,-13.83,111.48,-0.5146,0.9248,1.0,-1.0,-0.3298,1.0,0.9676,0.921,0.9263,1.0,-0.6608,1.0,-1.0,-1.0,0.3128,-1.0,-1.0,1.0,0.019,0.0,0.013,0.019,0.019,0.006,0.013,0.006,0.0,0.045,0.006,0.006,0.013,0.0,0.006,0.013,0.019,0.013,-0.3758,-0.0798,0.2132,-0.4096,-0.0736,0.0598,-0.2991,-0.1887,0.3666,0.4126,-0.4157,0.4188,-0.2516,-0.382,0.3283,-0.4234,-0.4111,0.4096,-0.3076,-0.2485,0.2601,-0.3069,0.1824,-0.1731,-0.2602,-0.2316,0.2985,0.3037,-0.3144,0.3043,-0.2878,-0.3135,0.3068,-0.3102,-0.3148,0.3035,-0.3814,-0.0707,-0.0382,0.0367,-0.3497,-1.0,-0.291,1.0,-1.0,-1.0,1.0,-0.0108,1.0,0.946,1.0,0.169,1.0,-1.0,-1.0,0.7248,-1.0,-1.0,1.0,0.0,0.0,0.0,0.0,0.0,0.0,0.0,0.0,0.0,0.0,0.0,0.0,0.0,0
0.84,run,-3.46,2.72,-5.14,-1.44,-20.37,0.0,0.0,0.0,0.045,-24.43,12.74,94.66,-25.84,14.68,81.91,-18.19,6.59,105.21,26.54,-9.14,105.91,-17.23,-5.71,100.99,-27.25,-8.7,106.08,-27.18,7.86,100.72,-32.65,11.04,84.57,-13.55,10.51,111.56,33.09,-15.51,112.01,-24.0,-11.02,100.37,-30.09,-15.33,112.98,-1.0,1.0,1.0,-1.0,-0.8334,-0.3258,0.1752,1.0,1.0,1.0,-1.0,1.0,-1.0,-1.0,0.1804,-0.7506,-1.0,1.0,0.006,0.0,0.013,0.019,0.026,0.006,0.006,0.0,0.006,0.045,0.0,0.013,0.013,0.0,0.0,0.019,0.013,0.026,-0.3988,-0.1028,0.2301,-0.4341,-0.0506,0.0552,-0.3114,-0.2102,0.3896,0.4387,-0.4418,0.4449,-0.2761,-0.4065,0.3543,-0.4479,-0.4357,0.4341,-0.3019,-0.2605,0.2456,-0.3072,0.2143,-0.1385,-0.2283,-0.2429,0.2955,0.3107,-0.3182,0.3111,-0.2938,-0.3118,0.3128,-0.3095,-0.3127,0.3048,-0.4167,-0.0639,-0.1789,0.0278,-0.321,-0.5146,0.9248,1.0,-1.0,-0.3298,1.0,0.9676,0.921,0.9263,1.0,-0.6608,1.0,-1.0,-1.0,0.3128,-1.0,-1.0,1.0,0.0,0.0,0.0,0.0,0.0,0.0,0.0,0.0,0.0,0.0,0.0,0.0,0.0,0
0.88,run,-3.49,2.71,0.99,-0.23,-20.78,0.0,0.0,0.0,0.045,-25.49,11.34,96.15,-27.25,15.21,82.35,-18.19,6.15,106.52,27.95,-10.55,107.23,-18.63,-7.12,101.95,-28.48,-10.11,107.49,-28.68,6.36,102.22,-34.15,9.54,83.07,-12.05,12.01,113.06,34.59,-17.01,113.51,-25.5,-12.52,98.87,-28.59,-16.83,114.48,-1.0,-0.1208,1.0,-1.0,-1.0,-0.0206,-0.1623,1.0,1.0,1.0,-0.7165,1.0,-1.0,-1.0,-0.5747,-0.7299,-1.0,1.0,0.006,0.0,0.013,0.019,0.026,0.006,0.006,0.0,0.006,0.045,0.0,0.013,0.013,0.0,0.0,0.019,0.013,0.026,-0.4234,-0.1243,0.2608,-0.4571,-0.0399,0.0583,-0.3175,-0.2255,0.4126,0.4617,-0.4648,0.4694,-0.3007,-0.431,0.3774,-0.474,-0.4602,0.4556,-0.3033,-0.2629,0.2869,-0.3013,0.1902,-0.0854,-0.1828,-0.2276,0.2931,0.3038,-0.309,0.3098,-0.2976,-0.3103,0.3052,-0.3144,-0.3109,0.2938,-0.4365,-0.0674,-0.0898,-0.0251,-0.3555,-1.0,1.0,1.0,-1.0,-0.8334,-0.3258,0.1752,1.0,1.0,1.0,-1.0,1.0,-1.0,-1.0,0.1804,-0.7506,-1.0,1.0,0.0,0.0,0.0,0.0,0.0,0.0,0.0,0.0,0.0,0.0,0.0,0.0,0.0,0
0.92,run,-3.57,2.88,-0.01,4.46,-17.52,0.0,0.0,0.0,0.045,-26.54,10.02,97.56,-28.65,15.29,83.06,-18.19,6.06,107.93,29.36,-12.04,108.72,-20.04,-8.53,102.57,-29.44,-11.51,109.07,-30.18,4.86,103.72,-35.0,8.04,84.57,-10.55,13.51,114.56,35.0,-18.51,115.01,-27.0,-14.02,100.37,-30.09,-18.33,115.98,-1.0,0.1873,1.0,-1.0,-1.0,1.0,0.0936,0.8701,1.0,1.0,-0.3675,1.0,-1.0,-1.0,0.5515,-1.0,-1.0,1.0,0.006,0.0,0.013,0.019,0.026,0.006,0.006,0.0,0.006,0.045,0.0,0.013,0.013,0.0,0.0,0.019,0.013,0.026,-0.4418,-0.1488,0.2869,-0.4817,-0.0307,0.066,-0.3175,-0.2332,0.4357,0.4863,-0.4893,0.4924,-0.3252,-0.4556,0.3942,-0.4955,-0.4847,0.4801,-0.2815,-0.2763,0.2989,-0.3032,0.1678,-0.031,-0.128,-0.1881,0.2917,0.3049,-0.3085,0.3034,-0.3006,-0.3095,0.2771,-0.3008,-0.3099,0.298,-0.4383,-0.0682,0.0172,-0.0041,-0.3627,-1.0,-0.1208,1.0,-1.0,-1.0,-0.0206,-0.1623,1.0,1.0,1.0,-0.7165,1.0,-1.0,-1.0,-0.5747,-0.7299,-1.0,1.0,0.0,0.0,0.0,0.0,0.0,0.0,0.0,0.0,0.0,0.0,0.0,0.0,0.0,0
0.96,run,-3.81,3.09,-3.32,5.54,-16.65,0.0,0.0,0.0,0.045,-27.69,8.61,98.96,-30.06,15.29,83.94,-17.14,6.06,109.25,30.76,-13.45,110.13,-21.45,-10.02,103.1,-30.23,-12.92,110.48,-31.68,6.36,105.22,-35.0,6.54,86.07,-9.05,12.01,116.06,35.0,-20.01,116.51,-28.5,-15.52,101.87,-31.59,-19.83,117.48,-1.0,1.0,0.8762,-1.0,-0.8893,1.0,0.1005,0.1565,1.0,1.0,-0.4274,1.0,-1.0,-1.0,0.5371,-1.0,-1.0,1.0,0.006,0.0,0.013,0.026,0.0,0.013,0.013,0.033,0.006,0.039,0.0,0.019,0.019,0.0,0.013,0.019,0.019,0.013,-0.4602,-0.1718,0.3114,-0.5062,-0.0291,0.0782,-0.3175,-0.2347,0.4602,0.5108,-0.5154,0.5185,-0.3497,-0.4801,0.405,-0.5123,-0.5093,0.5077,-0.2663,-0.2799,0.3015,-0.3045,0.1232,0.0245,-0.0896,-0.1375,0.2965,0.3058,-0.3141,0.3104,-0.3028,-0.3089,0.2344,-0.274,-0.3092,0.3124,-0.4458,-0.0535,-0.0001,0.0779,-0.3059,-1.0,0.1873,1.0,-1.0,-1.0,1.0,0.0936,0.8701,1.0,1.0,-0.3675,1.0,-1.0,-1.0,0.5515,-1.0,-1.0,1.0,0.0,0.0,0.0,0.0,0.0,0.0,0.0,0.0,0.0,0.0,0.0,0.0,0.0,0
1.0,run,-4.26,3.14,-10.79,2.54,-16.49,0.0,0.0,0.0,0.045,-29.27,7.29,100.37,-31.55,14.77,84.55,-15.91,6.59,110.57,32.17,-14.94,111.36,-22.76,-11.43,103.1,-30.85,-14.33,111.88,-33.18,7.86,106.72,-35.0,5.04,85.45,-10.55,10.51,117.56,35.0,-21.51,118.01,-30.0,-17.02,103.37,-33.09,-21.33,118.98,-1.0,1.0,0.8599,-1.0,-0.6786,0.2406,-0.4546,0.4189,1.0,1.0,-0.5531,1.0,-1.0,-1.0,0.9277,-1.0,-1.0,0.832,0.006,0.0,0.013,0.026,0.0,0.013,0.013,0.033,0.006,0.039,0.0,0.019,0.019,0.0,0.013,0.019,0.019,0.013,-0.4801,-0.1963,0.3359,-0.5308,-0.0291,0.0936,-0.2991,-0.2347,0.4832,0.5354,-0.54,0.543,-0.3743,-0.5062,0.4142,-0.5262,-0.5338,0.5323,-0.2607,-0.2874,0.3025,-0.3046,0.0862,0.0743,0.0059,-0.0962,0.2933,0.3054,-0.3113,0.3087,-0.3033,-0.3134,0.1983,-0.2433,-0.3079,0.3101,-0.4664,-0.0353,-0.0579,0.0967,-0.2905,-1.0,1.0,0.8762,-1.0,-0.8893,1.0,0.1005,0.1565,1.0,1.0,-0.4274,1.0,-1.0,-1.0,0.5371,-1.0,-1.0,1.0,0.0,0.0,0.0,0.0,0.0,0.0,0.0,0.0,0.0,0.0,0.0,0.0,0.0,0
1.04,run,-4.62,3.19,-7.46,1.84,-5.64,0.0,0.002,0.0,0.045,-30.23,6.15,101.78,-32.78,13.89,85.43,-14.68,7.38,112.06,33.22,-16.35,112.85,-24.08,-12.92,102.83,-31.46,-16.08,113.29,-34.68,9.36,108.22,-35.0,3.54,86.95,-12.05,9.01,119.06,35.0,-23.01,116.51,-31.5,-18.52,101.87,-34.59,-22.83,120.48,-1.0,1.0,0.6608,-1.0,-0.0804,1.0,-0.4761,0.4119,1.0,1.0,-0.0483,0.1694,-1.0,-1.0,0.0515,-1.0,-1.0,0.6734,0.006,0.0,0.013,0.026,0.0,0.013,0.013,0.033,0.006,0.039,0.0,0.019,0.019,0.0,0.013,0.019,0.019,0.013,-0.5077,-0.2194,0.3605,-0.5568,-0.0383,0.1043,-0.2777,-0.2255,0.5062,0.5599,-0.566,0.5645,-0.3973,-0.5308,0.4142,-0.5369,-0.5584,0.5568,-0.2863,-0.2877,0.304,-0.3113,0.0258,0.0924,0.0849,-0.0327,0.2918,0.3061,-0.3159,0.2969,-0.2989,-0.3117,0.1388,-0.2107,-0.3078,0.3094,-0.5062,-0.0307,-0.1884,0.0443,-0.2877,-1.0,1.0,0.8599,-1.0,-0.6786,0.2406,-0.4546,0.4189,1.0,1.0,-0.5531,1.0,-1.0,-1.0,0.9277,-1.0,-1.0,0.832,0.0,0.0,0.0,0.0,0.0,0.0,0.0,0.0,0.0,0.0133,0.0,0.0133,0.0,0
1.08,run,-4.79,3.2,-2.75,2.65,-6.64,0.0,0.004,0.0,0.058,-31.82,5.36,103.18,-34.19,12.74,86.13,-13.36,8.17,113.12,33.93,-17.75,114.08,-25.4,-14.33,102.48,-32.26,-17.49,114.7,-35.0,10.86,106.72,-35.0,5.04,88.28,-10.55,7.51,120.56,35.0,-21.51,115.01,-33.0,-20.02,103.37,-35.0,-24.33,118.98,-1.0,1.0,-0.1727,-1.0,0.66,0.2739,0.3049,-1.0,1.0,1.0,0.2298,-0.0454,-1.0,-1.0,1.0,-1.0,-1.0,0.025,0.0,0.0,0.026,0.006,0.0,0.013,0.013,0.058,0.026,0.019,0.0,0.019,0.039,0.0,0.026,0.019,0.019,0.006,-0.5246,-0.2393,0.385,-0.5783,-0.0537,0.1197,-0.2562,-0.2117,0.5323,0.5783,-0.5906,0.5906,-0.4203,-0.5568,0.4096,-0.5476,-0.589,0.5814,-0.2634,-0.2758,0.3044,-0.298,-0.0392,0.1219,0.1396,0.0286,0.3016,0.283,-0.3128,0.3051,-0.2951,-0.3155,0.08,-0.1875,-0.33,0.3082,-0.5378,-0.0268,-0.1302,0.0322,-0.0984,-1.0,1.0,0.6608,-1.0,-0.0804,1.0,-0.4761,0.4119,1.0,1.0,-0.0483,0.1694,-1.0,-1.0,0.0515,-1.0,-1.0,0.6734,0.0,0.0,0.0,0.0,0.0,0.0,0.0,0.0,0.0,0.0267,0.0,0.0267,0.0,0
1.12,run,-4.56,2.56,1.36,-4.06,6.32,0.0,0.006,0.0,0.208,-34.89,4.66,106.96,-34.72,7.65,87.98,-11.16,8.44,118.74,34.72,-21.53,116.28,-31.29,-19.95,103.97,-34.8,-22.85,118.48,-35.0,12.36,105.22,-35.0,3.54,86.78,-12.05,6.01,122.06,35.0,-20.01,116.51,-34.5,-21.52,104.87,-33.5,-25.83,117.48,-1.0,1.0,0.2821,-1.0,-0.2814,-1.0,-1.0,-1.0,1.0,1.0,1.0,1.0,-1.0,-1.0,1.0,-0.6233,-1.0,-1.0,0.006,0.208,0.0,0.0,0.006,0.019,0.006,0.0,0.033,0.013,0.006,0.006,0.019,0.0,0.013,0.006,0.013,0.0,-0.5522,-0.2531,0.4096,-0.6029,-0.0736,0.1319,-0.2332,-0.1979,0.5507,0.5906,-0.6151,0.6121,-0.4433,-0.5814,0.4034,-0.5614,-0.6136,0.6059,-0.2882,-0.245,0.3054,-0.3009,-0.1024,0.1315,0.1842,0.0719,0.2803,0.2442,-0.3112,0.2943,-0.2931,-0.3131,0.0329,-0.1832,-0.3233,0.308,-0.5519,-0.0254,-0.048,0.0462,-0.1159,-1.0,1.0,-0.1727,-1.0,0.66,0.2739,0.3049,-1.0,1.0,1.0,0.2298,-0.0454,-1.0,-1.0,1.0,-1.0,-1.0,0.025,0.0,0.0,0.0,0.0,0.0,0.0,0.0,0.0,0.0,0.04,0.0,0.04,0.0,0
1.16,run,-4.49,2.35,3.99,-8.17,9.37,0.0,0.008,0.0,0.208,-34.89,4.83,107.05,-34.72,6.42,87.8,-11.25,7.56,119.53,34.72,-21.71,116.37,-32.34,-20.57,104.33,-34.72,-23.73,118.56,-35.0,10.86,103.72,-35.0,2.04,85.28,-13.55,4.51,123.56,35.0,-18.51,115.01,-35.0,-23.02,106.37,-32.0,-27.33,115.98,-1.0,-1.0,-0.25,-1.0,-0.5458,0.0737,-1.0,-0.8445,1.0,1.0,1.0,-1.0,-1.0,-1.0,1.0,1.0,-1.0,-1.0,0.006,0.208,0.0,0.0,0.006,0.019,0.006,0.0,0.033,0.013,0.006,0.006,0.019,0.0,0.013,0.006,0.013,0.0,-0.6059,-0.2654,0.4755,-0.6121,-0.1626,0.1641,-0.1948,-0.1933,0.6489,0.6044,-0.6811,0.6504,-0.5461,-0.6796,0.4295,-0.6059,-0.7072,0.6719,-0.2499,-0.1825,0.273,-0.2189,-0.1515,0.1209,0.1634,0.0545,0.2843,0.1833,-0.277,0.2404,-0.2974,-0.3073,0.0465,-0.1681,-0.3102,0.2748,-0.5324,-0.0811,0.0237,-0.0708,0.1104,-1.0,1.0,0.2821,-1.0,-0.2814,-1.0,-1.0,-1.0,1.0,1.0,1.0,1.0,-1.0,-1.0,1.0,-0.6233,-1.0,-1.0,0.0,0.0,0.0,0.0,0.0,0.0,0.0,0.0,0.0,0.0533,0.0,0.0533,0.0,0
1.2,run,-4.7,2.05,-2.91,-7.54,4.23,0.0,0.01,0.0,0.208,-34.8,5.8,107.05,-34.72,5.36,86.92,-11.34,6.59,120.41,34.8,-21.71,116.28,-33.22,-21.36,104.68,-33.93,-24.61,118.56,-35.0,9.36,102.22,-35.0,3.54,86.78,-12.05,3.01,125.06,35.0,-17.01,113.51,-35.0,-24.52,107.87,-30.5,-25.83,114.48,-1.0,-1.0,0.0255,-1.0,1.0,1.0,1.0,-0.9474,1.0,1.0,1.0,-1.0,-1.0,-1.0,1.0,1.0,0.9402,-1.0,0.006,0.208,0.0,0.0,0.006,0.019,0.006,0.0,0.033,0.013,0.006,0.006,0.019,0.0,0.013,0.006,0.013,0.0,-0.6059,-0.2623,0.4771,-0.6121,-0.1841,0.1611,-0.1963,-0.2086,0.6627,0.6044,-0.6842,0.6519,-0.5645,-0.6903,0.4357,-0.6044,-0.7225,0.6734,-0.1749,-0.1133,0.1983,-0.1532,-0.2074,0.0702,0.1071,-0.0342,0.2642,0.1283,-0.2084,0.1756,-0.295,-0.2658,0.0615,-0.1105,-0.2895,0.1996,-0.5264,-0.0999,0.0696,-0.1426,0.1635,-1.0,-1.0,-0.25,-1.0,-0.5458,0.0737,-1.0,-0.8445,1.0,1.0,1.0,-1.0,-1.0,-1.0,1.0,1.0,-1.0,-1.0,0.0,0.0,0.0,0.0,0.0,0.0,0.0,0.0,0.0,0.0667,0.0,0.0667,0.0,0
1.24,run,-4.73,1.54,1.65,-13.19,4.49,0.0,0.012,0.0,0.208,-34.8,6.77,106.44,-34.63,4.31,86.31,-11.87,5.36,121.38,34.8,-21.62,116.02,-34.1,-22.15,105.29,-32.96,-25.31,118.3,-35.0,7.86,100.72,-35.0,5.04,88.28,-10.55,1.51,126.56,35.0,-15.51,112.01,-35.0,-26.02,109.37,-29.0,-24.33,112.98,-1.0,-1.0,-0.087,-1.0,1.0,1.0,1.0,-1.0,1.0,1.0,1.0,-1.0,-1.0,-1.0,1.0,1.0,1.0,-1.0,0.006,0.175,0.006,0.006,0.006,0.006,0.006,0.0,0.033,0.006,0.13,0.013,0.006,0.033,0.019,0.019,0.019,0.026,-0.6044,-0.2454,0.4771,-0.6121,-0.2025,0.1457,-0.1979,-0.2255,0.678,0.6059,-0.6842,0.6504,-0.5798,-0.7041,0.4418,-0.5906,-0.7378,0.6734,-0.1168,-0.0167,0.1388,-0.1073,-0.2134,-0.0077,0.0693,-0.0865,0.2418,0.0955,-0.1459,0.1172,-0.2634,-0.2372,0.0658,-0.0261,-0.2595,0.1397,-0.5443,-0.1263,-0.0508,-0.1316,0.0739,-1.0,-1.0,0.0255,-1.0,1.0,1.0,1.0,-0.9474,1.0,1.0,1.0,-1.0,-1.0,-1.0,1.0,1.0,0.9402,-1.0,0.0,0.0,0.0,0.0,0.0,0.0,0.0,0.0,0.0,0.08,0.0,0.08,0.0,0
1.28,run,-4.43,1.04,10.48,-13.06,6.95,0.0,0.014,0.0,0.208,-34.8,7.65,105.47,-34.63,3.52,86.13,-12.13,3.96,122.61,34.89,-21.01,115.22,-34.72,-23.12,106.17,-31.82,-25.84,117.16,-35.0,6.36,99.22,-35.0,6.54,89.78,-9.05,0.01,128.06,35.0,-14.01,110.51,-35.0,-27.52,110.87,-27.5,-22.83,111.48,-1.0,-1.0,0.4009,-1.0,1.0,1.0,1.0,-0.0496,1.0,1.0,1.0,-1.0,-1.0,-1.0,1.0,1.0,1.0,-1.0,0.006,0.175,0.006,0.006,0.006,0.006,0.006,0.0,0.033,0.006,0.13,0.013,0.006,0.033,0.019,0.019,0.019,0.026,-0.6044,-0.2286,0.4663,-0.6105,-0.2209,0.135,-0.2071,-0.247,0.6949,0.6059,-0.6826,0.6458,-0.5952,-0.7179,0.4525,-0.5737,-0.7501,0.6688,-0.0817,0.0515,0.057,-0.0693,-0.2183,-0.0456,0.014,-0.141,0.2324,0.0669,-0.0964,0.0648,-0.2418,-0.2178,0.0863,0.0449,-0.2276,0.0806,-0.5474,-0.1702,0.0288,-0.2303,0.0784,-1.0,-1.0,-0.087,-1.0,1.0,1.0,1.0,-1.0,1.0,1.0,1.0,-1.0,-1.0,-1.0,1.0,1.0,1.0,-1.0,0.0,0.0,0.0,0.0,0.0,0.0,0.0,0.0,0.0,0.0933,0.0,0.0933,0.0,0
1.32,run,-3.93,0.69,15.95,-9.37,7.64,0.0,0.016,0.0,0.208,-34.8,8.17,104.33,-34.8,2.99,86.4,-12.13,2.81,123.93,35.16,-19.95,114.26,-34.89,-24.52,107.4,-30.5,-26.02,115.84,-35.0,4.86,100.72,-35.0,8.04,91.28,-7.55,-1.49,129.56,35.0,-12.51,109.01,-35.0,-29.02,109.37,-26.0,-21.33,109.98,-1.0,-1.0,0.5827,-1.0,1.0,1.0,1.0,-0.0905,1.0,1.0,1.0,-1.0,-1.0,-0.6196,0.4101,1.0,1.0,-1.0,0.006,0.175,0.006,0.006,0.006,0.006,0.006,0.0,0.033,0.006,0.13,0.013,0.006,0.033,0.019,0.019,0.019,0.026,-0.6044,-0.2132,0.4495,-0.6105,-0.2347,0.1319,-0.2117,-0.2715,0.7164,0.6075,-0.6719,0.632,-0.6059,-0.7348,0.4679,-0.5538,-0.7593,0.6489,-0.0572,0.0939,-0.0238,-0.0485,-0.2049,-0.0435,-0.0075,-0.1913,0.2438,0.0526,-0.0269,-0.0067,-0.2098,-0.2161,0.1183,0.1067,-0.1941,-0.0189,-0.5208,-0.2137,0.1829,-0.228,0.1213,-1.0,-1.0,0.4009,-1.0,1.0,1.0,1.0,-0.0496,1.0,1.0,1.0,-1.0,-1.0,-1.0,1.0,1.0,1.0,-1.0,0.0,0.0,0.0,0.0,0.0,0.0,0.0,0.0,0.0,0.1067,0.0,0.1067,0.0,0
1.36,run,-3.22,0.24,19.76,-11.62,1.86,0.0,0.018,0.0,0.208,-34.8,8.44,102.92,-34.8,2.9,86.84,-11.95,1.32,125.33,35.16,-18.72,112.85,-34.8,-25.75,108.63,-29.18,-26.02,114.43,-35.0,3.36,102.22,-35.0,9.54,92.78,-6.05,-2.99,131.06,35.0,-11.01,107.51,-35.0,-27.52,107.87,-24.5,-19.83,108.48,-1.0,-1.0,0.8466,-1.0,1.0,1.0,1.0,-0.0704,1.0,1.0,1.0,-1.0,-1.0,0.2606,0.2407,1.0,1.0,-0.6342,0.006,0.111,0.0,0.0,0.0,0.006,0.019,0.0,0.019,0.006,0.123,0.006,0.006,0.013,0.006,0.013,0.006,0.019,-0.6044,-0.204,0.4295,-0.6136,-0.2439,0.1365,-0.2117,-0.2915,0.7394,0.6121,-0.6535,0.6151,-0.609,-0.7593,0.4893,-0.5308,-0.7624,0.6259,-0.0401,0.1004,-0.0917,-0.0455,-0.1781,-0.0131,-0.0053,-0.209,0.2572,0.0541,0.0504,-0.0682,-0.1584,-0.2437,0.1636,0.1613,-0.1474,-0.0998,-0.4773,-0.2447,0.2783,-0.1635,0.1334,-1.0,-1.0,0.5827,-1.0,1.0,1.0,1.0,-0.0905,1.0,1.0,1.0,-1.0,-1.0,-0.6196,0.4101,1.0,1.0,-1.0,0.0,0.0,0.0,0.0,0.0,0.0,0.0,0.0,0.0,0.12,0.0,0.12,0.0,0
1.4,run,-2.13,0.07,30.52,-5.1,-5.01,0.0,0.02,0.0,0.208,-34.8,8.44,101.87,-34.8,2.9,87.98,-11.43,-0.09,127.0,35.24,-17.14,111.27,-34.89,-26.98,109.6,-27.77,-25.66,113.12,-35.0,1.86,103.72,-35.0,11.04,94.28,-4.55,-1.49,132.56,33.5,-9.51,106.01,-33.5,-26.02,106.37,-23.0,-18.33,106.98,-1.0,-1.0,0.6171,-1.0,1.0,1.0,1.0,1.0,1.0,0.2379,1.0,-1.0,-0.6638,0.7513,-0.7091,1.0,1.0,0.0795,0.006,0.111,0.0,0.0,0.0,0.006,0.019,0.0,0.019,0.006,0.123,0.006,0.006,0.013,0.006,0.013,0.006,0.019,-0.6044,-0.1994,0.405,-0.6136,-0.2454,0.1442,-0.2086,-0.3175,0.7639,0.6121,-0.632,0.5906,-0.6075,-0.7808,0.5108,-0.5077,-0.7624,0.6013,-0.028,0.0874,-0.1556,-0.0319,-0.1304,0.0194,0.0077,-0.2434,0.2715,0.0379,0.1153,-0.1392,-0.1052,-0.2505,0.1945,0.1986,-0.1032,-0.1613,-0.4155,-0.2844,0.3448,-0.2028,0.0324,-1.0,-1.0,0.8466,-1.0,1.0,1.0,1.0,-0.0704,1.0,1.0,1.0,-1.0,-1.0,0.2606,0.2407,1.0,1.0,-0.6342,0.0,0.0,0.0,0.0,0.0,0.0,0.0,0.0,0.0,0.1333,0.0,0.1333,0.0,0
1.44,run,-1.71,-0.35,11.57,-11.2,-12.55,0.0,0.022,0.0,0.208,-34.8,8.53,100.99,-35.07,2.81,89.12,-10.02,-1.32,128.76,35.16,-15.73,109.86,-34.89,-27.86,110.13,-26.46,-24.87,111.62,-35.0,0.36,104.25,-35.0,12.54,95.78,-3.05,0.01,134.06,32.0,-8.01,104.51,-32.0,-24.52,104.87,-21.5,-16.83,108.48,-1.0,-1.0,0.4618,-1.0,0.8016,1.0,1.0,0.9255,1.0,-1.0,1.0,-1.0,-0.163,1.0,-0.1769,-0.1838,1.0,1.0,0.006,0.111,0.0,0.0,0.0,0.006,0.019,0.0,0.019,0.006,0.123,0.006,0.006,0.013,0.006,0.013,0.006,0.019,-0.6044,-0.1994,0.3866,-0.6136,-0.2454,0.1641,-0.1994,-0.3421,0.7931,0.6136,-0.6044,0.563,-0.609,-0.8023,0.5277,-0.4832,-0.7563,0.5783,-0.0196,0.0612,-0.1791,-0.0223,-0.0913,0.0895,0.0405,-0.2639,0.3011,0.0324,0.1859,-0.2026,-0.0795,-0.2572,0.2005,0.2325,-0.0489,-0.2006,-0.3198,-0.2986,0.5327,-0.0889,-0.0875,-1.0,-1.0,0.6171,-1.0,1.0,1.0,1.0,1.0,1.0,0.2379,1.0,-1.0,-0.6638,0.7513,-0.7091,1.0,1.0,0.0795,0.0,0.0,0.0,0.0,0.0,0.0,0.0,0.0,0.0,0.1467,0.0,0.1467,0.0,0
1.48,run,-1.49,-0.36,4.94,1.19,-11.38,0.0,0.024,0.0,0.208,-35.07,8.26,100.55,-35.42,4.04,90.53,-8.61,-2.02,129.9,34.72,-14.41,108.46,-34.63,-28.48,110.3,-25.05,-23.73,110.39,-35.0,-1.14,105.75,-35.0,14.04,97.28,-1.55,1.51,135.56,30.5,-9.51,103.01,-30.5,-23.02,103.37,-23.0,-15.33,109.98,-1.0,-1.0,0.5851,-1.0,1.0,1.0,1.0,1.0,1.0,-1.0,-0.3336,-1.0,0.8033,0.4232,-0.8793,-1.0,1.0,1.0,0.0,0.0,0.0,0.0,0.026,0.019,0.019,0.0,0.026,0.058,0.163,0.0,0.013,0.013,0.0,0.013,0.013,0.013,-0.6044,-0.1979,0.3712,-0.6182,-0.247,0.1841,-0.1749,-0.3636,0.8237,0.6121,-0.5798,0.5384,-0.609,-0.8176,0.5369,-0.4602,-0.7424,0.5522,-0.0137,0.0485,-0.1819,-0.0326,-0.0695,0.1362,0.1188,-0.2639,0.3238,0.017,0.2206,-0.2323,-0.0556,-0.2366,0.1742,0.2476,0.0167,-0.2365,-0.2836,-0.3353,0.2019,-0.1955,-0.2191,-1.0,-1.0,0.4618,-1.0,0.8016,1.0,1.0,0.9255,1.0,-1.0,1.0,-1.0,-0.163,1.0,-0.1769,-0.1838,1.0,1.0,0.0,0.0,0.0,0.0,0.0,0.0,0.0,0.0,0.0,0.16,0.0,0.16,0.0,0
1.52,run,-1.5,-0.41,-2.46,1.18,-5.8,0.0,0.026,0.0,0.208,-35.16,7.21,100.37,-35.42,5.19,91.93,-7.21,-2.64,130.69,34.19,-13.18,106.88,-33.57,-28.83,110.21,-23.73,-22.41,109.25,-35.0,-2.64,104.25,-35.0,15.54,95.78,-0.05,3.01,137.06,29.0,-11.01,101.51,-29.0,-24.52,104.87,-24.5,-13.83,111.48,-1.0,-1.0,-0.5642,-1.0,1.0,0.193,1.0,0.8334,1.0,-1.0,-1.0,-1.0,1.0,-0.3402,0.9054,-1.0,1.0,1.0,0.0,0.0,0.0,0.0,0.026,0.019,0.019,0.0,0.026,0.058,0.163,0.0,0.013,0.013,0.0,0.013,0.013,0.013,-0.609,-0.2025,0.3636,-0.6243,-0.2255,0.2086,-0.1503,-0.3758,0.8437,0.6044,-0.5568,0.5139,-0.6044,-0.8283,0.54,-0.4357,-0.7225,0.5308,-0.0268,0.0168,-0.1559,-0.0457,0.0315,0.187,0.1748,-0.2305,0.3011,-0.0167,0.2403,-0.2542,-0.0218,-0.2057,0.1334,0.2649,0.0861,-0.2457,-0.2645,-0.3363,0.0862,0.0207,-0.1986,-1.0,-1.0,0.5851,-1.0,1.0,1.0,1.0,1.0,1.0,-1.0,-0.3336,-1.0,0.8033,0.4232,-0.8793,-1.0,1.0,1.0,0.0,0.0,0.0,0.0,0.0,0.0,0.0,0.0,0.0,0.1733,0.0,0.1733,0.0,0
1.56,run,-1.71,-0.3,-8.3,6.16,3.35,0.0,0.028,0.0,0.208,-35.16,5.98,100.46,-35.42,6.24,93.25,-5.71,-2.9,131.84,33.22,-12.22,105.38,-32.61,-28.48,109.51,-22.76,-21.01,108.46,-35.0,-4.14,102.75,-33.5,14.04,94.28,1.45,4.51,138.56,27.5,-12.51,100.01,-27.5,-26.02,106.37,-26.0,-12.33,112.98,-1.0,-1.0,-0.5259,0.7518,-0.54,0.1232,1.0,0.8111,1.0,-1.0,-1.0,-1.0,1.0,-1.0,1.0,-1.0,0.3,1.0,0.0,0.0,0.0,0.0,0.026,0.019,0.019,0.0,0.026,0.058,0.163,0.0,0.013,0.013,0.0,0.013,0.013,0.013,-0.6105,-0.2209,0.3605,-0.6243,-0.2056,0.2332,-0.1258,-0.3866,0.8575,0.5952,-0.5354,0.4863,-0.586,-0.8345,0.5384,-0.4126,-0.6995,0.5108,-0.0245,-0.0575,-0.1207,-0.032,0.0971,0.2232,0.2146,-0.2017,0.2627,-0.0463,0.249,-0.2818,0.054,-0.1671,0.0876,0.272,0.1468,-0.247,-0.2654,-0.3403,-0.0429,0.0206,-0.1012,-1.0,-1.0,-0.5642,-1.0,1.0,0.193,1.0,0.8334,1.0,-1.0,-1.0,-1.0,1.0,-0.3402,0.9054,-1.0,1.0,1.0,0.0,0.0,0.0,0.0,0.0,0.0,0.0,0.0,0.0,0.1867,0.0,0.1867,0.0,0
1.6,run,-1.81,0.06,-4.64,11.55,9.93,0.0,0.03,0.0,0.208,-35.24,4.66,100.99,-35.16,7.29,94.22,-4.31,-2.99,132.98,32.26,-11.6,103.97,-31.29,-28.12,108.46,-22.15,-19.6,107.93,-35.0,-5.64,101.25,-32.0,12.54,95.78,2.95,3.01,140.06,26.0,-14.01,98.51,-26.0,-27.52,107.87,-27.5,-13.83,114.48,-1.0,-1.0,-0.2333,1.0,-0.1924,1.0,1.0,-0.5728,1.0,-1.0,-1.0,-1.0,1.0,-1.0,1.0,-1.0,-0.3131,1.0,0.013,0.0,0.013,0.019,0.104,0.019,0.013,0.019,0.104,0.195,0.136,0.0,0.006,0.006,0.006,0.013,0.013,0.0,-0.6105,-0.2424,0.362,-0.6243,-0.1871,0.2562,-0.0997,-0.3912,0.8774,0.5783,-0.5185,0.4602,-0.5691,-0.8283,0.5262,-0.3958,-0.675,0.497,-0.0172,-0.121,-0.0787,-0.0224,0.1372,0.2428,0.2483,-0.1585,0.2589,-0.0959,0.2377,-0.2953,0.1013,-0.0939,0.0152,0.2538,0.1951,-0.2248,-0.2831,-0.3307,-0.1448,0.1075,0.0585,-1.0,-1.0,-0.5259,0.7518,-0.54,0.1232,1.0,0.8111,1.0,-1.0,-1.0,-1.0,1.0,-1.0,1.0,-1.0,0.3,1.0,0.0,0.0,0.0,0.0,0.0,0.0,0.0,0.0,0.0,0.2,0.0,0.2,0.0,0
1.64,run,-1.97,0.49,-3.74,12.81,12.84,0.0,0.032,0.0,0.208,-35.24,3.34,101.6,-34.63,8.53,95.01,-2.81,-2.37,134.03,30.67,-11.07,102.66,-29.79,-27.25,107.58,-21.71,-18.72,107.75,-35.0,-7.14,99.75,-30.5,11.04,94.28,4.45,1.51,141.56,24.5,-15.51,97.01,-24.5,-29.02,109.37,-29.0,-15.33,115.98,-1.0,-1.0,-1.0,1.0,-0.8789,0.2477,1.0,-1.0,1.0,-1.0,-1.0,-1.0,1.0,-1.0,1.0,-1.0,-1.0,1.0,0.013,0.0,0.013,0.019,0.104,0.019,0.013,0.019,0.104,0.195,0.136,0.0,0.006,0.006,0.006,0.013,0.013,0.0,-0.6121,-0.2654,0.3712,-0.6197,-0.1687,0.273,-0.0752,-0.3927,0.8974,0.5614,-0.5077,0.4357,-0.5461,-0.8222,0.5077,-0.385,-0.6504,0.4878,-0.0178,-0.1707,-0.0207,0.0015,0.1648,0.233,0.2656,-0.1167,0.2558,-0.1302,0.2066,-0.2985,0.1569,-0.0428,-0.0582,0.2178,0.2283,-0.1918,-0.2922,-0.2999,-0.081,0.2017,0.1732,-1.0,-1.0,-0.2333,1.0,-0.1924,1.0,1.0,-0.5728,1.0,-1.0,-1.0,-1.0,1.0,-1.0,1.0,-1.0,-0.3131,1.0,0.0,0.0,0.0,0.0,0.0,0.0,0.0,0.0,0.0,0.2133,0.0,0.2133,0.0,0
1.68,run,-1.87,0.8,4.21,7.19,5.4,0.0,0.034,0.0,0.208,-35.24,2.11,102.13,-33.75,9.49,95.27,-1.41,-1.76,135.0,29.18,-10.99,101.16,-28.39,-27.07,106.88,-21.71,-17.4,107.93,-35.0,-8.64,98.25,-29.0,9.54,95.78,5.95,0.01,143.06,23.0,-17.01,95.51,-23.0,-30.52,110.87,-30.5,-16.83,117.48,-1.0,-1.0,-1.0,1.0,-1.0,1.0,1.0,-1.0,1.0,-1.0,-1.0,-1.0,1.0,-1.0,1.0,-1.0,-1.0,1.0,0.013,0.0,0.013,0.019,0.104,0.019,0.013,0.019,0.104,0.195,0.136,0.0,0.006,0.006,0.006,0.013,0.013,0.0,-0.6121,-0.2884,0.382,-0.6105,-0.1473,0.2869,-0.0491,-0.382,0.9158,0.5338,-0.4985,0.4126,-0.52,-0.8069,0.4924,-0.3774,-0.6351,0.4847,-0.0124,-0.2063,0.026,0.0358,0.1964,0.2152,0.2843,-0.0412,0.2485,-0.1953,0.1793,-0.2958,0.2082,0.028,-0.0986,0.1814,0.2177,-0.1458,-0.3058,-0.2618,-0.0653,0.2235,0.2241,-1.0,-1.0,-1.0,1.0,-0.8789,0.2477,1.0,-1.0,1.0,-1.0,-1.0,-1.0,1.0,-1.0,1.0,-1.0,-1.0,1.0,0.0,0.0,0.0,0.0,0.0,0.0,0.0,0.0,0.0,0.2267,0.0,0.2267,0.0,0
1.72,run,-1.97,0.79,1.25,1.69,-5.7,0.0,0.036,0.0,0.429,-35.24,0.88,102.22,-32.78,10.11,95.36,0.0,-1.05,135.62,27.77,-10.9,99.93,-27.07,-27.25,106.52,-22.32,-16.17,108.46,-35.0,-10.14,96.75,-27.5,8.04,97.28,7.45,-1.49,144.56,21.5,-18.51,94.01,-21.5,-32.02,112.37,-32.0,-18.33,118.98,-1.0,-1.0,-1.0,1.0,-1.0,1.0,1.0,-1.0,1.0,-1.0,-1.0,0.1418,1.0,-1.0,1.0,-1.0,-1.0,1.0,0.006,0.006,0.006,0.026,0.136,0.033,0.013,0.033,0.429,0.149,0.026,0.0,0.019,0.013,0.006,0.006,0.026,0.006,-0.6121,-0.3099,0.3912,-0.5952,-0.1304,0.2915,-0.0245,-0.3712,0.9327,0.5077,-0.497,0.3866,-0.4955,-0.8038,0.4801,-0.3774,-0.6121,0.4878,-0.0087,-0.2247,0.0526,0.0824,0.2005,0.1678,0.2907,0.0113,0.237,-0.2341,0.1313,-0.3045,0.2374,0.031,-0.1149,0.127,0.2383,-0.0906,-0.2977,-0.2353,0.0736,0.1254,0.0942,-1.0,-1.0,-1.0,1.0,-1.0,1.0,1.0,-1.0,1.0,-1.0,-1.0,-1.0,1.0,-1.0,1.0,-1.0,-1.0,1.0,0.0,0.0,0.0,0.0,0.0,0.0,0.0,0.0,0.0,0.24,0.0,0.24,0.0,0
1.76,run,-2.58,0.98,-12.01,2.93,-4.94,0.0,0.038,0.0,0.429,-35.24,-0.44,102.13,-31.55,10.55,95.54,1.41,-0.7,136.32,26.02,-10.9,98.35,-25.49,-27.86,106.7,-23.12,-15.56,109.51,-35.0,-11.64,95.25,-26.0,6.54,98.78,8.95,-2.99,146.06,20.0,-20.01,92.51,-20.0,-33.52,113.87,-33.5,-19.83,120.48,-1.0,-1.0,-1.0,1.0,-1.0,1.0,1.0,-1.0,1.0,-1.0,-1.0,-0.2101,1.0,-1.0,1.0,-1.0,-1.0,1.0,0.006,0.006,0.006,0.026,0.136,0.033,0.013,0.033,0.429,0.149,0.026,0.0,0.019,0.013,0.006,0.006,0.026,0.006,-0.6121,-0.3313,0.3927,-0.5783,-0.1197,0.293,0.0,-0.359,0.9434,0.4832,-0.4955,0.3651,-0.4725,-0.8069,0.474,-0.3881,-0.5906,0.497,-0.0061,-0.2377,0.0426,0.1209,0.1806,0.1232,0.2955,0.0539,0.2061,-0.2559,0.0976,-0.2936,0.2524,0.0102,-0.1034,0.0487,0.2473,-0.0289,-0.3058,-0.2359,0.0219,0.0295,-0.0995,-1.0,-1.0,-1.0,1.0,-1.0,1.0,1.0,-1.0,1.0,-1.0,-1.0,0.1418,1.0,-1.0,1.0,-1.0,-1.0,1.0,0.0,0.0,0.0,0.0,0.0,0.0,0.0,0.0,0.0,0.2533,0.0,0.2533,0.0,0
1.8,run,-2.89,1.08,-5.72,2.03,-7.96,0.0,0.04,0.0,0.429,-35.07,-1.76,101.34,-30.32,10.81,95.98,2.64,-0.7,136.85,24.61,-11.43,96.94,-24.17,-28.74,107.31,-24.26,-15.21,110.74,-35.0,-13.14,93.75,-24.5,5.04,100.28,10.45,-4.49,147.56,18.5,-21.51,91.01,-18.5,-35.02,115.37,-35.0,-21.33,121.98,-1.0,-1.0,-1.0,1.0,-1.0,1.0,1.0,-1.0,1.0,0.0221,-1.0,-0.2439,1.0,-1.0,1.0,-1.0,-1.0,1.0,0.006,0.006,0.006,0.026,0.136,0.033,0.013,0.033,0.429,0.149,0.026,0.0,0.019,0.013,0.006,0.006,0.026,0.006,-0.6121,-0.3543,0.3912,-0.5568,-0.112,0.2961,0.0245,-0.3528,0.9557,0.4525,-0.4955,0.3375,-0.4449,-0.8176,0.4771,-0.4019,-0.5798,0.5154,-0.0043,-0.2531,0.024,0.1655,0.1553,0.0978,0.2993,0.0608,0.1905,-0.2947,0.0683,-0.3096,0.2808,-0.0333,-0.0608,-0.018,0.2136,0.0491,-0.3596,-0.2193,-0.2097,0.0511,-0.0863,-1.0,-1.0,-1.0,1.0,-1.0,1.0,1.0,-1.0,1.0,-1.0,-1.0,-0.2101,1.0,-1.0,1.0,-1.0,-1.0,1.0,0.0,0.0,0.0,0.0,0.0,0.0,0.0,0.0,0.0,0.2667,0.0,0.2667,0.0,0
1.84,run,-3.27,1.02,-6.89,-0.62,-2.82,0.0,0.042,0.0,1.293,-35.16,-2.81,100.72,-29.09,10.81,96.77,4.04,-0.7,137.37,23.12,-12.57,95.54,-22.76,-29.88,108.28,-25.58,-15.12,111.97,-35.0,-14.64,92.25,-23.0,3.54,101.78,11.95,-5.99,149.06,17.0,-23.01,92.51,-17.0,-36.52,116.87,-35.0,-22.83,123.48,-1.0,-1.0,-1.0,1.0,-1.0,1.0,1.0,-1.0,1.0,0.1547,-1.0,0.5437,1.0,-1.0,1.0,-1.0,-1.0,1.0,0.006,0.019,0.026,0.045,0.013,0.052,0.019,0.0,1.293,0.058,0.0,0.0,0.013,0.026,0.013,0.019,0.013,0.013,-0.609,-0.3774,0.3774,-0.5354,-0.1074,0.3037,0.046,-0.3528,0.9649,0.428,-0.5047,0.3129,-0.4218,-0.833,0.4878,-0.4218,-0.5737,0.5369,0.0085,-0.2631,-0.0347,0.1961,0.1259,0.0971,0.2897,0.0426,0.1677,-0.298,0.0135,-0.3083,0.2824,-0.0806,-0.0025,-0.087,0.1724,0.1146,-0.3864,-0.2108,-0.0999,0.0355,-0.1389,-1.0,-1.0,-1.0,1.0,-1.0,1.0,1.0,-1.0,1.0,0.0221,-1.0,-0.2439,1.0,-1.0,1.0,-1.0,-1.0,1.0,0.0,0.0,0.0,0.0,0.0,0.0,0.0,0.0,0.0,0.28,0.0,0.28,0.0,0
1.88,run,-4.09,0.86,-18.81,-5.55,-2.65,0.0,0.044,0.0,1.293,-34.98,-4.39,99.32,-27.77,10.81,97.82,5.54,-1.32,137.46,21.62,-13.89,94.31,-21.36,-31.38,109.34,-26.98,-15.12,113.47,-35.0,-16.14,90.75,-21.5,2.04,103.28,13.45,-7.49,147.56,18.5,-24.51,94.01,-15.5,-38.02,118.37,-35.0,-24.33,124.98,-1.0,-0.3375,-1.0,1.0,-1.0,1.0,1.0,-1.0,0.8657,0.6237,-1.0,0.4188,1.0,-1.0,1.0,-1.0,-1.0,1.0,0.006,0.019,0.026,0.045,0.013,0.052,0.019,0.0,1.293,0.058,0.0,0.0,0.013,0.026,0.013,0.019,0.013,0.013,-0.6105,-0.3958,0.3666,-0.5139,-0.1074,0.3175,0.0706,-0.3528,0.9741,0.4019,-0.5246,0.2884,-0.3973,-0.8529,0.5047,-0.4449,-0.5722,0.5584,0.0002,-0.2531,-0.0645,0.2176,0.0881,0.1196,0.2946,0.0298,0.1519,-0.3061,-0.0652,-0.3077,0.2896,-0.131,0.0614,-0.147,0.1264,0.1606,-0.4192,-0.2157,-0.1203,-0.0109,-0.0493,-1.0,-1.0,-1.0,1.0,-1.0,1.0,1.0,-1.0,1.0,0.1547,-1.0,0.5437,1.0,-1.0,1.0,-1.0,-1.0,1.0,0.0,0.0,0.0,0.0,0.0,0.0,0.0,0.0,0.0,0.2933,0.0,0.2933,0.0,0
1.92,run,-4.65,0.8,-13.75,-3.48,-6.51,0.0,0.046,0.0,1.293,-35.07,-5.8,97.82,-26.37,10.02,99.23,6.94,-2.29,137.64,20.21,-15.21,93.25,-19.95,-32.7,110.83,-28.3,-15.64,114.43,-35.0,-14.64,89.25,-20.0,0.54,104.78,14.95,-8.99,146.06,20.0,-26.01,92.51,-14.0,-39.52,119.87,-35.0,-25.83,126.48,-1.0,0.3341,-1.0,1.0,-1.0,1.0,1.0,-0.3339,0.2326,0.9287,-1.0,0.1249,1.0,-1.0,0.7915,-1.0,-1.0,1.0,0.006,0.019,0.026,0.045,0.013,0.052,0.019,0.0,1.293,0.058,0.0,0.0,0.013,0.026,0.013,0.019,0.013,0.013,-0.6075,-0.4234,0.3421,-0.4909,-0.1074,0.3359,0.0966,-0.3636,0.9756,0.3758,-0.5476,0.2669,-0.3728,-0.879,0.5231,-0.4694,-0.5722,0.5844,0.0117,-0.2814,-0.1378,0.2392,0.0617,0.1532,0.3047,-0.0197,0.1121,-0.3127,-0.1325,-0.2964,0.2953,-0.1902,0.1125,-0.1956,0.0885,0.2108,-0.4914,-0.2301,-0.3283,-0.0968,-0.0462,-1.0,-0.3375,-1.0,1.0,-1.0,1.0,1.0,-1.0,0.8657,0.6237,-1.0,0.4188,1.0,-1.0,1.0,-1.0,-1.0,1.0,0.0,0.0,0.0,0.0,0.0,0.0,0.0,0.0,0.0,0.3067,0.0,0.3067,0.0,0
1.96,run,-4.68,0.85,-0.54,3.03,-12.08,0.0,0.048,0.0,2.736,-35.07,-7.21,96.33,-24.96,8.88,100.63,8.35,-3.43,137.72,19.07,-16.52,92.81,-18.54,-34.1,112.24,-29.71,-16.52,116.02,-35.0,-13.14,87.75,-18.5,-0.96,106.28,16.45,-7.49,144.56,21.5,-27.51,91.01,-12.5,-41.02,118.37,-35.0,-27.33,127.98,-1.0,1.0,-1.0,1.0,-1.0,1.0,1.0,0.6225,-1.0,0.7372,-1.0,0.1325,1.0,-1.0,0.4776,-1.0,-1.0,1.0,0.0,0.026,0.013,0.033,0.0,0.058,0.019,0.0,2.736,0.013,0.0,0.006,0.013,0.019,0.006,0.019,0.0,0.006,-0.609,-0.4479,0.316,-0.4663,-0.1212,0.3605,0.1212,-0.3804,0.9787,0.3513,-0.5706,0.2485,-0.3482,-0.902,0.5492,-0.4924,-0.5814,0.6013,0.0025,-0.2886,-0.1939,0.2591,-0.0084,0.1989,0.305,-0.0768,0.0899,-0.3106,-0.1787,-0.2763,0.2984,-0.2191,0.1761,-0.2228,0.0276,0.2106,-0.5404,-0.2354,-0.2399,-0.0607,-0.1136,-1.0,0.3341,-1.0,1.0,-1.0,1.0,1.0,-0.3339,0.2326,0.9287,-1.0,0.1249,1.0,-1.0,0.7915,-1.0,-1.0,1.0,0.0,0.0,0.0,0.0,0.0,0.0,0.0,0.0,0.0,0.32,0.0,0.32,0.0,0
2.1,tail,-4.59,3.14,0.73,17.74,3.34,,0.0,0.0,2.736,-34.8,-9.76,93.96,-23.38,3.69,101.95,10.46,-7.56,131.57,17.93,-20.13,90.7,-15.64,-35.95,115.75,-31.82,-24.08,119.18,,,,,,,,,,,,,,,,,,,,,,,,,,,,,,,,,,,,,0.0,0.0,0.0,0.0,0.0,0.0,0.0,0.0,0.0,0.0,0.0,0.0,0.0,0.0,0.0,0.0,0.0,0.0,,,,,,,,,,,,,,,,,,,,,,,,,,,,,,,,,,,,,,,,,,,,,,,,,,,,,,,,,,,,,,,,,,,,,,,,,
2.2,tail,-4.81,4.0,-1.11,6.91,-3.07,,0.0,0.0,2.736,-34.63,-10.28,94.13,-23.38,0.0,101.43,10.46,-9.14,133.07,17.93,-20.65,90.0,-15.64,-36.65,116.46,-32.26,-34.37,119.27,,,,,,,,,,,,,,,,,,,,,,,,,,,,,,,,,,,,,0.0,0.0,0.0,0.0,0.0,0.0,0.0,0.0,0.0,0.0,0.0,0.0,0.0,0.0,0.0,0.0,0.0,0.0,,,,,,,,,,,,,,,,,,,,,,,,,,,,,,,,,,,,,,,,,,,,,,,,,,,,,,,,,,,,,,,,,,,,,,,,,
2.3,tail,-4.36,5.42,4.28,11.65,-3.01,,0.0,0.0,2.736,-34.54,-13.1,94.13,-23.38,-0.26,101.43,10.46,-9.23,133.07,17.93,-20.65,89.91,-15.64,-38.23,116.46,-32.26,-37.44,119.18,,,,,,,,,,,,,,,,,,,,,,,,,,,,,,,,,,,,,0.0,0.0,0.0,0.0,0.0,0.0,0.0,0.0,0.0,0.0,0.0,0.0,0.0,0.0,0.0,0.0,0.0,0.0,,,,,,,,,,,,,,,,,,,,,,,,,,,,,,,,,,,,,,,,,,,,,,,,,,,,,,,,,,,,,,,,,,,,,,,,,
2.4,tail,-4.55,6.35,-1.01,8.1,-4.62,,0.0,0.0,2.736,-34.54,-17.93,94.13,-23.38,-0.35,101.43,10.46,-9.23,133.07,17.93,-20.65,89.91,-15.64,-38.76,116.46,-32.26,-38.14,119.18,,,,,,,,,,,,,,,,,,,,,,,,,,,,,,,,,,,,,0.0,0.0,0.0,0.006,0.0,0.0,0.0,0.0,0.0,0.0,0.0,0.0,0.0,0.0,0.0,0.0,0.0,0.0,,,,,,,,,,,,,,,,,,,,,,,,,,,,,,,,,,,,,,,,,,,,,,,,,,,,,,,,,,,,,,,,,,,,,,,,,
2.5,tail,-4.67,6.26,-0.28,-0.72,-1.09,,0.0,0.0,2.736,-34.63,-19.51,94.13,-23.38,-0.35,101.43,10.46,-9.23,133.07,17.93,-20.65,89.91,-15.64,-38.76,116.46,-32.26,-38.23,119.18,,,,,,,,,,,,,,,,,,,,,,,,,,,,,,,,,,,,,0.0,0.0,0.0,0.0,0.0,0.0,0.0,0.0,0.0,0.0,0.0,0.0,0.0,0.0,0.0,0.0,0.0,0.0,,,,,,,,,,,,,,,,,,,,,,,,,,,,,,,,,,,,,,,,,,,,,,,,,,,,,,,,,,,,,,,,,,,,,,,,,
2.6,tail,-4.71,6.35,0.21,1.05,-0.19,,0.0,0.0,2.736,-34.63,-19.51,94.13,-23.38,-0.35,101.43,10.46,-9.23,133.07,17.84,-20.65,89.91,-15.64,-38.76,116.46,-32.26,-38.23,119.18,,,,,,,,,,,,,,,,,,,,,,,,,,,,,,,,,,,,,0.0,0.0,0.0,0.0,0.0,0.0,0.0,0.0,0.0,0.0,0.0,0.0,0.0,0.0,0.0,0.0,0.0,0.0,,,,,,,,,,,,,,,,,,,,,,,,,,,,,,,,,,,,,,,,,,,,,,,,,,,,,,,,,,,,,,,,,,,,,,,,,
2.7,tail,-4.83,6.35,-0.26,0.04,0.24,,0.0,0.0,2.736,-34.63,-19.51,94.13,-23.38,-0.35,101.43,10.46,-9.23,133.07,17.84,-20.65,89.91,-15.64,-38.76,116.46,-32.26,-38.23,119.18,,,,,,,,,,,,,,,,,,,,,,,,,,,,,,,,,,,,,0.0,0.0,0.0,0.0,0.0,0.0,0.0,0.0,0.0,0.006,0.0,0.0,0.0,0.0,0.0,0.0,0.0,0.0,,,,,,,,,,,,,,,,,,,,,,,,,,,,,,,,,,,,,,,,,,,,,,,,,,,,,,,,,,,,,,,,,,,,,,,,,
2.8,tail,-4.93,6.33,-0.25,-0.01,0.22,,0.0,0.0,2.736,-34.63,-19.51,94.13,-23.38,-0.35,101.43,10.46,-9.23,133.07,17.84,-20.65,89.91,-15.64,-38.76,116.46,-32.26,-38.23,119.18,,,,,,,,,,,,,,,,,,,,,,,,,,,,,,,,,,,,,0.0,0.0,0.0,0.0,0.0,0.0,0.0,0.0,0.0,0.0,0.0,0.0,0.0,0.0,0.0,0.0,0.0,0.0,,,,,,,,,,,,,,,,,,,,,,,,,,,,,,,,,,,,,,,,,,,,,,,,,,,,,,,,,,,,,,,,,,,,,,,,,
2.9,tail,-4.98,6.31,0.13,0.11,-0.24,,0.0,0.0,2.736,-34.63,-19.51,94.13,-23.38,-0.35,101.43,10.46,-9.23,133.07,17.84,-20.65,89.91,-15.64,-38.76,116.46,-32.26,-38.23,119.18,,,,,,,,,,,,,,,,,,,,,,,,,,,,,,,,,,,,,0.0,0.0,0.0,0.0,0.0,0.0,0.0,0.0,0.0,0.0,0.0,0.0,0.0,0.0,0.0,0.0,0.0,0.0,,,,,,,,,,,,,,,,,,,,,,,,,,,,,,,,,,,,,,,,,,,,,,,,,,,,,,,,,,,,,,,,,,,,,,,,,
3.0,tail,-5.05,6.29,-0.07,-0.03,-0.03,,0.0,0.0,2.736,-34.63,-19.51,94.13,-23.38,-0.35,101.43,10.46,-9.23,133.07,17.84,-20.65,89.91,-15.64,-38.76,116.46,-32.26,-38.23,119.18,,,,,,,,,,,,,,,,,,,,,,,,,,,,,,,,,,,,,0.0,0.0,0.0,0.0,0.0,0.0,0.0,0.0,0.0,0.0,0.0,0.0,0.0,0.0,0.0,0.0,0.0,0.0,,,,,,,,,,,,,,,,,,,,,,,,,,,,,,,,,,,,,,,,,,,,,,,,,,,,,,,,,,,,,,,,,,,,,,,,,
3.1,tail,-5.13,6.27,-0.06,0.0,0.12,,0.0,0.0,2.736,-34.63,-19.51,94.13,-23.38,-0.35,101.43,10.46,-9.23,133.07,17.84,-20.65,89.91,-15.64,-38.76,116.46,-32.26,-38.23,119.18,,,,,,,,,,,,,,,,,,,,,,,,,,,,,,,,,,,,,0.0,0.0,0.0,0.0,0.0,0.0,0.0,0.0,0.0,0.0,0.0,0.0,0.0,0.0,0.0,0.0,0.0,0.0,,,,,,,,,,,,,,,,,,,,,,,,,,,,,,,,,,,,,,,,,,,,,,,,,,,,,,,,,,,,,,,,,,,,,,,,,
3.2,tail,-5.19,6.26,-0.01,0.05,-0.03,,0.0,0.0,2.736,-34.63,-19.51,94.13,-23.38,-0.35,101.43,10.46,-9.23,133.07,17.84,-20.65,89.91,-15.64,-38.76,116.46,-32.26,-38.23,119.18,,,,,,,,,,,,,,,,,,,,,,,,,,,,,,,,,,,,,0.0,0.0,0.0,0.0,0.0,0.0,0.0,0.0,0.0,0.0,0.0,0.0,0.0,0.0,0.0,0.0,0.0,0.0,,,,,,,,,,,,,,,,,,,,,,,,,,,,,,,,,,,,,,,,,,,,,,,,,,,,,,,,,,,,,,,,,,,,,,,,,
3.3,tail,-5.27,6.23,-0.08,-0.06,0.07,,0.0,0.0,2.736,-34.63,-19.51,94.13,-23.38,-0.35,101.43,10.46,-9.23,133.07,17.84,-20.65,89.91,-15.64,-38.76,116.46,-32.26,-38.23,119.18,,,,,,,,,,,,,,,,,,,,,,,,,,,,,,,,,,,,,0.0,0.0,0.0,0.0,0.0,0.0,0.0,0.0,0.0,0.0,0.0,0.0,0.0,0.0,0.0,0.0,0.0,0.0,,,,,,,,,,,,,,,,,,,,,,,,,,,,,,,,,,,,,,,,,,,,,,,,,,,,,,,,,,,,,,,,,,,,,,,,,
3.4,tail,-5.34,6.22,-0.09,0.07,-0.06,,0.0,0.0,2.736,-34.63,-19.51,94.13,-23.38,-0.35,101.43,10.46,-9.23,133.07,17.84,-20.65,89.91,-15.64,-38.76,116.46,-32.26,-38.23,119.18,,,,,,,,,,,,,,,,,,,,,,,,,,,,,,,,,,,,,0.0,0.0,0.0,0.0,0.0,0.0,0.0,0.0,0.0,0.0,0.006,0.0,0.0,0.0,0.0,0.0,0.0,0.0,,,,,,,,,,,,,,,,,,,,,,,,,,,,,,,,,,,,,,,,,,,,,,,,,,,,,,,,,,,,,,,,,,,,,,,,,
3.5,tail,-5.4,6.21,-0.09,0.04,0.03,,0.0,0.0,2.736,-34.63,-19.51,94.13,-23.38,-0.35,101.43,10.46,-9.23,133.07,17.84,-20.65,89.91,-15.64,-38.76,116.46,-32.26,-38.23,119.18,,,,,,,,,,,,,,,,,,,,,,,,,,,,,,,,,,,,,0.0,0.0,0.0,0.0,0.0,0.0,0.0,0.0,0.0,0.0,0.0,0.0,0.0,0.0,0.0,0.0,0.0,0.0,,,,,,,,,,,,,,,,,,,,,,,,,,,,,,,,,,,,,,,,,,,,,,,,,,,,,,,,,,,,,,,,,,,,,,,,,
3.6,tail,-5.47,6.19,-0.08,0.01,0.07,,0.0,0.0,2.736,-34.63,-19.51,94.13,-23.38,-0.35,101.43,10.46,-9.23,133.07,17.84,-20.65,89.91,-15.64,-38.76,116.46,-32.26,-38.23,119.18,,,,,,,,,,,,,,,,,,,,,,,,,,,,,,,,,,,,,0.0,0.0,0.0,0.0,0.0,0.0,0.0,0.0,0.0,0.0,0.0,0.0,0.0,0.0,0.0,0.0,0.0,0.0,,,,,,,,,,,,,,,,,,,,,,,,,,,,,,,,,,,,,,,,,,,,,,,,,,,,,,,,,,,,,,,,,,,,,,,,,
3.7,tail,-5.54,6.18,-0.06,0.06,-0.01,,0.0,0.0,2.736,-34.63,-19.51,94.13,-23.38,-0.35,101.43,10.46,-9.23,133.07,17.84,-20.65,89.91,-15.64,-38.76,116.46,-32.26,-38.23,119.18,,,,,,,,,,,,,,,,,,,,,,,,,,,,,,,,,,,,,0.0,0.0,0.0,0.0,0.0,0.0,0.0,0.0,0.0,0.0,0.0,0.0,0.0,0.0,0.0,0.0,0.0,0.0,,,,,,,,,,,,,,,,,,,,,,,,,,,,,,,,,,,,,,,,,,,,,,,,,,,,,,,,,,,,,,,,,,,,,,,,,
3.8,tail,-5.6,6.17,-0.07,-0.0,0.03,,0.0,0.0,2.736,-34.63,-19.51,94.13,-23.38,-0.35,101.43,10.46,-9.23,133.07,17.84,-20.65,89.91,-15.64,-38.76,116.46,-32.26,-38.23,119.18,,,,,,,,,,,,,,,,,,,,,,,,,,,,,,,,,,,,,0.0,0.0,0.0,0.0,0.0,0.0,0.0,0.0,0.0,0.0,0.0,0.0,0.0,0.0,0.0,0.0,0.0,0.0,,,,,,,,,,,,,,,,,,,,,,,,,,,,,,,,,,,,,,,,,,,,,,,,,,,,,,,,,,,,,,,,,,,,,,,,,
3.9,tail,-5.66,6.14,-0.08,-0.05,0.06,,0.0,0.0,2.736,-34.63,-19.51,94.13,-23.38,-0.35,101.43,10.46,-9.23,133.07,17.84,-20.65,89.91,-15.64,-38.76,116.46,-32.26,-38.23,119.18,,,,,,,,,,,,,,,,,,,,,,,,,,,,,,,,,,,,,0.0,0.0,0.0,0.0,0.0,0.0,0.0,0.0,0.0,0.0,0.0,0.0,0.0,0.0,0.0,0.0,0.0,0.0,,,,,,,,,,,,,,,,,,,,,,,,,,,,,,,,,,,,,,,,,,,,,,,,,,,,,,,,,,,,,,,,,,,,,,,,,
4.0,tail,-5.72,6.13,-0.03,0.06,0.03,,0.0,0.0,2.736,-34.63,-19.51,94.13,-23.38,-0.35,101.43,10.46,-9.23,133.07,17.84,-20.65,89.91,-15.64,-38.76,116.46,-32.26,-38.23,119.18,,,,,,,,,,,,,,,,,,,,,,,,,,,,,,,,,,,,,0.0,0.0,0.0,0.0,0.0,0.0,0.0,0.0,0.0,0.0,0.0,0.0,0.0,0.0,0.0,0.0,0.0,0.0,,,,,,,,,,,,,,,,,,,,,,,,,,,,,,,,,,,,,,,,,,,,,,,,,,,,,,,,,,,,,,,,,,,,,,,,,
4.1,tail,-5.78,6.11,-0.08,-0.05,0.12,,0.0,0.0,2.736,-34.63,-19.51,94.13,-23.38,-0.35,101.43,10.46,-9.23,133.07,17.84,-20.65,89.91,-15.64,-38.76,116.46,-32.26,-38.23,119.18,,,,,,,,,,,,,,,,,,,,,,,,,,,,,,,,,,,,,0.0,0.0,0.0,0.0,0.0,0.0,0.0,0.0,0.0,0.0,0.0,0.0,0.0,0.0,0.0,0.0,0.0,0.0,,,,,,,,,,,,,,,,,,,,,,,,,,,,,,,,,,,,,,,,,,,,,,,,,,,,,,,,,,,,,,,,,,,,,,,,,
4.2,tail,-5.84,6.09,-0.07,-0.03,0.04,,0.0,0.0,2.736,-34.63,-19.51,94.13,-23.38,-0.35,101.43,10.46,-9.23,133.07,17.84,-20.65,89.91,-15.64,-38.76,116.46,-32.26,-38.23,119.18,,,,,,,,,,,,,,,,,,,,,,,,,,,,,,,,,,,,,0.0,0.0,0.0,0.0,0.0,0.0,0.0,0.0,0.0,0.0,0.0,0.0,0.0,0.0,0.0,0.0,0.0,0.0,,,,,,,,,,,,,,,,,,,,,,,,,,,,,,,,,,,,,,,,,,,,,,,,,,,,,,,,,,,,,,,,,,,,,,,,,
4.3,tail,-5.89,6.07,-0.01,0.01,0.04,,0.0,0.0,2.736,-34.63,-19.51,94.13,-23.38,-0.35,101.43,10.46,-9.23,133.07,17.84,-20.65,89.91,-15.64,-38.76,116.46,-32.26,-38.23,119.18,,,,,,,,,,,,,,,,,,,,,,,,,,,,,,,,,,,,,0.0,0.0,0.0,0.0,0.0,0.0,0.0,0.0,0.0,0.0,0.0,0.0,0.0,0.0,0.0,0.0,0.0,0.0,,,,,,,,,,,,,,,,,,,,,,,,,,,,,,,,,,,,,,,,,,,,,,,,,,,,,,,,,,,,,,,,,,,,,,,,,
4.4,tail,-5.95,6.07,-0.08,0.07,-0.01,,0.0,0.0,2.736,-34.63,-19.51,94.13,-23.38,-0.35,101.43,10.46,-9.23,133.07,17.84,-20.65,89.91,-15.64,-38.76,116.46,-32.26,-38.23,119.18,,,,,,,,,,,,,,,,,,,,,,,,,,,,,,,,,,,,,0.0,0.0,0.0,0.0,0.0,0.0,0.0,0.0,0.0,0.0,0.0,0.0,0.0,0.0,0.0,0.0,0.0,0.0,,,,,,,,,,,,,,,,,,,,,,,,,,,,,,,,,,,,,,,,,,,,,,,,,,,,,,,,,,,,,,,,,,,,,,,,,
4.5,tail,-6.0,6.05,0.0,0.02,0.04,,0.0,0.0,2.736,-34.63,-19.51,94.13,-23.38,-0.35,101.43,10.46,-9.23,133.07,17.84,-20.65,89.91,-15.64,-38.76,116.46,-32.26,-38.23,119.18,,,,,,,,,,,,,,,,,,,,,,,,,,,,,,,,,,,,,0.0,0.0,0.0,0.0,0.0,0.0,0.0,0.0,0.0,0.0,0.0,0.0,0.0,0.0,0.0,0.0,0.0,0.0,,,,,,,,,,,,,,,,,,,,,,,,,,,,,,,,,,,,,,,,,,,,,,,,,,,,,,,,,,,,,,,,,,,,,,,,,
4.6,tail,-6.05,6.05,-0.03,0.07,0.03,,0.0,0.0,2.736,-34.63,-19.51,94.13,-23.38,-0.35,101.43,10.46,-9.23,133.07,17.84,-20.65,89.91,-15.64,-38.76,116.46,-32.26,-38.23,119.18,,,,,,,,,,,,,,,,,,,,,,,,,,,,,,,,,,,,,0.0,0.0,0.0,0.0,0.0,0.0,0.0,0.0,0.0,0.0,0.0,0.0,0.0,0.0,0.0,0.0,0.0,0.0,,,,,,,,,,,,,,,,,,,,,,,,,,,,,,,,,,,,,,,,,,,,,,,,,,,,,,,,,,,,,,,,,,,,,,,,,
4.7,tail,-6.11,6.04,-0.11,0.02,-0.01,,0.0,0.0,2.736,-34.63,-19.51,94.13,-23.38,-0.35,101.43,10.46,-9.23,133.07,17.84,-20.65,89.91,-15.64,-38.76,116.46,-32.26,-38.23,119.18,,,,,,,,,,,,,,,,,,,,,,,,,,,,,,,,,,,,,0.0,0.0,0.0,0.0,0.0,0.0,0.0,0.0,0.0,0.0,0.0,0.0,0.0,0.0,0.0,0.0,0.0,0.0,,,,,,,,,,,,,,,,,,,,,,,,,,,,,,,,,,,,,,,,,,,,,,,,,,,,,,,,,,,,,,,,,,,,,,,,,
4.8,tail,-6.17,6.02,-0.11,0.0,0.05,,0.0,0.0,2.736,-34.63,-19.51,94.13,-23.38,-0.35,101.43,10.46,-9.23,133.07,17.84,-20.65,89.91,-15.64,-38.76,116.46,-32.26,-38.23,119.18,,,,,,,,,,,,,,,,,,,,,,,,,,,,,,,,,,,,,0.0,0.0,0.0,0.0,0.0,0.0,0.0,0.0,0.0,0.0,0.0,0.0,0.0,0.0,0.0,0.0,0.0,0.0,,,,,,,,,,,,,,,,,,,,,,,,,,,,,,,,,,,,,,,,,,,,,,,,,,,,,,,,,,,,,,,,,,,,,,,,,
4.9,tail,-6.22,6.01,-0.08,0.03,-0.01,,0.0,0.0,2.736,-34.63,-19.51,94.13,-23.38,-0.35,101.43,10.46,-9.23,133.07,17.84,-20.65,89.91,-15.64,-38.76,116.46,-32.26,-38.23,119.18,,,,,,,,,,,,,,,,,,,,,,,,,,,,,,,,,,,,,0.0,0.0,0.0,0.0,0.0,0.0,0.0,0.0,0.0,0.0,0.0,0.0,0.0,0.0,0.0,0.0,0.0,0.0,,,,,,,,,,,,,,,,,,,,,,,,,,,,,,,,,,,,,,,,,,,,,,,,,,,,,,,,,,,,,,,,,,,,,,,,,
5.0,tail,-6.27,5.99,-0.07,-0.06,0.08,,0.0,0.0,2.736,-34.63,-19.51,94.13,-23.38,-0.35,101.43,10.46,-9.23,133.07,17.84,-20.65,89.91,-15.64,-38.76,116.46,-32.26,-38.23,119.18,,,,,,,,,,,,,,,,,,,,,,,,,,,,,,,,,,,,,0.0,0.0,0.0,0.0,0.0,0.0,0.0,0.0,0.0,0.0,0.0,0.0,0.0,0.0,0.0,0.0,0.0,0.0,,,,,,,,,,,,,,,,,,,,,,,,,,,,,,,,,,,,,,,,,,,,,,,,,,,,,,,,,,,,,,,,,,,,,,,,,
