t_s,phase,roll_deg,pitch_deg,gyro_x_dps,gyro_y_dps,gyro_z_dps,height_ref_mm,vx_ref_mps,vy_ref_mps,max_cur_a,q0_deg,q1_deg,q2_deg,q3_deg,q4_deg,q5_deg,q6_deg,q7_deg,q8_deg,q9_deg,q10_deg,q11_deg,q12_deg,q13_deg,q14_deg,q15_deg,q16_deg,q17_deg,cmd0_deg,cmd1_deg,cmd2_deg,cmd3_deg,cmd4_deg,cmd5_deg,cmd6_deg,cmd7_deg,cmd8_deg,cmd9_deg,cmd10_deg,cmd11_deg,cmd12_deg,cmd13_deg,cmd14_deg,cmd15_deg,cmd16_deg,cmd17_deg,act0,act1,act2,act3,act4,act5,act6,act7,act8,act9,act10,act11,act12,act13,act14,act15,act16,act17,cur0_a,cur1_a,cur2_a,cur3_a,cur4_a,cur5_a,cur6_a,cur7_a,cur8_a,cur9_a,cur10_a,cur11_a,cur12_a,cur13_a,cur14_a,cur15_a,cur16_a,cur17_a,obs0,obs1,obs2,obs3,obs4,obs5,obs6,obs7,obs8,obs9,obs10,obs11,obs12,obs13,obs14,obs15,obs16,obs17,obs18,obs19,obs20,obs21,obs22,obs23,obs24,obs25,obs26,obs27,obs28,obs29,obs30,obs31,obs32,obs33,obs34,obs35,obs36,obs37,obs38,obs39,obs40,obs41,obs42,obs43,obs44,obs45,obs46,obs47,obs48,obs49,obs50,obs51,obs52,obs53,obs54,obs55,obs56,obs57,obs58,obs59,obs60,obs61,obs62,obs63,obs64,obs65,obs66,obs67,obs68,obs69,obs70,obs71,rot60_k
0.0,run,0.64,4.4,-0.01,0.24,-0.63,0.0,0.0,0.0,0.019,0.0,19.69,79.28,0.09,17.05,78.84,0.0,19.51,81.83,0.09,17.49,79.1,-0.09,18.9,79.45,-0.09,17.31,79.89,-1.5,18.28,77.78,-1.41,15.55,80.25,1.5,18.01,83.06,1.59,16.08,80.6,1.41,17.4,77.95,-1.59,15.99,81.13,-1.0,-1.0,-0.4441,-1.0,-1.0,1.0,1.0,-1.0,1.0,1.0,-1.0,1.0,0.2526,-1.0,-0.2673,-1.0,-1.0,1.0,0.019,0.006,0.006,0.006,0.0,0.006,0.0,0.019,0.0,0.013,0.006,0.013,0.006,0.019,0.013,0.013,0.0,0.0,0.0,0.0,0.0,0.0,0.0,0.0015,0.0,0.0,0.0,0.0,0.0,0.0,0.0,0.0,0.0,0.0,-0.0031,0.0015,0.0,0.0,0.0,0.0,0.0,0.0038,0.0,0.0,0.0,0.0,0.0,0.0,0.0,0.0,0.0,0.0,-0.0075,0.0038,0.0,0.0,-0.0045,0.0143,-0.0024,0.0,0.0,0.0,0.0,0.0,0.0,0.0,0.0,0.0,0.0,0.0,0.0,0.0,0.0,0.0,0.0,0.0,0.0,0.0,0.0,0.0,0.0,0.0,0.0,0.0,0.0,0.0,0.0,0.0,0.0,0.0,0
0.04,run,0.61,4.39,-0.74,-0.65,-1.01,0.0,0.0,0.0,0.019,-0.35,19.6,79.1,0.09,16.96,79.01,0.09,19.34,82.35,0.26,17.49,79.37,0.09,18.81,79.1,-0.53,17.05,80.16,-3.0,19.78,79.28,-2.91,14.05,81.75,0.0,16.51,81.56,3.09,14.58,82.1,-0.09,15.9,79.45,-3.09,14.49,82.63,-1.0,1.0,1.0,-1.0,-1.0,1.0,-1.0,-1.0,-1.0,1.0,-1.0,1.0,-1.0,0.0456,1.0,-1.0,-1.0,1.0,0.019,0.006,0.006,0.006,0.0,0.006,0.0,0.019,0.0,0.013,0.006,0.013,0.006,0.019,0.013,0.013,0.0,0.0,0.0,-0.0015,0.0,0.0,0.0,0.0015,0.0,0.0,0.0046,0.0,-0.0015,0.0,0.0,0.0,0.0,0.0,-0.0031,0.0046,0.0,-0.0025,0.0,0.0,0.0,0.0026,0.0,0.0,0.0075,0.0,-0.0025,0.0,0.0,0.0,0.0,0.0,-0.0053,0.0077,-0.0004,0.0022,-0.0003,0.0042,-0.011,-1.0,-1.0,-0.4441,-1.0,-1.0,1.0,1.0,-1.0,1.0,1.0,-1.0,1.0,0.2526,-1.0,-0.2673,-1.0,-1.0,1.0,0.0,0.0,0.0,0.0,0.0,0.0,0.0,0.0,0.0,0.0,0.0,0.0,0.0,0
0.08,run,0.44,4.38,-3.78,-1.25,0.54,0.0,0.0,0.0,0.019,-1.14,19.25,79.01,-0.26,16.44,79.54,0.09,18.63,82.97,0.97,16.79,80.16,0.7,18.11,78.49,-1.14,16.52,80.77,-4.5,21.28,78.27,-4.41,12.55,83.25,-1.5,18.01,83.06,4.59,13.08,83.6,-1.59,17.4,80.95,-4.59,12.99,84.13,-0.2549,1.0,0.1561,-1.0,-1.0,0.63,-1.0,1.0,1.0,1.0,-1.0,1.0,-0.819,1.0,1.0,-1.0,-1.0,1.0,0.019,0.006,0.006,0.006,0.0,0.006,0.0,0.019,0.0,0.013,0.006,0.013,0.006,0.019,0.013,0.013,0.0,0.0,-0.0061,-0.0031,-0.0031,0.0,-0.0015,0.0046,0.0015,-0.0031,0.0138,0.0031,-0.0015,0.0046,0.0031,-0.0015,-0.0061,-0.0077,-0.0077,0.0092,-0.023,-0.0075,-0.0115,0.0,-0.0057,0.0133,0.0057,-0.0115,0.0398,0.0115,-0.0018,0.0172,0.0115,-0.0057,-0.023,-0.0287,-0.0209,0.0226,-0.0034,0.0007,-0.0129,-0.0114,-0.0177,-1.0,1.0,1.0,-1.0,-1.0,1.0,-1.0,-1.0,-1.0,1.0,-1.0,1.0,-1.0,0.0456,1.0,-1.0,-1.0,1.0,0.0,0.0,0.0,0.0,0.0,0.0,0.0,0.0,0.0,0.0,0.0,0.0,0.0,0
0.12,run,0.32,4.5,-2.41,2.39,-2.62,0.0,0.0,0.0,0.026,-2.02,18.46,78.49,-1.32,15.56,80.77,0.79,18.02,83.32,2.11,16.0,81.04,0.88,17.31,78.4,-2.11,15.73,81.65,-6.0,22.78,79.77,-5.91,11.05,84.75,-3.0,19.51,84.56,6.09,11.58,85.1,-0.09,15.9,79.45,-6.09,11.49,85.63,-1.0,1.0,0.1876,-1.0,-1.0,1.0,-1.0,1.0,1.0,1.0,-1.0,1.0,1.0,0.3299,-1.0,-1.0,-1.0,1.0,0.013,0.013,0.0,0.019,0.026,0.006,0.0,0.013,0.006,0.019,0.026,0.019,0.006,0.019,0.006,0.013,0.006,0.0,-0.0199,-0.0092,-0.0046,-0.0061,-0.0107,0.0138,0.0015,-0.0153,0.0245,0.0153,-0.0138,0.0184,0.0138,-0.0138,-0.0169,-0.0184,-0.0169,0.0199,-0.0679,-0.0283,-0.0138,-0.023,-0.0386,0.0439,0.004,-0.0541,0.0681,0.0541,-0.0473,0.0639,0.0483,-0.0501,-0.0564,-0.0604,-0.0492,0.0561,-0.0178,0.0001,-0.0659,-0.0218,0.0094,-0.2549,1.0,0.1561,-1.0,-1.0,0.63,-1.0,1.0,1.0,1.0,-1.0,1.0,-0.819,1.0,1.0,-1.0,-1.0,1.0,0.0,0.0,0.0,0.0,0.0,0.0,0.0,0.0,0.0,0.0,0.0,0.0,0.0,0
0.16,run,-0.15,4.34,-12.02,-3.84,-9.91,0.0,0.0,0.0,0.026,-3.25,18.63,78.49,-2.46,14.85,81.83,0.79,17.75,83.76,3.16,14.94,82.18,0.62,16.79,78.57,-3.43,14.59,82.79,-7.5,24.28,78.27,-7.41,9.55,86.25,-4.5,18.01,83.06,7.59,10.08,86.6,1.41,17.4,80.95,-7.59,9.99,87.13,-1.0,1.0,-0.3186,-1.0,-0.8501,1.0,-0.4609,0.1702,-0.3294,1.0,-1.0,1.0,1.0,0.8719,1.0,-1.0,-1.0,1.0,0.013,0.013,0.0,0.019,0.026,0.006,0.0,0.013,0.006,0.019,0.026,0.019,0.006,0.019,0.006,0.013,0.006,0.0,-0.0353,-0.023,-0.0138,-0.0245,-0.0261,0.0353,0.0138,-0.0261,0.0307,0.0353,-0.0276,0.0337,0.0169,-0.0276,-0.0184,-0.0353,-0.0307,0.0353,-0.1051,-0.0717,-0.0442,-0.0853,-0.0846,0.1114,0.0489,-0.0782,0.0707,0.1128,-0.085,0.1023,0.0454,-0.0869,-0.0452,-0.1057,-0.0863,0.0969,-0.028,0.0108,-0.0421,0.0418,-0.0457,-1.0,1.0,0.1876,-1.0,-1.0,1.0,-1.0,1.0,1.0,1.0,-1.0,1.0,1.0,0.3299,-1.0,-1.0,-1.0,1.0,0.0,0.0,0.0,0.0,0.0,0.0,0.0,0.0,0.0,0.0,0.0,0.0,0.0,0
0.2,run,-0.67,4.5,-13.06,3.61,-6.24,0.0,0.0,0.0,0.026,-4.48,19.07,78.75,-3.69,13.45,83.23,0.7,17.75,84.2,4.48,13.45,83.5,0.09,16.26,79.28,-4.66,13.36,84.02,-9.0,25.78,79.77,-8.91,8.05,87.75,-6.0,19.51,84.56,9.09,8.58,88.1,2.91,15.9,82.45,-9.09,8.49,88.63,-1.0,1.0,0.9951,-1.0,-1.0,1.0,-1.0,1.0,0.6209,1.0,-1.0,1.0,1.0,-1.0,1.0,-1.0,-1.0,1.0,0.013,0.013,0.0,0.019,0.026,0.006,0.0,0.013,0.006,0.019,0.026,0.019,0.006,0.019,0.006,0.013,0.006,0.0,-0.0568,-0.0199,-0.0138,-0.0445,-0.0383,0.0537,0.0138,-0.0307,0.0383,0.0537,-0.046,0.0537,0.0123,-0.0368,-0.0153,-0.0583,-0.0506,0.0552,-0.1539,-0.0387,-0.031,-0.1342,-0.1051,0.1468,0.0342,-0.0719,0.0782,0.1477,-0.1283,0.1462,0.0146,-0.0952,-0.0202,-0.16,-0.1349,0.1424,-0.0694,-0.0038,-0.2098,-0.0671,-0.173,-1.0,1.0,-0.3186,-1.0,-0.8501,1.0,-0.4609,0.1702,-0.3294,1.0,-1.0,1.0,1.0,0.8719,1.0,-1.0,-1.0,1.0,0.0,0.0,0.0,0.0,0.0,0.0,0.0,0.0,0.0,0.0,0.0,0.0,0.0,0
0.24,run,-1.06,4.53,-11.22,0.5,-9.91,0.0,0.0,0.0,0.033,-5.8,19.86,79.28,-5.1,12.04,84.55,-0.44,18.11,84.64,5.71,12.22,84.81,0.0,15.91,80.24,-6.06,12.04,85.17,-8.31,27.28,81.27,-10.41,9.55,89.25,-4.5,18.01,83.06,10.59,7.08,89.6,1.41,14.4,83.95,-10.59,6.99,90.13,-0.2375,1.0,0.4311,-1.0,1.0,1.0,0.3405,-0.1854,-0.5804,1.0,-1.0,1.0,-0.3077,-1.0,1.0,-1.0,-1.0,1.0,0.006,0.033,0.006,0.013,0.019,0.006,0.013,0.006,0.006,0.019,0.013,0.019,0.006,0.006,0.013,0.006,0.006,0.006,-0.0782,-0.0123,-0.0092,-0.066,-0.0629,0.0782,0.0123,-0.0307,0.046,0.0767,-0.0721,0.0767,0.0031,-0.046,-0.0031,-0.0798,-0.0721,0.0767,-0.1886,0.0018,-0.0043,-0.1749,-0.1661,0.1952,0.0182,-0.0504,0.0836,0.1901,-0.1881,0.189,-0.0245,-0.1013,0.0321,-0.1929,-0.1754,0.1806,-0.1152,0.0107,-0.2279,0.0631,-0.1089,-1.0,1.0,0.9951,-1.0,-1.0,1.0,-1.0,1.0,0.6209,1.0,-1.0,1.0,1.0,-1.0,1.0,-1.0,-1.0,1.0,0.0,0.0,0.0,0.0,0.0,0.0,0.0,0.0,0.0,0.0,0.0,0.0,0.0,0
0.28,run,-1.56,4.64,-14.4,3.58,-14.02,0.0,0.0,0.0,0.033,-7.03,20.74,79.72,-6.5,10.81,85.96,-1.49,18.72,84.9,7.12,11.25,86.22,0.0,15.29,81.39,-7.65,10.63,86.48,-9.81,25.78,82.77,-11.91,8.05,87.75,-6.0,16.51,84.56,12.09,5.58,91.1,-0.09,12.9,85.45,-12.09,5.49,91.63,-0.7538,0.7158,0.2986,-1.0,-0.0993,-1.0,-1.0,-0.2579,0.4289,1.0,-1.0,1.0,-0.0766,-0.102,1.0,-1.0,-1.0,1.0,0.006,0.033,0.006,0.013,0.019,0.006,0.013,0.006,0.006,0.019,0.013,0.019,0.006,0.006,0.013,0.006,0.006,0.006,-0.1012,0.0015,0.0,-0.0905,-0.0874,0.1012,-0.0077,-0.0245,0.0537,0.0982,-0.0936,0.0997,0.0015,-0.0522,0.0138,-0.1043,-0.0951,0.0966,-0.2182,0.0529,0.0314,-0.2143,-0.2081,0.2228,-0.0619,-0.0123,0.0872,0.2135,-0.212,0.2184,-0.0229,-0.0939,0.0856,-0.2269,-0.2089,0.201,-0.1484,0.0135,-0.1958,0.0087,-0.173,-0.2375,1.0,0.4311,-1.0,1.0,1.0,0.3405,-0.1854,-0.5804,1.0,-1.0,1.0,-0.3077,-1.0,1.0,-1.0,-1.0,1.0,0.0,0.0,0.0,0.0,0.0,0.0,0.0,0.0,0.0,0.0,0.0,0.0,0.0,0
0.32,run,-1.92,4.61,-10.99,-0.22,-13.99,0.0,0.0,0.0,0.033,-8.0,21.8,80.16,-7.82,9.84,87.28,-2.64,18.81,84.9,8.53,9.67,87.63,0.97,14.94,82.62,-8.88,9.4,87.8,-11.31,24.28,81.27,-13.41,9.55,89.25,-7.5,18.01,86.06,13.59,4.08,92.6,-1.59,11.4,86.95,-13.59,3.99,93.13,-1.0,0.0911,-0.4255,-1.0,1.0,1.0,-1.0,1.0,1.0,1.0,-1.0,1.0,-1.0,-1.0,1.0,-1.0,-1.0,1.0,0.006,0.033,0.006,0.013,0.019,0.006,0.013,0.006,0.006,0.019,0.013,0.019,0.006,0.006,0.013,0.006,0.006,0.006,-0.1227,0.0169,0.0077,-0.115,-0.1089,0.1258,-0.0261,-0.0138,0.0583,0.1227,-0.1104,0.1243,0.0015,-0.0629,0.0337,-0.1319,-0.1197,0.1197,-0.233,0.0944,0.0506,-0.2417,-0.2259,0.2476,-0.1121,0.0315,0.0783,0.2411,-0.2115,0.2446,-0.016,-0.1059,0.1344,-0.262,-0.2379,0.2267,-0.1921,0.0223,-0.2514,0.0626,-0.2447,-0.7538,0.7158,0.2986,-1.0,-0.0993,-1.0,-1.0,-0.2579,0.4289,1.0,-1.0,1.0,-0.0766,-0.102,1.0,-1.0,-1.0,1.0,0.0,0.0,0.0,0.0,0.0,0.0,0.0,0.0,0.0,0.0,0.0,0.0,0.0,0
0.36,run,-2.41,4.46,-13.84,-2.74,-10.94,0.0,0.0,0.0,0.065,-9.05,22.76,80.86,-9.23,9.14,88.07,-3.96,18.72,85.08,9.93,8.26,89.03,1.05,13.89,84.02,-10.28,8.0,89.03,-12.81,22.78,82.5,-14.91,11.05,87.75,-9.0,16.51,87.56,15.09,2.58,94.1,-3.09,9.9,88.45,-15.09,2.49,94.63,-1.0,0.5018,0.2059,-1.0,0.8833,-0.3536,-1.0,-1.0,0.9383,1.0,-1.0,1.0,-1.0,-1.0,1.0,-1.0,-1.0,1.0,0.013,0.065,0.006,0.019,0.013,0.006,0.019,0.026,0.0,0.013,0.019,0.019,0.006,0.0,0.006,0.013,0.006,0.006,-0.1396,0.0353,0.0153,-0.1381,-0.1258,0.1488,-0.046,-0.0123,0.0583,0.1473,-0.1381,0.1488,0.0184,-0.069,0.0552,-0.1534,-0.1411,0.1427,-0.2264,0.1352,0.0642,-0.2555,-0.2215,0.2597,-0.1533,0.0278,0.0548,0.2609,-0.2516,0.2633,0.0521,-0.0971,0.1747,-0.264,-0.2471,0.2451,-0.2236,0.0201,-0.1918,-0.0039,-0.2442,-1.0,0.0911,-0.4255,-1.0,1.0,1.0,-1.0,1.0,1.0,1.0,-1.0,1.0,-1.0,-1.0,1.0,-1.0,-1.0,1.0,0.0,0.0,0.0,0.0,0.0,0.0,0.0,0.0,0.0,0.0,0.0,0.0,0.0,0
0.4,run,-2.97,4.23,-14.27,-5.97,-5.17,0.0,0.0,0.0,0.065,-10.2,23.55,81.65,-10.63,8.61,88.77,-5.27,18.02,85.78,11.34,6.68,90.44,0.97,12.74,85.69,-11.43,6.68,90.44,-14.31,21.28,81.0,-16.41,12.55,86.25,-10.5,15.95,89.06,16.59,1.08,95.6,-4.59,8.4,89.95,-16.59,0.99,93.13,-1.0,-1.0,-0.3342,-1.0,1.0,-1.0,-1.0,0.7445,1.0,1.0,-1.0,1.0,-1.0,-1.0,1.0,-1.0,-1.0,-0.1212,0.013,0.065,0.006,0.019,0.013,0.006,0.019,0.026,0.0,0.013,0.019,0.019,0.006,0.0,0.006,0.013,0.006,0.006,-0.158,0.0522,0.0276,-0.1626,-0.1381,0.1626,-0.069,-0.0138,0.0614,0.1718,-0.1626,0.1733,0.0199,-0.0874,0.0798,-0.1779,-0.1657,0.1641,-0.2276,0.1579,0.091,-0.271,-0.2011,0.2336,-0.1937,0.0137,0.0499,0.2748,-0.2683,0.2765,0.0422,-0.1371,0.2144,-0.2769,-0.2651,0.2521,-0.2668,0.0074,-0.2415,-0.0479,-0.191,-1.0,0.5018,0.2059,-1.0,0.8833,-0.3536,-1.0,-1.0,0.9383,1.0,-1.0,1.0,-1.0,-1.0,1.0,-1.0,-1.0,1.0,0.0,0.0,0.0,0.0,0.0,0.0,0.0,0.0,0.0,0.0,0.0,0.0,0.0,0
0.44,run,-3.25,3.77,-6.78,-12.31,0.61,0.0,0.0,0.0,0.065,-11.34,23.99,82.09,-12.04,8.61,89.03,-6.59,17.31,86.48,12.66,5.1,91.85,0.26,11.43,86.92,-13.01,5.71,91.76,-15.81,19.78,79.5,-17.91,14.05,84.75,-12.0,14.45,90.56,18.09,-0.42,97.1,-6.09,6.9,91.45,-18.09,-0.51,91.63,-1.0,-1.0,-0.5402,-1.0,1.0,-0.5003,-1.0,0.1334,1.0,1.0,-1.0,1.0,-1.0,-1.0,1.0,-0.8575,-1.0,-0.0781,0.013,0.065,0.006,0.019,0.013,0.006,0.019,0.026,0.0,0.013,0.019,0.019,0.006,0.0,0.006,0.013,0.006,0.006,-0.1779,0.066,0.0414,-0.1871,-0.1473,0.1749,-0.092,-0.0261,0.0736,0.1963,-0.1902,0.1979,0.0184,-0.1074,0.1089,-0.1979,-0.1887,0.1887,-0.2339,0.1622,0.1154,-0.2816,-0.1752,0.2095,-0.2217,-0.0363,0.0808,0.2842,-0.2912,0.2854,0.0238,-0.1706,0.2592,-0.2685,-0.2717,0.2684,-0.3151,-0.013,-0.2491,-0.1042,-0.0903,-1.0,-1.0,-0.3342,-1.0,1.0,-1.0,-1.0,0.7445,1.0,1.0,-1.0,1.0,-1.0,-1.0,1.0,-1.0,-1.0,-0.1212,0.0,0.0,0.0,0.0,0.0,0.0,0.0,0.0,0.0,0.0,0.0,0.0,0.0,0
0.48,run,-3.73,3.62,-11.07,-4.14,-5.2,0.0,0.0,0.0,0.065,-12.66,24.17,82.0,-13.54,8.61,88.86,-7.91,16.26,87.71,14.06,3.6,93.25,-0.53,10.02,88.42,-14.33,4.13,92.81,-17.31,18.28,78.89,-19.41,12.55,83.25,-13.5,15.95,92.06,19.59,-1.92,98.6,-7.59,5.4,92.95,-19.59,-2.01,90.13,-1.0,-1.0,0.1635,-1.0,0.6219,-1.0,-1.0,1.0,1.0,1.0,-1.0,1.0,-1.0,-1.0,1.0,-1.0,-1.0,0.2404,0.026,0.033,0.006,0.013,0.019,0.013,0.019,0.013,0.0,0.019,0.013,0.013,0.013,0.0,0.0,0.019,0.013,0.006,-0.1979,0.0736,0.0491,-0.2117,-0.1473,0.1795,-0.115,-0.0383,0.0859,0.2194,-0.2178,0.2224,0.0061,-0.1304,0.1304,-0.2255,-0.2056,0.2117,-0.2388,0.1424,0.1096,-0.2894,-0.1226,0.1639,-0.2418,-0.0716,0.1028,0.2855,-0.3077,0.2921,-0.0295,-0.206,0.2622,-0.2918,-0.2537,0.2744,-0.3398,-0.0532,-0.1183,-0.2148,0.0106,-1.0,-1.0,-0.5402,-1.0,1.0,-0.5003,-1.0,0.1334,1.0,1.0,-1.0,1.0,-1.0,-1.0,1.0,-0.8575,-1.0,-0.0781,0.0,0.0,0.0,0.0,0.0,0.0,0.0,0.0,0.0,0.0,0.0,0.0,0.0,0
0.52,run,-3.98,3.39,-4.95,-7.63,-12.67,0.0,0.0,0.0,0.065,-14.06,24.17,81.83,-14.94,9.49,88.42,-9.32,15.29,88.95,15.47,2.37,94.66,-1.76,8.61,89.91,-15.82,2.72,93.69,-18.81,16.78,77.39,-20.91,14.05,84.75,-15.0,17.45,93.56,21.09,-3.42,100.1,-9.09,3.9,94.45,-18.09,-3.51,91.63,-1.0,-1.0,0.1249,-1.0,1.0,0.4231,-1.0,1.0,1.0,1.0,-1.0,1.0,-1.0,-1.0,1.0,-0.4914,-1.0,0.3511,0.026,0.033,0.006,0.013,0.019,0.013,0.019,0.013,0.0,0.019,0.013,0.013,0.013,0.0,0.0,0.019,0.013,0.006,-0.2209,0.0767,0.0476,-0.2378,-0.1473,0.1764,-0.1381,-0.0568,0.1074,0.2439,-0.2439,0.247,-0.0077,-0.1549,0.1565,-0.2485,-0.2332,0.2301,-0.2534,0.1112,0.071,-0.3003,-0.0859,0.1033,-0.2555,-0.1191,0.1524,0.2918,-0.3131,0.2965,-0.0724,-0.2362,0.2813,-0.2905,-0.2811,0.2611,-0.3818,-0.0665,-0.1932,-0.0723,-0.0907,-1.0,-1.0,0.1635,-1.0,0.6219,-1.0,-1.0,1.0,1.0,1.0,-1.0,1.0,-1.0,-1.0,1.0,-1.0,-1.0,0.2404,0.0,0.0,0.0,0.0,0.0,0.0,0.0,0.0,0.0,0.0,0.0,0.0,0.0,0
0.56,run,-4.29,3.5,-7.11,1.45,-18.11,0.0,0.0,0.0,0.065,-15.29,24.08,81.47,-16.35,10.55,87.36,-10.63,14.77,90.18,16.79,1.05,96.15,-3.16,7.21,91.23,-17.23,1.32,94.13,-20.31,15.28,78.89,-22.41,12.55,83.25,-16.5,18.95,95.06,22.59,-4.92,101.6,-10.59,2.4,95.95,-19.59,-5.01,93.13,-1.0,-1.0,0.6311,-1.0,0.6759,-0.4584,-1.0,1.0,1.0,1.0,-1.0,1.0,-1.0,-1.0,1.0,-1.0,-1.0,0.7849,0.026,0.033,0.006,0.013,0.019,0.013,0.019,0.013,0.0,0.019,0.013,0.013,0.013,0.0,0.0,0.019,0.013,0.006,-0.2454,0.0767,0.0445,-0.2623,-0.1319,0.1687,-0.1626,-0.0736,0.1289,0.2684,-0.2654,0.2715,-0.0291,-0.1795,0.1825,-0.2746,-0.2577,0.2454,-0.2693,0.0778,0.0382,-0.3022,-0.0026,0.0436,-0.2708,-0.1466,0.1871,0.2962,-0.2996,0.2995,-0.1311,-0.2573,0.2946,-0.301,-0.2887,0.2402,-0.4032,-0.0865,-0.0863,-0.1332,-0.2211,-1.0,-1.0,0.1249,-1.0,1.0,0.4231,-1.0,1.0,1.0,1.0,-1.0,1.0,-1.0,-1.0,1.0,-0.4914,-1.0,0.3511,0.0,0.0,0.0,0.0,0.0,0.0,0.0,0.0,0.0,0.0,0.0,0.0,0.0,0
0.6,run,-4.49,3.68,-4.06,2.93,-17.42,0.0,0.0,0.0,0.065,-16.7,23.2,80.42,-17.75,11.69,86.31,-12.04,14.5,91.58,18.19,-0.35,97.47,-4.48,5.71,92.72,-18.28,0.0,94.39,-21.81,13.78,80.39,-23.91,14.05,84.75,-18.0,17.45,96.56,24.09,-6.42,103.1,-12.09,0.9,97.45,-21.09,-6.51,94.63,-1.0,-0.7275,0.867,-1.0,1.0,1.0,-1.0,0.1573,1.0,1.0,-1.0,1.0,-1.0,-1.0,1.0,-1.0,-1.0,0.9765,0.033,0.0,0.0,0.019,0.006,0.019,0.026,0.006,0.0,0.026,0.013,0.006,0.019,0.0,0.0,0.019,0.033,0.0,-0.2669,0.0752,0.0383,-0.2869,-0.1135,0.1503,-0.1856,-0.0828,0.1503,0.2915,-0.2884,0.2976,-0.0537,-0.204,0.2056,-0.2991,-0.2823,0.2531,-0.2693,0.0487,0.0037,-0.3038,0.0674,-0.0387,-0.2761,-0.1372,0.2118,0.2939,-0.2963,0.3077,-0.1841,-0.2724,0.2927,-0.303,-0.2944,0.197,-0.431,-0.077,-0.1242,0.0253,-0.3161,-1.0,-1.0,0.6311,-1.0,0.6759,-0.4584,-1.0,1.0,1.0,1.0,-1.0,1.0,-1.0,-1.0,1.0,-1.0,-1.0,0.7849,0.0,0.0,0.0,0.0,0.0,0.0,0.0,0.0,0.0,0.0,0.0,0.0,0.0,0
0.64,run,-4.66,3.87,-2.5,2.5,-21.31,0.0,0.0,0.0,0.065,-18.11,22.24,79.54,-19.16,12.66,85.08,-13.45,14.68,92.9,19.69,-1.76,98.96,-5.8,4.31,94.13,-19.42,-1.41,94.39,-23.31,12.28,81.89,-25.41,13.0,86.25,-16.5,15.95,98.06,25.59,-7.92,104.6,-13.59,-0.6,98.95,-22.59,-8.01,96.13,-1.0,0.4974,1.0,-1.0,0.6908,1.0,0.1767,-0.7624,1.0,1.0,-1.0,1.0,-1.0,-1.0,1.0,-1.0,-1.0,1.0,0.033,0.0,0.0,0.019,0.006,0.019,0.026,0.006,0.0,0.026,0.013,0.006,0.019,0.0,0.0,0.019,0.033,0.0,-0.2915,0.0598,0.0199,-0.3114,-0.0936,0.1319,-0.2102,-0.0874,0.1749,0.316,-0.3129,0.3206,-0.0767,-0.2301,0.2316,-0.3175,-0.3053,0.2577,-0.2805,-0.0234,-0.0664,-0.3047,0.1219,-0.0961,-0.2852,-0.1133,0.2402,0.2977,-0.2994,0.3016,-0.2151,-0.2884,0.3027,-0.2811,-0.2923,0.1551,-0.4486,-0.0607,-0.0709,0.0511,-0.304,-1.0,-0.7275,0.867,-1.0,1.0,1.0,-1.0,0.1573,1.0,1.0,-1.0,1.0,-1.0,-1.0,1.0,-1.0,-1.0,0.9765,0.0,0.0,0.0,0.0,0.0,0.0,0.0,0.0,0.0,0.0,0.0,0.0,0.0,0
0.68,run,-4.75,4.0,-1.76,2.36,-26.33,0.0,0.0,0.0,0.065,-19.51,20.92,79.1,-20.65,13.36,84.2,-14.85,15.38,94.31,21.01,-3.25,100.37,-7.29,2.9,95.45,-20.39,-2.81,94.48,-24.81,13.78,83.39,-26.91,11.5,84.75,-15.0,14.45,99.56,27.09,-9.42,106.1,-15.09,-2.1,100.45,-24.09,-9.51,97.63,-1.0,0.7281,1.0,-1.0,-0.2726,-1.0,-0.3139,-0.241,0.8467,1.0,-1.0,1.0,-1.0,-1.0,1.0,-1.0,-1.0,0.9895,0.033,0.0,0.0,0.019,0.006,0.019,0.026,0.006,0.0,0.026,0.013,0.006,0.019,0.0,0.0,0.019,0.033,0.0,-0.316,0.043,0.0046,-0.3359,-0.0767,0.1104,-0.2347,-0.0844,0.1979,0.3421,-0.3375,0.3467,-0.0997,-0.2546,0.2562,-0.3375,-0.3298,0.2577,-0.2883,-0.0796,-0.1039,-0.3052,0.1485,-0.1477,-0.2916,-0.0678,0.2543,0.3061,-0.3015,0.3088,-0.2367,-0.2938,0.3038,-0.2715,-0.2965,0.1086,-0.4628,-0.0448,-0.0436,0.0436,-0.3719,-1.0,0.4974,1.0,-1.0,0.6908,1.0,0.1767,-0.7624,1.0,1.0,-1.0,1.0,-1.0,-1.0,1.0,-1.0,-1.0,1.0,0.0,0.0,0.0,0.0,0.0,0.0,0.0,0.0,0.0,0.0,0.0,0.0,0.0,0
0.72,run,-4.73,4.13,0.51,3.45,-29.72,0.0,0.0,0.0,0.065,-20.92,19.42,78.93,-21.97,13.71,83.58,-16.0,15.64,95.8,22.41,-4.66,101.78,-8.61,1.41,96.77,-21.53,-4.31,95.1,-26.31,15.28,84.89,-28.41,10.0,86.25,-16.5,12.95,101.06,28.59,-10.92,107.6,-16.59,-3.6,101.95,-25.59,-11.01,99.13,-1.0,0.9727,1.0,-1.0,-0.4385,1.0,-1.0,0.3259,1.0,1.0,-1.0,1.0,-1.0,-1.0,1.0,-1.0,-1.0,1.0,0.019,0.0,0.006,0.013,0.0,0.013,0.006,0.0,0.0,0.033,0.013,0.013,0.019,0.0,0.006,0.013,0.026,0.006,-0.3405,0.0199,-0.0031,-0.362,-0.0644,0.0951,-0.2592,-0.0721,0.2224,0.3651,-0.3636,0.3712,-0.1258,-0.2792,0.2792,-0.3543,-0.3543,0.2592,-0.294,-0.1421,-0.1016,-0.3116,0.1501,-0.161,-0.2963,-0.0014,0.2702,0.3007,-0.309,0.3083,-0.2637,-0.2978,0.2991,-0.2534,-0.2998,0.0818,-0.4708,-0.0328,-0.0306,0.0412,-0.4595,-1.0,0.7281,1.0,-1.0,-0.2726,-1.0,-0.3139,-0.241,0.8467,1.0,-1.0,1.0,-1.0,-1.0,1.0,-1.0,-1.0,0.9895,0.0,0.0,0.0,0.0,0.0,0.0,0.0,0.0,0.0,0.0,0.0,0.0,0.0,0
0.76,run,-4.66,4.5,1.52,10.07,-31.84,0.0,0.0,0.0,0.065,-22.41,18.02,79.01,-23.38,13.71,83.23,-16.88,15.64,97.29,23.82,-6.15,103.27,-9.93,0.0,98.09,-22.85,-5.8,95.89,-24.81,16.78,86.39,-29.91,8.5,87.75,-18.0,11.45,99.56,30.09,-12.42,109.1,-18.09,-5.1,103.45,-27.09,-12.51,100.63,-0.1586,1.0,1.0,-1.0,-0.2427,1.0,-0.6805,-0.3784,0.3709,1.0,-1.0,0.9441,-1.0,-1.0,1.0,-1.0,-1.0,1.0,0.019,0.0,0.006,0.013,0.0,0.013,0.006,0.0,0.0,0.033,0.013,0.013,0.019,0.0,0.006,0.013,0.026,0.006,-0.3651,-0.0061,-0.0061,-0.385,-0.0583,0.0844,-0.2792,-0.0675,0.2485,0.3896,-0.3881,0.3958,-0.1488,-0.3053,0.3022,-0.3743,-0.3804,0.27,-0.2977,-0.1971,-0.0826,-0.3043,0.128,-0.1529,-0.2821,0.0163,0.2868,0.3024,-0.3082,0.3077,-0.2707,-0.3061,0.2955,-0.252,-0.3075,0.0975,-0.4692,-0.0218,0.0089,0.0603,-0.5188,-1.0,0.9727,1.0,-1.0,-0.4385,1.0,-1.0,0.3259,1.0,1.0,-1.0,1.0,-1.0,-1.0,1.0,-1.0,-1.0,1.0,0.0,0.0,0.0,0.0,0.0,0.0,0.0,0.0,0.0,0.0,0.0,0.0,0.0,0
0.8,run,-4.44,4.53,4.43,1.71,-31.16,0.0,0.0,0.0,0.065,-23.82,16.88,79.72,-24.79,13.62,83.5,-17.49,15.12,98.7,25.22,-7.56,104.68,-11.34,-1.49,99.4,-24.17,-7.21,97.03,-23.31,18.28,87.89,-31.41,7.0,89.25,-19.5,9.95,101.06,31.59,-13.92,110.6,-19.59,-6.6,104.95,-28.59,-14.01,102.13,0.2694,1.0,1.0,-1.0,-0.7409,1.0,-0.9539,-0.5381,0.5837,1.0,-1.0,1.0,-1.0,-1.0,1.0,-1.0,-1.0,1.0,0.019,0.0,0.006,0.013,0.0,0.013,0.006,0.0,0.0,0.033,0.013,0.013,0.019,0.0,0.006,0.013,0.026,0.006,-0.3912,-0.0307,-0.0046,-0.4096,-0.0583,0.0782,-0.2945,-0.0675,0.2746,0.4142,-0.4142,0.4218,-0.1718,-0.3298,0.3252,-0.3973,-0.4065,0.2838,-0.3062,-0.2301,-0.0521,-0.3051,0.0896,-0.1301,-0.255,0.0114,0.2986,0.3037,-0.3136,0.3133,-0.2758,-0.3064,0.2932,-0.2628,-0.3131,0.12,-0.4632,0.0102,0.0265,0.1758,-0.5558,-0.1586,1.0,1.0,-1.0,-0.2427,1.0,-0.6805,-0.3784,0.3709,1.0,-1.0,0.9441,-1.0,-1.0,1.0,-1.0,-1.0,1.0,0.0,0.0,0.0,0.0,0.0,0.0,0.0,0.0,0.0,0.0,0.0,0.0,0.0,0
0.84,run,-4.4,4.63,0.69,4.52,-26.97,0.0,0.0,0.0,0.065,-24.87,15.91,80.51,-26.19,12.92,83.94,-18.02,14.5,99.93,26.63,-8.96,106.17,-12.74,-2.9,100.9,-25.49,-8.61,98.09,-21.81,19.78,89.39,-32.91,5.5,90.75,-21.0,9.35,102.56,33.09,-15.42,109.1,-21.09,-8.1,106.45,-30.09,-15.51,103.63,0.0622,1.0,1.0,-1.0,-1.0,1.0,-0.9041,0.6245,0.8185,1.0,-0.3176,0.397,-1.0,-1.0,1.0,-1.0,-1.0,1.0,0.006,0.0,0.045,0.019,0.019,0.006,0.013,0.026,0.0,0.039,0.006,0.006,0.026,0.0,0.006,0.006,0.019,0.026,-0.4157,-0.0506,0.0077,-0.4341,-0.0598,0.0828,-0.3053,-0.0767,0.2991,0.4387,-0.4387,0.4464,-0.1963,-0.3559,0.3482,-0.4203,-0.431,0.3037,-0.3047,-0.2344,0.0087,-0.3039,0.0571,-0.0741,-0.218,-0.0259,0.2993,0.3029,-0.3098,0.3096,-0.2834,-0.3104,0.2899,-0.2686,-0.3095,0.1574,-0.4437,0.013,0.0773,0.0299,-0.5438,0.2694,1.0,1.0,-1.0,-0.7409,1.0,-0.9539,-0.5381,0.5837,1.0,-1.0,1.0,-1.0,-1.0,1.0,-1.0,-1.0,1.0,0.0,0.0,0.0,0.0,0.0,0.0,0.0,0.0,0.0,0.0,0.0,0.0,0.0,0
0.88,run,-4.52,4.47,-3.79,-2.01,-21.21,0.0,0.0,0.0,0.065,-25.66,15.47,81.74,-27.6,11.87,85.08,-18.63,13.18,100.81,27.86,-10.37,107.49,-14.06,-4.39,102.22,-26.81,-10.11,99.49,-20.31,21.28,90.89,-34.41,4.0,92.25,-19.5,7.85,104.06,34.59,-16.92,107.6,-22.59,-9.6,107.95,-31.59,-17.01,105.13,1.0,1.0,1.0,-1.0,-0.0587,1.0,0.0438,0.176,0.8489,1.0,-0.4381,-0.4004,-1.0,-1.0,0.9016,-1.0,-1.0,1.0,0.006,0.0,0.045,0.019,0.019,0.006,0.013,0.026,0.0,0.039,0.006,0.006,0.026,0.0,0.006,0.006,0.019,0.026,-0.4341,-0.0675,0.0215,-0.4587,-0.0721,0.0905,-0.3145,-0.0874,0.3206,0.4633,-0.4633,0.4725,-0.2209,-0.3804,0.3743,-0.4433,-0.4556,0.3221,-0.2832,-0.2282,0.0586,-0.306,-0.0067,-0.0227,-0.1876,-0.0589,0.2912,0.3053,-0.3102,0.3158,-0.2917,-0.3106,0.302,-0.2755,-0.3099,0.1801,-0.4401,0.0222,0.012,0.0789,-0.4707,0.0622,1.0,1.0,-1.0,-1.0,1.0,-0.9041,0.6245,0.8185,1.0,-0.3176,0.397,-1.0,-1.0,1.0,-1.0,-1.0,1.0,0.0,0.0,0.0,0.0,0.0,0.0,0.0,0.0,0.0,0.0,0.0,0.0,0.0,0
0.92,run,-4.62,4.27,-4.14,-2.56,-18.43,0.0,0.0,0.0,0.065,-26.19,15.12,83.23,-29.0,10.55,86.13,-19.51,11.78,101.95,29.44,-11.78,108.37,-15.47,-5.71,103.62,-28.21,-11.51,101.07,-18.81,19.78,92.39,-35.0,2.5,93.75,-18.0,9.35,105.56,35.0,-15.42,106.1,-24.09,-11.1,106.45,-33.09,-18.51,103.63,1.0,0.4486,1.0,-1.0,-0.0249,0.7288,1.0,0.7636,1.0,1.0,0.9743,-0.5498,-0.9387,-1.0,-0.2024,-1.0,-1.0,0.3932,0.006,0.0,0.045,0.019,0.019,0.006,0.013,0.026,0.0,0.039,0.006,0.006,0.026,0.0,0.006,0.006,0.019,0.026,-0.4479,-0.0752,0.043,-0.4832,-0.0905,0.1104,-0.3252,-0.1104,0.3359,0.4847,-0.4878,0.4955,-0.2439,-0.4065,0.3973,-0.4663,-0.4817,0.3467,-0.2503,-0.1887,0.122,-0.3068,-0.0741,0.0593,-0.1718,-0.128,0.2617,0.2947,-0.3097,0.3079,-0.291,-0.3158,0.2982,-0.2796,-0.3153,0.2187,-0.4507,0.0081,-0.0662,-0.0351,-0.3702,1.0,1.0,1.0,-1.0,-0.0587,1.0,0.0438,0.176,0.8489,1.0,-0.4381,-0.4004,-1.0,-1.0,0.9016,-1.0,-1.0,1.0,0.0,0.0,0.0,0.0,0.0,0.0,0.0,0.0,0.0,0.0,0.0,0.0,0.0,0
0.96,run,-4.58,3.66,-0.01,-12.46,-15.96,0.0,0.0,0.0,0.065,-26.19,15.12,84.64,-30.5,9.14,87.63,-20.21,10.46,103.1,30.85,-13.1,109.34,-16.79,-7.12,105.03,-29.62,-12.83,102.66,-20.31,18.28,93.89,-35.0,4.0,92.25,-16.5,7.85,107.06,35.0,-13.92,104.6,-25.59,-12.6,104.95,-31.59,-19.41,102.13,-1.0,-0.4262,1.0,-1.0,0.7011,0.224,1.0,0.1631,1.0,1.0,1.0,-1.0,-1.0,-1.0,-0.5619,0.9798,0.1017,-0.7127,0.013,0.039,0.019,0.019,0.019,0.013,0.006,0.006,0.0,0.045,0.006,0.006,0.045,0.0,0.0,0.013,0.033,0.0,-0.4571,-0.0813,0.069,-0.5077,-0.1135,0.1289,-0.3405,-0.135,0.3559,0.5123,-0.5123,0.5108,-0.2684,-0.4295,0.4218,-0.4909,-0.5062,0.3743,-0.2099,-0.1552,0.1835,-0.3071,-0.1385,0.1108,-0.178,-0.182,0.2582,0.3102,-0.3091,0.2732,-0.296,-0.3076,0.3011,-0.2881,-0.3131,0.257,-0.4597,-0.0099,-0.0722,-0.0447,-0.3217,1.0,0.4486,1.0,-1.0,-0.0249,0.7288,1.0,0.7636,1.0,1.0,0.9743,-0.5498,-0.9387,-1.0,-0.2024,-1.0,-1.0,0.3932,0.0,0.0,0.0,0.0,0.0,0.0,0.0,0.0,0.0,0.0,0.0,0.0,0.0,0
1.0,run,-4.72,2.72,-4.61,-20.67,-12.28,0.0,0.0,0.0,0.065,-25.93,15.12,85.96,-31.82,7.82,89.03,-20.65,9.4,104.33,32.08,-14.24,109.51,-18.28,-8.61,106.35,-30.94,-14.15,103.54,-21.81,16.78,95.39,-35.0,5.5,90.75,-15.0,9.35,108.56,35.0,-12.42,103.1,-27.09,-14.1,103.45,-30.09,-17.91,100.63,-1.0,-1.0,1.0,-1.0,0.7133,-1.0,1.0,1.0,1.0,1.0,1.0,-0.9465,-1.0,-1.0,0.2614,1.0,1.0,-1.0,0.013,0.039,0.019,0.019,0.019,0.013,0.006,0.006,0.0,0.045,0.006,0.006,0.045,0.0,0.0,0.013,0.033,0.0,-0.4571,-0.0813,0.0936,-0.5338,-0.1381,0.1549,-0.3528,-0.158,0.3758,0.5369,-0.5354,0.5277,-0.2915,-0.4541,0.4464,-0.5154,-0.5292,0.4019,-0.1469,-0.1086,0.2207,-0.313,-0.1891,0.1755,-0.1707,-0.2139,0.2557,0.3094,-0.3029,0.2547,-0.2937,-0.3076,0.303,-0.2939,-0.3056,0.2836,-0.456,-0.0625,-0.0003,-0.2175,-0.2785,-1.0,-0.4262,1.0,-1.0,0.7011,0.224,1.0,0.1631,1.0,1.0,1.0,-1.0,-1.0,-1.0,-0.5619,0.9798,0.1017,-0.7127,0.0,0.0,0.0,0.0,0.0,0.0,0.0,0.0,0.0,0.0,0.0,0.0,0.0,0
1.04,run,-4.56,2.15,5.14,-12.45,-3.65,0.0,0.002,0.0,0.065,-24.87,15.38,87.36,-32.96,6.5,90.26,-20.65,8.35,105.64,33.22,-15.03,109.6,-19.69,-9.84,106.79,-31.9,-15.56,104.24,-23.31,15.28,96.89,-35.0,4.0,89.25,-13.5,10.85,110.06,35.0,-10.92,101.6,-28.59,-15.6,101.95,-28.59,-16.41,99.13,-1.0,-1.0,0.6372,-1.0,0.4996,-1.0,1.0,1.0,1.0,1.0,1.0,-1.0,-1.0,-1.0,-1.0,1.0,1.0,-1.0,0.013,0.039,0.019,0.019,0.019,0.013,0.006,0.006,0.0,0.045,0.006,0.006,0.045,0.0,0.0,0.013,0.033,0.0,-0.4525,-0.0813,0.1166,-0.5568,-0.1611,0.1795,-0.3605,-0.1764,0.3973,0.5584,-0.5553,0.5308,-0.3175,-0.4801,0.4694,-0.5384,-0.5522,0.4172,-0.0856,-0.076,0.2408,-0.3054,-0.2188,0.215,-0.1483,-0.2188,0.2596,0.2972,-0.2868,0.1898,-0.3034,-0.3132,0.2985,-0.2921,-0.3003,0.2561,-0.468,-0.145,-0.0805,-0.3607,-0.2143,-1.0,-1.0,1.0,-1.0,0.7133,-1.0,1.0,1.0,1.0,1.0,1.0,-0.9464,-1.0,-1.0,0.2614,1.0,1.0,-1.0,0.0,0.0,0.0,0.0,0.0,0.0,0.0,0.0,0.0,0.0133,0.0,0.0133,0.0,0
1.08,run,-4.59,1.49,1.2,-14.53,2.14,0.0,0.004,0.0,0.078,-23.99,15.73,88.77,-33.75,5.62,91.23,-20.65,8.09,106.88,33.93,-15.56,109.07,-21.18,-11.16,107.58,-32.61,-16.61,104.77,-24.81,13.78,98.39,-35.0,5.5,87.75,-12.0,12.35,111.56,35.0,-9.42,100.1,-30.09,-17.1,100.45,-27.09,-14.91,97.63,-1.0,-1.0,0.763,-1.0,0.5796,-1.0,1.0,1.0,1.0,1.0,1.0,-0.7263,-1.0,-1.0,-0.1849,1.0,1.0,-1.0,0.0,0.078,0.026,0.006,0.013,0.0,0.019,0.0,0.0,0.026,0.006,0.013,0.013,0.0,0.026,0.006,0.026,0.0,-0.4341,-0.0767,0.1411,-0.5768,-0.1841,0.201,-0.3605,-0.1948,0.4203,0.5783,-0.5691,0.5323,-0.3421,-0.5016,0.4771,-0.5553,-0.5768,0.4295,0.0091,-0.036,0.2605,-0.2885,-0.2393,0.2309,-0.1038,-0.2221,0.2679,0.2827,-0.2525,0.1386,-0.3044,-0.2997,0.2377,-0.2677,-0.3021,0.2253,-0.4543,-0.195,0.0897,-0.2174,-0.0638,-1.0,-1.0,0.6372,-1.0,0.4996,-1.0,1.0,1.0,1.0,1.0,1.0,-1.0,-1.0,-1.0,-1.0,1.0,1.0,-1.0,0.0,0.0,0.0,0.0,0.0,0.0,0.0,0.0,0.0,0.0267,0.0,0.0267,0.0,0
1.12,run,-4.85,1.02,-3.88,-12.37,3.78,0.0,0.006,0.0,0.078,-23.64,15.91,90.26,-34.37,4.83,91.85,-19.86,7.73,108.28,34.37,-15.73,108.37,-22.59,-12.57,107.58,-32.96,-17.49,104.85,-26.31,12.28,99.89,-35.0,7.0,86.25,-10.5,13.85,113.06,35.0,-7.92,98.6,-31.59,-18.6,98.95,-25.59,-13.41,96.13,-1.0,-1.0,0.749,-1.0,0.695,-1.0,1.0,1.0,1.0,1.0,1.0,-0.8578,-1.0,-1.0,-0.6129,1.0,1.0,-1.0,0.0,0.078,0.026,0.006,0.013,0.0,0.019,0.0,0.0,0.026,0.006,0.013,0.013,0.0,0.026,0.006,0.026,0.0,-0.4188,-0.0706,0.1657,-0.5906,-0.1994,0.2178,-0.3605,-0.1994,0.4418,0.5906,-0.5783,0.5231,-0.3682,-0.5246,0.4909,-0.5676,-0.5952,0.4387,0.0639,-0.0022,0.2744,-0.2537,-0.2251,0.2249,-0.0727,-0.1727,0.2681,0.2439,-0.2113,0.0625,-0.3109,-0.2961,0.2181,-0.2334,-0.2805,0.1922,-0.4567,-0.252,0.0209,-0.2536,0.0373,-1.0,-1.0,0.763,-1.0,0.5796,-1.0,1.0,1.0,1.0,1.0,1.0,-0.7263,-1.0,-1.0,-0.1849,1.0,1.0,-1.0,0.0,0.0,0.0,0.0,0.0,0.0,0.0,0.0,0.0,0.04,0.0,0.04,0.0,0
1.16,run,-5.11,0.93,-3.07,-2.5,3.81,0.0,0.008,0.0,0.078,-23.29,15.91,91.67,-34.72,4.48,92.2,-18.72,7.91,109.42,34.54,-15.73,107.31,-24.08,-13.62,107.58,-32.96,-18.11,104.77,-27.81,10.78,101.39,-35.0,8.5,84.75,-9.0,15.35,114.56,35.0,-6.42,97.1,-33.09,-20.1,97.45,-24.09,-11.91,94.63,-1.0,-1.0,0.724,-1.0,1.0,-1.0,1.0,1.0,1.0,1.0,1.0,-1.0,-1.0,-1.0,-0.0265,1.0,1.0,-1.0,0.0,0.078,0.026,0.006,0.013,0.0,0.019,0.0,0.0,0.026,0.006,0.013,0.013,0.0,0.026,0.006,0.026,0.0,-0.4126,-0.0675,0.1917,-0.6013,-0.2132,0.2286,-0.3467,-0.2056,0.4663,0.5983,-0.5814,0.5108,-0.3927,-0.5492,0.4909,-0.5737,-0.6105,0.4403,0.0677,0.01,0.2898,-0.2178,-0.2093,0.1977,0.0009,-0.1439,0.2796,0.1995,-0.1594,-0.0022,-0.3095,-0.2992,0.1527,-0.1864,-0.2538,0.1403,-0.4793,-0.2933,-0.0677,-0.2159,0.066,-1.0,-1.0,0.749,-1.0,0.695,-1.0,1.0,1.0,1.0,1.0,1.0,-0.8578,-1.0,-1.0,-0.6129,1.0,1.0,-1.0,0.0,0.0,0.0,0.0,0.0,0.0,0.0,0.0,0.0,0.0533,0.0,0.0533,0.0,0
1.2,run,-5.55,0.91,-7.43,-1.82,6.09,0.0,0.01,0.0,0.078,-23.55,15.91,93.08,-34.72,4.48,92.02,-17.4,8.44,110.65,34.54,-15.21,106.0,-25.4,-15.21,106.88,-32.43,-18.37,104.06,-29.31,9.28,102.89,-35.0,10.0,83.25,-7.5,13.85,116.06,35.0,-4.92,95.6,-34.59,-21.6,95.95,-22.59,-10.41,93.13,-1.0,-1.0,1.0,-1.0,1.0,-1.0,1.0,-0.2616,1.0,1.0,1.0,-1.0,-1.0,-1.0,0.2502,1.0,1.0,-1.0,0.019,0.0,0.026,0.006,0.0,0.006,0.013,0.045,0.0,0.019,0.033,0.019,0.026,0.013,0.045,0.006,0.006,0.019,-0.4065,-0.0675,0.2163,-0.6075,-0.2194,0.2347,-0.3267,-0.2025,0.4863,0.6013,-0.5814,0.4924,-0.4188,-0.5676,0.4909,-0.5737,-0.6213,0.4387,0.0704,0.007,0.295,-0.1755,-0.1695,0.1614,0.0755,-0.0892,0.2706,0.1512,-0.1116,-0.0707,-0.3146,-0.2785,0.1069,-0.1305,-0.218,0.0924,-0.502,-0.3009,-0.0535,-0.0436,0.0665,-1.0,-1.0,0.724,-1.0,1.0,-1.0,1.0,1.0,1.0,1.0,1.0,-1.0,-1.0,-1.0,-0.0265,1.0,1.0,-1.0,0.0,0.0,0.0,0.0,0.0,0.0,0.0,0.0,0.0,0.0667,0.0,0.0667,0.0,0
1.24,run,-6.17,1.37,-14.41,10.42,13.41,0.0,0.012,0.0,0.078,-24.35,15.12,94.48,-34.72,4.57,91.58,-16.0,9.14,111.97,34.63,-14.5,104.68,-26.89,-16.96,105.12,-31.46,-18.46,103.18,-30.81,7.78,104.39,-35.0,11.5,81.75,-6.0,12.35,117.56,35.0,-3.42,94.1,-35.0,-23.1,97.45,-21.09,-8.91,91.63,-1.0,-1.0,1.0,-1.0,1.0,-1.0,1.0,-0.5357,1.0,1.0,1.0,-1.0,-1.0,-1.0,0.8137,1.0,1.0,-1.0,0.019,0.0,0.026,0.006,0.0,0.006,0.013,0.045,0.0,0.019,0.033,0.019,0.026,0.013,0.045,0.006,0.006,0.019,-0.4111,-0.0675,0.2408,-0.6075,-0.2194,0.2316,-0.3037,-0.1933,0.5077,0.6013,-0.5722,0.4694,-0.4418,-0.5952,0.4786,-0.5645,-0.6259,0.4264,0.0321,0.0049,0.2985,-0.1229,-0.1187,0.1015,0.139,-0.028,0.2699,0.1058,-0.0436,-0.1357,-0.3064,-0.2984,0.0288,-0.0568,-0.1698,0.0187,-0.541,-0.3024,-0.1296,-0.0318,0.1064,-1.0,-1.0,1.0,-1.0,1.0,-1.0,1.0,-0.2616,1.0,1.0,1.0,-1.0,-1.0,-1.0,0.2502,1.0,1.0,-1.0,0.0,0.0,0.0,0.0,0.0,0.0,0.0,0.0,0.0,0.08,0.0,0.08,0.0,0
1.28,run,-5.65,2.19,2.57,4.29,2.66,0.0,0.014,0.0,0.117,-29.36,9.67,100.46,-34.8,8.61,86.4,-10.11,11.25,116.72,35.16,-9.49,98.44,-32.78,-21.8,99.05,-26.02,-14.94,97.38,-32.31,6.28,105.89,-35.0,13.0,80.25,-4.5,10.85,119.06,35.0,-1.92,92.6,-35.0,-24.6,98.95,-19.59,-7.41,90.13,-1.0,-1.0,1.0,-1.0,1.0,-1.0,1.0,-1.0,1.0,1.0,1.0,-1.0,-1.0,-1.0,1.0,1.0,1.0,-1.0,0.006,0.0,0.033,0.006,0.013,0.019,0.026,0.026,0.006,0.006,0.117,0.0,0.006,0.019,0.0,0.026,0.026,0.019,-0.4249,-0.0813,0.2654,-0.6075,-0.2178,0.224,-0.2792,-0.181,0.5308,0.6029,-0.5599,0.4464,-0.4679,-0.6259,0.4479,-0.5476,-0.6274,0.4111,-0.0294,-0.0485,0.3012,-0.086,-0.0773,0.0422,0.1896,0.0265,0.2754,0.0798,0.0156,-0.1814,-0.3125,-0.3242,-0.0951,0.0236,-0.1247,-0.0445,-0.5944,-0.2626,-0.2515,0.1818,0.234,-1.0,-1.0,1.0,-1.0,1.0,-1.0,1.0,-0.5357,1.0,1.0,1.0,-1.0,-1.0,-1.0,0.8137,1.0,1.0,-1.0,0.0,0.0,0.0,0.0,0.0,0.0,0.0,0.0,0.0,0.0933,0.0,0.0933,0.0,0
1.32,run,-5.3,2.32,6.58,2.11,4.39,0.0,0.016,0.0,0.117,-30.59,8.53,101.69,-34.8,9.93,84.9,-8.7,11.34,117.33,35.24,-8.09,96.86,-33.75,-22.59,98.26,-24.61,-13.54,95.8,-30.93,4.78,107.39,-35.0,14.5,81.75,-3.0,9.35,120.56,33.5,-0.42,91.1,-35.0,-26.1,100.45,-18.09,-5.91,91.63,-0.8837,-1.0,1.0,-1.0,1.0,0.949,1.0,-1.0,1.0,-0.252,1.0,-1.0,-1.0,-1.0,1.0,1.0,1.0,1.0,0.006,0.0,0.033,0.006,0.013,0.019,0.026,0.026,0.006,0.006,0.117,0.0,0.006,0.019,0.0,0.026,0.026,0.019,-0.5123,-0.1764,0.3697,-0.609,-0.1473,0.1335,-0.1764,-0.1442,0.6136,0.6121,-0.4725,0.3375,-0.5706,-0.7102,0.3421,-0.4525,-0.566,0.3099,-0.0984,-0.1185,0.3036,-0.0616,0.0087,-0.0509,0.2241,0.0513,0.2664,0.0641,0.0887,-0.2239,-0.3102,-0.302,-0.1607,0.1011,-0.0327,-0.1212,-0.5493,-0.1911,0.0448,0.0749,0.0464,-1.0,-1.0,1.0,-1.0,1.0,-1.0,1.0,-1.0,1.0,1.0,1.0,-1.0,-1.0,-1.0,1.0,1.0,1.0,-1.0,0.0,0.0,0.0,0.0,0.0,0.0,0.0,0.0,0.0,0.1067,0.0,0.1067,0.0,0
1.36,run,-4.89,2.43,10.16,1.0,8.21,0.0,0.018,0.0,0.117,-31.2,7.47,102.92,-34.89,10.81,83.58,-7.29,11.25,118.12,35.24,-6.68,95.36,-34.45,-23.55,97.73,-23.12,-12.22,94.48,-29.43,3.28,105.89,-35.0,16.0,83.25,-1.5,7.85,122.06,32.0,-1.92,89.6,-35.0,-27.6,101.95,-19.59,-4.41,93.13,-0.1491,-1.0,-0.9799,-1.0,1.0,1.0,1.0,-1.0,1.0,-1.0,-1.0,-1.0,-1.0,-1.0,1.0,-1.0,1.0,1.0,0.006,0.0,0.033,0.006,0.013,0.019,0.026,0.026,0.006,0.006,0.117,0.0,0.006,0.019,0.0,0.026,0.026,0.019,-0.5338,-0.1963,0.3912,-0.609,-0.1243,0.1074,-0.1519,-0.1427,0.6243,0.6136,-0.4479,0.3099,-0.5875,-0.724,0.3283,-0.428,-0.5415,0.2823,-0.1475,-0.156,0.2911,-0.0431,0.0903,-0.1311,0.2467,0.0415,0.2258,0.0505,0.1519,-0.2578,-0.2789,-0.2619,-0.163,0.1606,0.067,-0.1859,-0.5189,-0.18,0.1149,0.0368,0.0767,-0.8837,-1.0,1.0,-1.0,1.0,0.949,1.0,-1.0,1.0,-0.252,1.0,-1.0,-1.0,-1.0,1.0,1.0,1.0,1.0,0.0,0.0,0.0,0.0,0.0,0.0,0.0,0.0,0.0,0.12,0.0,0.12,0.0,0
1.4,run,-4.72,2.12,4.95,-7.9,4.69,0.0,0.02,0.0,0.123,-31.99,6.24,103.97,-34.8,11.87,82.44,-5.98,10.37,119.09,34.8,-5.45,94.04,-34.8,-24.7,97.47,-21.8,-10.9,93.34,-30.93,1.78,104.39,-34.97,14.5,84.75,0.0,6.35,123.56,30.5,-3.42,91.1,-35.0,-29.1,103.45,-21.09,-5.91,94.63,-1.0,-1.0,-1.0,-0.9991,-0.0873,1.0,1.0,-1.0,1.0,-1.0,-1.0,1.0,-1.0,-1.0,1.0,-1.0,-0.4295,1.0,0.013,0.0,0.033,0.0,0.045,0.013,0.019,0.0,0.013,0.026,0.123,0.0,0.006,0.026,0.013,0.013,0.045,0.013,-0.5446,-0.2148,0.4126,-0.6105,-0.1089,0.0844,-0.1273,-0.1442,0.6381,0.6136,-0.4234,0.2838,-0.5998,-0.7409,0.3191,-0.4019,-0.5185,0.2592,-0.1432,-0.1776,0.2837,-0.0359,0.1202,-0.1773,0.264,0.0234,0.2094,0.0353,0.1976,-0.2774,-0.2409,-0.2461,-0.1484,0.2094,0.1324,-0.2157,-0.4832,-0.1701,0.1773,0.0174,0.1433,-0.1491,-1.0,-0.9799,-1.0,1.0,1.0,1.0,-1.0,1.0,-1.0,-1.0,-1.0,-1.0,-1.0,1.0,-1.0,1.0,1.0,0.0,0.0,0.0,0.0,0.0,0.0,0.0,0.0,0.0,0.1333,0.0,0.1333,0.0,0
1.44,run,-4.47,1.63,7.42,-12.69,0.22,0.0,0.022,0.0,0.123,-32.17,5.1,105.12,-34.8,12.92,81.39,-4.57,9.32,120.23,34.28,-4.48,92.72,-34.89,-26.02,97.82,-20.83,-9.58,92.37,-32.43,0.28,102.89,-33.47,15.19,86.25,1.5,4.85,125.06,29.0,-4.92,92.6,-33.5,-30.6,104.95,-22.59,-7.41,96.13,-1.0,-1.0,0.0022,0.2946,0.7307,1.0,1.0,-1.0,1.0,-0.1403,-0.775,1.0,-0.77,-1.0,1.0,-1.0,-1.0,1.0,0.013,0.0,0.033,0.0,0.045,0.013,0.019,0.0,0.013,0.026,0.123,0.0,0.006,0.026,0.013,0.013,0.045,0.013,-0.5584,-0.2362,0.431,-0.609,-0.0905,0.0644,-0.1043,-0.1595,0.655,0.6059,-0.4019,0.2608,-0.6059,-0.7609,0.3145,-0.3789,-0.4955,0.2393,-0.1519,-0.2047,0.2674,-0.0194,0.153,-0.1987,0.2709,-0.041,0.2097,-0.004,0.2187,-0.2803,-0.1916,-0.2469,-0.1211,0.2327,0.1788,-0.2256,-0.4684,-0.1972,0.0863,-0.138,0.0818,-1.0,-1.0,-1.0,-0.9991,-0.0873,1.0,1.0,-1.0,1.0,-1.0,-1.0,1.0,-1.0,-1.0,1.0,-1.0,-0.4295,1.0,0.0,0.0,0.0,0.0,0.0,0.0,0.0,0.0,0.0,0.1467,0.0,0.1467,0.0,0
1.48,run,-4.34,1.45,5.14,-3.89,-4.72,0.0,0.024,0.0,0.123,-32.34,3.78,105.91,-34.89,13.62,80.86,-3.08,8.0,121.55,33.31,-3.87,91.76,-34.89,-27.33,98.61,-20.04,-8.53,91.67,-33.93,-1.22,101.39,-31.97,13.69,87.75,3.0,3.35,126.56,27.5,-6.42,94.1,-32.0,-32.1,106.45,-24.09,-8.91,97.63,-1.0,-1.0,-0.967,1.0,-0.2105,0.8943,1.0,-1.0,1.0,-0.8079,0.1929,1.0,-0.3858,-1.0,1.0,-1.0,-1.0,1.0,0.013,0.0,0.033,0.0,0.045,0.013,0.019,0.0,0.013,0.026,0.123,0.0,0.006,0.026,0.013,0.013,0.045,0.013,-0.5614,-0.2562,0.451,-0.609,-0.0721,0.046,-0.0798,-0.1779,0.675,0.5967,-0.385,0.2378,-0.6075,-0.7839,0.3206,-0.362,-0.4725,0.2224,-0.1178,-0.2182,0.2622,-0.0136,0.1763,-0.2083,0.2819,-0.0979,0.2218,-0.0374,0.2165,-0.2827,-0.1399,-0.2593,-0.0617,0.2263,0.2116,-0.2214,-0.4467,-0.2403,0.1295,-0.2215,0.0038,-1.0,-1.0,0.0022,0.2946,0.7307,1.0,1.0,-1.0,1.0,-0.1403,-0.775,1.0,-0.77,-1.0,1.0,-1.0,-1.0,1.0,0.0,0.0,0.0,0.0,0.0,0.0,0.0,0.0,0.0,0.16,0.0,0.16,0.0,0
1.52,run,-4.46,1.06,-2.06,-9.54,-8.96,0.0,0.026,0.0,0.163,-32.7,2.55,106.52,-35.07,14.15,80.51,-1.76,6.59,122.96,32.08,-3.43,90.97,-34.54,-28.83,99.67,-19.6,-7.73,91.32,-35.0,-2.72,99.89,-30.47,12.19,89.25,4.5,1.85,128.06,26.0,-7.92,92.6,-30.5,-33.6,107.95,-25.59,-10.41,99.13,-1.0,-1.0,-1.0,1.0,-0.3763,1.0,1.0,-1.0,1.0,-1.0,-1.0,-0.1871,-0.2297,-1.0,1.0,-1.0,-1.0,1.0,0.013,0.006,0.006,0.019,0.065,0.006,0.026,0.006,0.006,0.084,0.163,0.0,0.006,0.026,0.006,0.006,0.039,0.0,-0.5645,-0.2792,0.4648,-0.6105,-0.0598,0.0368,-0.0537,-0.201,0.698,0.5798,-0.3743,0.2209,-0.6075,-0.8069,0.3344,-0.3482,-0.4541,0.2102,-0.0939,-0.2386,0.235,-0.0152,0.1692,-0.1802,0.2946,-0.1544,0.2411,-0.0891,0.1916,-0.2609,-0.0979,-0.2674,0.0084,0.2099,0.2169,-0.2008,-0.435,-0.2553,0.0897,-0.0679,-0.0824,-1.0,-1.0,-0.967,1.0,-0.2105,0.8943,1.0,-1.0,1.0,-0.8079,0.1929,1.0,-0.3858,-1.0,1.0,-1.0,-1.0,1.0,0.0,0.0,0.0,0.0,0.0,0.0,0.0,0.0,0.0,0.1733,0.0,0.1733,0.0,0
1.56,run,-4.42,0.63,1.08,-8.82,-3.66,0.0,0.028,0.0,0.163,-33.31,1.14,106.61,-34.28,14.5,80.95,-0.35,5.19,124.37,30.76,-3.34,90.7,-33.57,-30.15,100.81,-19.6,-7.21,91.32,-35.0,-4.22,98.39,-28.97,10.69,90.75,6.0,0.35,129.56,24.5,-9.42,94.1,-29.0,-35.1,109.45,-27.09,-11.91,100.63,-1.0,-1.0,-1.0,1.0,-0.8099,1.0,1.0,-1.0,1.0,-0.9605,-1.0,1.0,1.0,-1.0,1.0,-1.0,-1.0,1.0,0.013,0.006,0.006,0.019,0.065,0.006,0.026,0.006,0.006,0.084,0.163,0.0,0.006,0.026,0.006,0.006,0.039,0.0,-0.5706,-0.3007,0.4755,-0.6136,-0.0506,0.0307,-0.0307,-0.2255,0.7225,0.5584,-0.3666,0.2071,-0.6013,-0.833,0.3528,-0.3405,-0.4403,0.204,-0.0887,-0.2475,0.2047,-0.0221,0.1529,-0.1491,0.2924,-0.2,0.2607,-0.1428,0.1629,-0.2343,-0.0455,-0.2848,0.0748,0.1757,0.2035,-0.1635,-0.4454,-0.2896,-0.036,-0.1665,-0.1564,-1.0,-1.0,-1.0,1.0,-0.3763,1.0,1.0,-1.0,1.0,-1.0,-1.0,-0.1871,-0.2297,-1.0,1.0,-1.0,-1.0,1.0,0.0,0.0,0.0,0.0,0.0,0.0,0.0,0.0,0.0,0.1867,0.0,0.1867,0.0,0
1.6,run,-4.41,0.15,1.34,-10.07,2.58,0.0,0.03,0.0,0.163,-34.1,-0.18,106.61,-33.4,14.5,81.47,1.14,3.78,125.77,29.44,-3.34,90.44,-32.52,-31.46,102.3,-19.86,-7.03,91.23,-35.0,-5.72,96.89,-27.47,9.19,92.25,7.5,-1.15,131.06,23.0,-10.92,92.6,-27.5,-36.6,110.95,-28.59,-13.41,102.13,-1.0,-1.0,-1.0,1.0,-1.0,1.0,1.0,-1.0,1.0,-0.6855,-0.9903,0.1103,1.0,-1.0,1.0,-1.0,-1.0,1.0,0.013,0.006,0.006,0.019,0.065,0.006,0.026,0.006,0.006,0.084,0.163,0.0,0.006,0.026,0.006,0.006,0.039,0.0,-0.5814,-0.3252,0.4771,-0.5998,-0.0445,0.0383,-0.0061,-0.25,0.747,0.5354,-0.3651,0.2025,-0.5844,-0.856,0.3728,-0.3405,-0.431,0.204,-0.1026,-0.2658,0.1491,0.0366,0.1302,-0.0754,0.2973,-0.2326,0.2751,-0.1868,0.1198,-0.1814,0.0318,-0.2862,0.1276,0.123,0.1772,-0.1145,-0.4419,-0.3269,0.0189,-0.1539,-0.0639,-1.0,-1.0,-1.0,1.0,-0.8099,1.0,1.0,-1.0,1.0,-0.9605,-1.0,1.0,1.0,-1.0,1.0,-1.0,-1.0,1.0,0.0,0.0,0.0,0.0,0.0,0.0,0.0,0.0,0.0,0.2,0.0,0.2,0.0,0
1.64,run,-4.36,-0.23,1.48,-7.81,1.38,0.0,0.032,0.0,0.169,-34.72,-1.49,106.0,-32.26,14.5,82.35,2.46,2.37,127.18,28.04,-3.43,90.7,-31.2,-32.87,103.71,-20.74,-7.03,92.46,-35.0,-7.22,95.39,-25.97,7.69,93.75,9.0,-2.65,132.56,21.5,-12.42,94.1,-26.0,-38.1,112.45,-30.09,-14.91,103.63,-1.0,-1.0,-1.0,1.0,-1.0,1.0,1.0,-1.0,1.0,-0.489,-0.579,0.6342,1.0,-1.0,1.0,-1.0,-1.0,1.0,0.006,0.013,0.006,0.045,0.0,0.033,0.026,0.006,0.0,0.169,0.0,0.078,0.006,0.026,0.013,0.006,0.0,0.013,-0.5952,-0.3482,0.4771,-0.5844,-0.0445,0.0476,0.0199,-0.2746,0.7716,0.5123,-0.3651,0.1979,-0.566,-0.879,0.3988,-0.3451,-0.428,0.2025,-0.1233,-0.2718,0.1044,0.0828,0.0911,-0.0185,0.3053,-0.2543,0.284,-0.2165,0.0839,-0.1441,0.0908,-0.2861,0.1865,0.0689,0.1355,-0.0858,-0.4409,-0.3691,0.0235,-0.1758,0.0451,-1.0,-1.0,-1.0,1.0,-1.0,1.0,1.0,-1.0,1.0,-0.6855,-0.9903,0.1103,1.0,-1.0,1.0,-1.0,-1.0,1.0,0.0,0.0,0.0,0.0,0.0,0.0,0.0,0.0,0.0,0.2133,0.0,0.2133,0.0,0
1.68,run,-4.2,-0.38,5.29,-1.52,-5.1,0.0,0.034,0.0,0.169,-34.98,-2.9,105.12,-30.94,13.71,83.5,3.87,0.97,128.58,26.72,-4.22,91.14,-29.79,-34.28,105.12,-21.8,-7.47,93.52,-35.0,-8.72,93.89,-24.47,6.19,95.25,10.5,-4.15,134.06,20.0,-13.92,92.6,-24.5,-39.6,113.95,-31.59,-16.41,105.13,-1.0,-1.0,-1.0,1.0,-1.0,1.0,1.0,-1.0,1.0,-0.5688,-0.896,-0.254,1.0,-1.0,1.0,-1.0,-1.0,1.0,0.006,0.013,0.006,0.045,0.0,0.033,0.026,0.006,0.0,0.169,0.0,0.078,0.006,0.026,0.013,0.006,0.0,0.013,-0.6059,-0.3712,0.4663,-0.5645,-0.0445,0.0629,0.043,-0.2991,0.7961,0.4878,-0.3666,0.2025,-0.543,-0.9035,0.4234,-0.3605,-0.428,0.224,-0.1266,-0.2766,0.0328,0.1328,0.0638,0.0446,0.3001,-0.2701,0.2909,-0.2437,0.0529,-0.0836,0.15,-0.2924,0.2227,-0.0093,0.0948,0.0205,-0.4371,-0.4021,0.0259,-0.1362,0.024,-1.0,-1.0,-1.0,1.0,-1.0,1.0,1.0,-1.0,1.0,-0.489,-0.579,0.6342,1.0,-1.0,1.0,-1.0,-1.0,1.0,0.0,0.0,0.0,0.0,0.0,0.0,0.0,0.0,0.0,0.2267,0.0,0.2267,0.0,0
1.72,run,-4.2,-0.47,-0.2,-0.69,-4.78,0.0,0.036,0.0,0.169,-34.98,-3.78,104.15,-29.71,12.66,84.81,5.27,-0.44,129.46,25.31,-5.36,92.02,-28.39,-35.77,106.52,-23.12,-8.26,94.92,-35.0,-10.22,92.39,-22.97,4.69,96.75,12.0,-5.65,135.56,18.5,-15.42,94.1,-23.0,-41.1,115.45,-33.09,-17.91,106.63,-1.0,-1.0,-1.0,1.0,-1.0,1.0,1.0,-1.0,1.0,-0.7504,-0.7592,0.7983,1.0,-1.0,1.0,-1.0,-1.0,1.0,0.006,0.013,0.006,0.045,0.0,0.033,0.026,0.006,0.0,0.169,0.0,0.078,0.006,0.026,0.013,0.006,0.0,0.013,-0.6105,-0.3958,0.451,-0.5415,-0.0583,0.0828,0.0675,-0.3237,0.8207,0.4648,-0.3804,0.2102,-0.5185,-0.9281,0.4479,-0.3789,-0.4357,0.2424,-0.1059,-0.2856,-0.0345,0.1792,-0.0071,0.106,0.302,-0.281,0.2956,-0.2568,-0.0147,-0.0298,0.1969,-0.2966,0.2478,-0.0755,0.0376,0.0833,-0.4225,-0.415,0.0923,-0.0266,-0.089,-1.0,-1.0,-1.0,1.0,-1.0,1.0,1.0,-1.0,1.0,-0.5688,-0.896,-0.254,1.0,-1.0,1.0,-1.0,-1.0,1.0,0.0,0.0,0.0,0.0,0.0,0.0,0.0,0.0,0.0,0.24,0.0,0.24,0.0,0
1.76,run,-4.39,-0.22,-4.84,7.99,-2.23,0.0,0.038,0.0,0.169,-34.98,-5.54,102.66,-28.21,11.34,86.22,6.68,-1.76,130.61,23.64,-6.68,92.64,-26.98,-37.09,108.02,-24.52,-9.49,96.68,-35.0,-11.72,90.89,-21.47,3.19,98.25,13.5,-7.15,137.06,17.0,-16.92,92.6,-21.5,-42.6,116.95,-34.59,-19.41,108.13,-1.0,-1.0,-1.0,1.0,-1.0,1.0,1.0,-1.0,1.0,-0.4499,-1.0,-0.4464,1.0,-1.0,1.0,-1.0,-1.0,1.0,0.0,0.013,0.019,0.065,0.0,0.045,0.019,0.013,0.033,0.065,0.0,0.071,0.013,0.033,0.006,0.019,0.0,0.013,-0.6105,-0.4111,0.4341,-0.52,-0.0767,0.1058,0.092,-0.3482,0.836,0.4403,-0.4004,0.2255,-0.4939,-0.9541,0.4725,-0.4019,-0.4495,0.2669,-0.0741,-0.2575,-0.0875,0.206,-0.0741,0.1605,0.3035,-0.2889,0.2645,-0.2719,-0.0851,0.0367,0.23,-0.3055,0.2656,-0.1392,-0.0255,0.1505,-0.4227,-0.4233,-0.0035,-0.0121,-0.0834,-1.0,-1.0,-1.0,1.0,-1.0,1.0,1.0,-1.0,1.0,-0.7504,-0.7592,0.7983,1.0,-1.0,1.0,-1.0,-1.0,1.0,0.0,0.0,0.0,0.0,0.0,0.0,0.0,0.0,0.0,0.2533,0.0,0.2533,0.0,0
1.8,run,-4.65,-0.01,-6.82,6.11,4.03,0.0,0.04,0.0,0.169,-35.16,-6.86,101.25,-26.89,10.02,87.63,8.17,-3.16,131.75,22.06,-8.0,92.9,-25.58,-38.32,109.42,-25.93,-10.9,97.82,-35.0,-13.22,89.39,-19.97,1.69,99.75,15.0,-8.65,138.56,15.5,-18.42,91.1,-20.0,-44.1,118.45,-35.0,-20.91,109.63,-1.0,-0.9907,-1.0,1.0,-1.0,1.0,1.0,-1.0,1.0,-0.1252,-1.0,0.1808,1.0,-1.0,1.0,-1.0,-1.0,1.0,0.0,0.013,0.019,0.065,0.0,0.045,0.019,0.013,0.033,0.065,0.0,0.071,0.013,0.033,0.006,0.019,0.0,0.013,-0.6105,-0.4418,0.408,-0.4939,-0.0997,0.1304,0.1166,-0.3712,0.856,0.4111,-0.4234,0.2362,-0.4694,-0.9771,0.4985,-0.4264,-0.4709,0.2976,-0.0519,-0.2954,-0.1591,0.2421,-0.1382,0.2045,0.3046,-0.2886,0.26,-0.2997,-0.1459,0.066,0.2531,-0.3002,0.2838,-0.1896,-0.0984,0.2205,-0.4398,-0.4013,-0.0845,0.1394,-0.039,-1.0,-1.0,-1.0,1.0,-1.0,1.0,1.0,-1.0,1.0,-0.4499,-1.0,-0.4464,1.0,-1.0,1.0,-1.0,-1.0,1.0,0.0,0.0,0.0,0.0,0.0,0.0,0.0,0.0,0.0,0.2667,0.0,0.2667,0.0,0
1.84,run,-4.9,0.55,-4.28,13.31,4.42,0.0,0.042,0.0,0.169,-35.07,-8.35,99.67,-25.4,8.61,89.12,9.58,-4.66,132.89,20.57,-9.23,92.99,-24.08,-39.64,111.01,-27.25,-12.39,99.32,-35.0,-14.72,87.89,-18.47,0.19,101.25,16.5,-10.15,140.06,14.0,-19.92,89.6,-18.5,-45.6,119.95,-35.0,-22.41,111.13,-1.0,-0.4224,-1.0,1.0,-1.0,1.0,1.0,-0.6514,1.0,0.2271,-1.0,-0.4198,1.0,-1.0,1.0,-1.0,-1.0,1.0,0.0,0.013,0.019,0.065,0.0,0.045,0.019,0.013,0.033,0.065,0.0,0.071,0.013,0.033,0.006,0.019,0.0,0.013,-0.6136,-0.4648,0.3835,-0.4709,-0.1227,0.1549,0.1427,-0.3958,0.8759,0.3835,-0.4464,0.2408,-0.4449,-0.9986,0.5231,-0.451,-0.4955,0.3175,-0.0479,-0.2934,-0.2038,0.2561,-0.1834,0.2356,0.3114,-0.2944,0.2571,-0.3137,-0.1888,0.0635,0.2696,-0.291,0.2911,-0.2251,-0.1613,0.2294,-0.462,-0.3831,-0.1191,0.1067,0.0704,-1.0,-0.9907,-1.0,1.0,-1.0,1.0,1.0,-1.0,1.0,-0.1252,-1.0,0.1808,1.0,-1.0,1.0,-1.0,-1.0,1.0,0.0,0.0,0.0,0.0,0.0,0.0,0.0,0.0,0.0,0.28,0.0,0.28,0.0,0
1.88,run,-5.07,0.87,-5.0,6.29,-11.1,0.0,0.044,0.0,0.169,-35.07,-9.76,98.26,-23.82,7.29,90.53,10.99,-6.06,134.03,18.9,-10.55,92.81,-22.68,-41.04,112.24,-28.74,-13.71,100.55,-35.0,-13.22,86.39,-16.97,-1.31,102.75,18.0,-11.65,141.56,12.5,-21.42,88.1,-17.0,-47.1,121.45,-35.0,-23.91,112.63,-1.0,0.3525,-1.0,1.0,-1.0,1.0,1.0,-0.1516,1.0,0.3388,-1.0,-0.5604,1.0,-1.0,1.0,-1.0,-1.0,1.0,0.0,0.019,0.019,0.039,0.0,0.039,0.019,0.013,0.149,0.033,0.0,0.0,0.013,0.104,0.013,0.019,0.0,0.013,-0.6121,-0.4909,0.3559,-0.4449,-0.1473,0.181,0.1672,-0.4218,0.8958,0.3574,-0.4679,0.2424,-0.4188,-1.0216,0.5507,-0.474,-0.5216,0.3436,-0.0278,-0.3028,-0.2458,0.2767,-0.22,0.2623,0.3097,-0.3035,0.2545,-0.317,-0.2124,0.0502,0.2861,-0.2897,0.3069,-0.2435,-0.2103,0.258,-0.4838,-0.3339,-0.0747,0.2323,0.0772,-1.0,-0.4224,-1.0,1.0,-1.0,1.0,1.0,-0.6514,1.0,0.2271,-1.0,-0.4198,1.0,-1.0,1.0,-1.0,-1.0,1.0,0.0,0.0,0.0,0.0,0.0,0.0,0.0,0.0,0.0,0.2933,0.0,0.2933,0.0,0
1.92,run,-5.4,1.55,-7.67,17.89,-12.11,0.0,0.046,0.0,0.169,-34.89,-11.25,96.77,-22.32,5.98,91.93,12.39,-7.47,135.0,17.4,-11.87,92.11,-21.36,-42.28,113.82,-30.15,-15.29,102.04,-35.0,-11.72,84.89,-15.47,-2.81,104.25,19.5,-10.15,143.06,11.0,-22.92,86.6,-15.5,-48.6,122.95,-35.0,-25.41,114.13,-1.0,0.9564,-1.0,1.0,-1.0,1.0,1.0,1.0,1.0,-0.0718,-1.0,-0.7217,1.0,-1.0,1.0,-1.0,-1.0,1.0,0.0,0.019,0.019,0.039,0.0,0.039,0.019,0.013,0.149,0.033,0.0,0.0,0.013,0.104,0.013,0.019,0.0,0.013,-0.6121,-0.5154,0.3313,-0.4172,-0.1703,0.2056,0.1917,-0.4464,0.9158,0.3283,-0.4909,0.2393,-0.3942,-1.0462,0.5722,-0.5001,-0.5446,0.3651,-0.0194,-0.3035,-0.2636,0.2967,-0.2398,0.2752,0.3083,-0.304,0.2525,-0.3306,-0.2345,0.0237,0.2918,-0.2943,0.2949,-0.2677,-0.2331,0.2607,-0.4986,-0.3061,-0.0873,0.1097,-0.1938,-1.0,0.3525,-1.0,1.0,-1.0,1.0,1.0,-0.1516,1.0,0.3388,-1.0,-0.5604,1.0,-1.0,1.0,-1.0,-1.0,1.0,0.0,0.0,0.0,0.0,0.0,0.0,0.0,0.0,0.0,0.3067,0.0,0.3067,0.0,0
1.96,run,-5.78,1.76,-8.66,5.12,-15.3,0.0,0.048,0.0,0.169,-34.89,-12.74,95.54,-20.92,4.48,93.43,13.8,-8.96,135.62,15.91,-13.18,91.05,-19.86,-43.68,115.14,-31.64,-16.79,103.45,-35.0,-10.22,83.39,-13.97,-4.31,105.75,21.0,-8.65,144.56,9.5,-24.42,85.1,-14.0,-50.1,124.45,-35.0,-26.91,115.63,-1.0,1.0,-1.0,1.0,-0.3463,1.0,1.0,1.0,1.0,-0.3095,-1.0,-1.0,1.0,-1.0,1.0,-1.0,-1.0,1.0,0.0,0.019,0.019,0.039,0.0,0.039,0.019,0.013,0.149,0.033,0.0,0.0,0.013,0.104,0.013,0.019,0.0,0.013,-0.609,-0.5415,0.3053,-0.3912,-0.1933,0.2301,0.2163,-0.4709,0.9327,0.3022,-0.5139,0.227,-0.3712,-1.0677,0.5998,-0.5246,-0.5722,0.3912,-0.002,-0.311,-0.2831,0.3062,-0.2548,0.2853,0.3085,-0.3055,0.2405,-0.33,-0.2511,-0.0298,0.2912,-0.2872,0.3108,-0.2801,-0.2675,0.281,-0.5276,-0.2467,-0.1339,0.3122,-0.2114,-1.0,0.9564,-1.0,1.0,-1.0,1.0,1.0,1.0,1.0,-0.0718,-1.0,-0.7217,1.0,-1.0,1.0,-1.0,-1.0,1.0,0.0,0.0,0.0,0.0,0.0,0.0,0.0,0.0,0.0,0.32,0.0,0.32,0.0,0
2.0,run,-6.09,2.73,-6.57,21.62,-8.86,0.0,0.05,0.0,0.592,-35.07,-12.48,93.43,-19.34,3.16,94.83,15.21,-9.84,136.32,14.41,-14.5,89.74,-18.46,-45.0,116.63,-32.96,-18.19,104.85,-35.0,-8.72,81.89,-12.47,-5.81,107.25,22.5,-7.15,146.06,8.0,-25.92,83.6,-12.5,-51.6,125.95,-35.0,-28.41,117.13,-1.0,1.0,-1.0,1.0,-0.527,1.0,1.0,1.0,1.0,-0.0654,-1.0,-0.5901,1.0,-1.0,1.0,-1.0,-1.0,1.0,0.0,0.019,0.0,0.033,0.0,0.033,0.019,0.013,0.592,0.019,0.0,0.0,0.013,0.084,0.006,0.0,0.0,0.013,-0.609,-0.5676,0.2838,-0.3666,-0.2194,0.2562,0.2408,-0.497,0.9434,0.2761,-0.5369,0.2086,-0.3451,-1.0922,0.6228,-0.5507,-0.5983,0.4157,-0.0014,-0.3153,-0.2785,0.3062,-0.276,0.2973,0.3078,-0.3115,0.2085,-0.3286,-0.2619,-0.0897,0.3015,-0.2929,0.3037,-0.2937,-0.2848,0.2886,-0.5603,-0.2286,-0.1512,0.0893,-0.2671,-1.0,1.0,-1.0,1.0,-0.3463,1.0,1.0,1.0,1.0,-0.3095,-1.0,-1.0,1.0,-1.0,1.0,-1.0,-1.0,1.0,0.0,0.0,0.0,0.0,0.0,0.0,0.0,0.0,0.0,0.3333,0.0,0.3333,0.0,0
2.04,run,-6.71,3.21,-13.43,13.41,-7.94,0.0,0.05,0.0,0.592,-34.8,-13.71,92.37,-18.02,1.76,96.42,16.61,-10.9,136.85,12.92,-15.73,88.33,-17.05,-46.41,118.04,-33.93,-19.6,105.64,-35.0,-7.22,80.39,-10.97,-7.31,108.75,24.0,-5.65,147.56,6.5,-27.42,82.1,-11.0,-53.1,127.45,-35.0,-29.91,118.63,-1.0,1.0,-1.0,1.0,0.1142,1.0,1.0,1.0,1.0,0.1631,-1.0,-1.0,1.0,-0.9299,1.0,-1.0,-1.0,1.0,0.0,0.019,0.0,0.033,0.0,0.033,0.019,0.013,0.592,0.019,0.0,0.0,0.013,0.084,0.006,0.0,0.0,0.013,-0.6121,-0.563,0.247,-0.339,-0.2424,0.2807,0.2654,-0.5123,0.9557,0.25,-0.5599,0.1856,-0.3206,-1.1152,0.6489,-0.5737,-0.6228,0.4403,-0.0125,-0.2034,-0.3337,0.3184,-0.2799,0.3006,0.308,-0.2758,0.1922,-0.3283,-0.27,-0.1495,0.3035,-0.2917,0.3108,-0.2923,-0.2919,0.2945,-0.5877,-0.1442,-0.1147,0.3774,-0.1546,-1.0,1.0,-1.0,1.0,-0.527,1.0,1.0,1.0,1.0,-0.0654,-1.0,-0.5901,1.0,-1.0,1.0,-1.0,-1.0,1.0,0.0,0.0,0.0,0.0,0.0,0.0,0.0,0.0,0.0,0.3333,0.0,0.3333,0.0,0
2.08,run,-7.64,3.51,-22.83,8.35,-5.47,0.0,0.05,0.0,0.592,-34.8,-14.33,91.67,-16.52,0.35,97.82,18.11,-11.07,137.29,11.6,-17.14,86.92,-15.56,-47.81,119.27,-34.8,-21.09,107.49,-35.0,-5.72,78.89,-9.47,-5.81,110.25,25.5,-4.15,149.06,8.0,-28.92,80.6,-9.5,-54.6,128.95,-35.0,-31.41,120.13,-1.0,1.0,-1.0,1.0,0.4641,1.0,1.0,1.0,1.0,0.5802,-1.0,-0.5701,1.0,-1.0,1.0,-1.0,-1.0,1.0,0.0,0.019,0.0,0.033,0.0,0.033,0.019,0.013,0.592,0.019,0.0,0.0,0.013,0.084,0.006,0.0,0.0,0.013,-0.6075,-0.5844,0.2286,-0.316,-0.2669,0.3083,0.2899,-0.5308,0.9649,0.224,-0.5814,0.1611,-0.2961,-1.1397,0.6734,-0.5906,-0.6473,0.4541,0.0085,-0.2229,-0.3026,0.3091,-0.288,0.314,0.3076,-0.2621,0.1691,-0.3276,-0.2695,-0.1967,0.3045,-0.2962,0.3096,-0.2679,-0.2963,0.2579,-0.6419,-0.1022,-0.2345,0.234,-0.1385,-1.0,1.0,-1.0,1.0,0.1142,1.0,1.0,1.0,1.0,0.1631,-1.0,-1.0,1.0,-0.9299,1.0,-1.0,-1.0,1.0,0.0,0.0,0.0,0.0,0.0,0.0,0.0,0.0,0.0,0.3333,0.0,0.3333,0.0,0
2.12,run,-8.56,3.5,-25.37,-3.18,-12.27,0.0,0.05,0.0,1.878,-34.8,-14.33,89.91,-15.12,-0.88,99.23,19.42,-11.51,137.46,10.28,-18.46,85.52,-14.24,-49.22,120.76,-34.89,-22.5,108.81,-35.0,-4.22,77.39,-7.97,-4.31,111.75,27.0,-2.65,147.56,9.5,-30.42,79.1,-8.0,-56.1,130.45,-35.0,-32.91,121.63,-1.0,1.0,-1.0,1.0,0.9688,1.0,1.0,1.0,0.3684,1.0,-1.0,-0.2203,1.0,-1.0,1.0,-1.0,-1.0,1.0,0.006,0.045,0.019,0.026,0.006,0.033,0.019,0.026,1.878,0.013,0.006,0.006,0.019,0.078,0.006,0.0,0.0,0.026,-0.6075,-0.5952,0.2163,-0.2899,-0.2915,0.3329,0.316,-0.5338,0.9725,0.201,-0.6059,0.1365,-0.27,-1.1643,0.6949,-0.6059,-0.6734,0.4863,0.0059,-0.1961,-0.2576,0.3137,-0.2931,0.3113,0.3126,-0.1949,0.147,-0.3151,-0.2802,-0.2292,0.3104,-0.2989,0.2968,-0.2447,-0.3047,0.3007,-0.7228,-0.0757,-0.3985,0.1457,-0.0955,-1.0,1.0,-1.0,1.0,0.4641,1.0,1.0,1.0,1.0,0.5802,-1.0,-0.5701,1.0,-1.0,1.0,-1.0,-1.0,1.0,0.0,0.0,0.0,0.0,0.0,0.0,0.0,0.0,0.0,0.3333,0.0,0.3333,0.0,0
2.16,run,-8.15,5.06,4.31,38.46,1.04,0.0,0.05,0.0,1.878,-34.98,-13.1,87.54,-13.27,-2.11,100.72,20.83,-11.16,137.46,9.23,-19.16,84.2,-12.83,-50.62,122.26,-35.24,-23.99,110.04,-35.0,-2.72,75.89,-6.47,-2.81,113.25,28.5,-1.15,146.06,11.0,-31.92,77.6,-6.5,-57.6,128.95,-35.0,-34.41,123.13,-1.0,1.0,-1.0,0.3222,0.9939,1.0,1.0,1.0,-1.0,1.0,-1.0,0.143,1.0,-1.0,0.4477,-1.0,-1.0,1.0,0.006,0.045,0.019,0.026,0.006,0.033,0.019,0.026,1.878,0.013,0.006,0.006,0.019,0.078,0.006,0.0,0.0,0.026,-0.6075,-0.5952,0.1856,-0.2654,-0.3129,0.3574,0.339,-0.5415,0.9756,0.1779,-0.6289,0.112,-0.247,-1.1888,0.721,-0.6075,-0.698,0.5093,0.0042,-0.1372,-0.2954,0.3116,-0.2857,0.31,0.3051,-0.1652,0.1144,-0.3069,-0.2825,-0.2525,0.3036,-0.3013,0.3056,-0.1771,-0.3054,0.2968,-0.8036,-0.0764,-0.4427,-0.0555,-0.2142,-1.0,1.0,-1.0,1.0,0.9688,1.0,1.0,1.0,0.3684,1.0,-1.0,-0.2203,1.0,-1.0,1.0,-1.0,-1.0,1.0,0.0,0.0,0.0,0.0,0.0,0.0,0.0,0.0,0.0,0.3333,0.0,0.3333,0.0,0
2.2,run,-8.39,5.6,-4.27,12.93,-4.59,0.0,0.05,0.0,1.878,-34.8,-12.83,86.66,-12.3,-3.43,102.39,22.24,-10.46,137.46,8.44,-21.09,82.88,-11.43,-52.21,123.66,-35.24,-25.49,111.53,-35.0,-1.22,74.39,-4.97,-4.31,114.75,30.0,-2.65,144.56,12.5,-33.42,79.1,-5.0,-56.1,130.45,-35.0,-35.91,124.63,-1.0,1.0,-1.0,-0.0819,0.0525,1.0,1.0,-1.0,-1.0,1.0,-1.0,1.0,1.0,0.8338,1.0,-1.0,-0.9836,1.0,0.006,0.045,0.019,0.026,0.006,0.033,0.019,0.026,1.878,0.013,0.006,0.006,0.019,0.078,0.006,0.0,0.0,0.026,-0.6105,-0.5737,0.1442,-0.2332,-0.3344,0.3835,0.3636,-0.5354,0.9756,0.1595,-0.6412,0.089,-0.2224,-1.2134,0.747,-0.6136,-0.724,0.5308,-0.0086,-0.0156,-0.3621,0.3389,-0.2805,0.3148,0.3056,-0.0926,0.0801,-0.2838,-0.2437,-0.263,0.3045,-0.3029,0.3117,-0.147,-0.3115,0.2883,-0.7674,0.0598,0.0752,0.6713,0.0182,-1.0,1.0,-1.0,0.3222,0.9939,1.0,1.0,1.0,-1.0,1.0,-1.0,0.143,1.0,-1.0,0.4477,-1.0,-1.0,1.0,0.0,0.0,0.0,0.0,0.0,0.0,0.0,0.0,0.0,0.3333,0.0,0.3333,0.0,0
2.24,run,-9.04,5.5,-17.38,-5.46,-2.95,0.0,0.05,0.0,2.918,-34.8,-11.78,85.34,-10.72,-4.13,103.62,23.55,-9.84,137.46,8.0,-22.41,81.39,-10.11,-53.61,124.98,-35.24,-26.89,112.85,-33.5,0.28,75.89,-6.47,-5.81,116.25,31.5,-4.15,143.06,14.0,-34.92,80.6,-3.5,-54.6,130.13,-35.0,-37.41,126.13,-0.0952,1.0,0.5434,-1.0,0.3445,1.0,1.0,-0.263,-1.0,1.0,-1.0,1.0,1.0,0.8485,0.7662,-1.0,-1.0,1.0,0.0,0.058,0.0,0.013,0.0,0.026,0.026,0.091,2.918,0.006,0.013,0.006,0.013,0.033,0.006,0.013,0.0,0.045,-0.6075,-0.5691,0.1289,-0.2163,-0.3574,0.4126,0.3881,-0.5231,0.9756,0.1457,-0.675,0.066,-0.1979,-1.241,0.7716,-0.6136,-0.7501,0.5568,0.0055,0.0063,-0.3109,0.3004,-0.2825,0.3295,0.3058,-0.0189,0.056,-0.2504,-0.297,-0.2703,0.3051,-0.3154,0.3101,-0.1029,-0.3157,0.2994,-0.7883,0.1064,-0.0746,0.2256,-0.0802,-1.0,1.0,-1.0,-0.0819,0.0525,1.0,1.0,-1.0,-1.0,1.0,-1.0,1.0,1.0,0.8338,1.0,-1.0,-0.9836,1.0,0.0,0.0,0.0,0.0,0.0,0.0,0.0,0.0,0.0,0.3333,0.0,0.3333,0.0,0
2.38,tail,-10.52,6.77,-10.66,10.17,-4.96,,0.0,0.0,2.918,-34.54,-11.51,82.35,-8.96,-5.01,105.47,25.22,-10.02,131.92,8.09,-24.17,80.07,-6.68,-55.2,128.23,-35.68,-34.37,114.08,,,,,,,,,,,,,,,,,,,,,,,,,,,,,,,,,,,,,0.0,0.0,0.0,0.0,0.0,0.0,0.0,0.0,0.0,0.0,0.0,0.0,0.0,0.0,0.0,0.0,0.0,0.0,,,,,,,,,,,,,,,,,,,,,,,,,,,,,,,,,,,,,,,,,,,,,,,,,,,,,,,,,,,,,,,,,,,,,,,,,
2.48,tail,-12.9,9.13,-19.69,19.12,1.89,,0.0,0.0,2.918,-34.54,-15.29,82.27,-8.96,-5.01,105.82,25.22,-11.87,133.24,8.09,-24.08,79.98,-5.98,-56.07,128.5,-35.95,-42.63,114.17,,,,,,,,,,,,,,,,,,,,,,,,,,,,,,,,,,,,,0.0,0.0,0.0,0.0,0.0,0.0,0.0,0.0,0.0,0.0,0.0,0.0,0.0,0.0,0.0,0.0,0.0,0.0,,,,,,,,,,,,,,,,,,,,,,,,,,,,,,,,,,,,,,,,,,,,,,,,,,,,,,,,,,,,,,,,,,,,,,,,,
2.58,tail,-14.4,9.58,-12.73,2.68,2.92,,0.0,0.0,2.918,-34.54,-21.27,82.27,-8.26,-5.1,105.91,25.31,-12.04,133.24,8.17,-24.08,79.89,-5.98,-61.17,128.5,-35.95,-46.14,114.17,,,,,,,,,,,,,,,,,,,,,,,,,,,,,,,,,,,,,0.0,0.0,0.0,0.0,0.0,0.0,0.0,0.0,0.0,0.0,0.0,0.0,0.0,0.0,0.0,0.0,0.0,0.0,,,,,,,,,,,,,,,,,,,,,,,,,,,,,,,,,,,,,,,,,,,,,,,,,,,,,,,,,,,,,,,,,,,,,,,,,
2.68,tail,-14.34,9.67,0.12,0.89,-4.31,,0.0,0.0,2.918,-34.63,-23.47,82.27,-8.09,-5.1,105.64,25.31,-12.04,133.15,8.17,-24.08,79.89,-5.98,-64.51,128.5,-36.04,-47.37,114.17,,,,,,,,,,,,,,,,,,,,,,,,,,,,,,,,,,,,,0.0,0.0,0.0,0.0,0.0,0.0,0.0,0.0,0.0,0.0,0.0,0.0,0.0,0.0,0.0,0.0,0.0,0.0,,,,,,,,,,,,,,,,,,,,,,,,,,,,,,,,,,,,,,,,,,,,,,,,,,,,,,,,,,,,,,,,,,,,,,,,,
2.78,tail,-14.26,9.69,0.26,-0.08,-1.13,,0.0,0.0,2.918,-34.63,-23.47,82.27,-8.09,-5.1,105.64,25.31,-12.04,133.15,8.17,-24.08,79.89,-5.98,-63.98,128.5,-36.04,-47.37,114.08,,,,,,,,,,,,,,,,,,,,,,,,,,,,,,,,,,,,,0.0,0.0,0.0,0.0,0.0,0.0,0.0,0.0,0.0,0.0,0.0,0.0,0.0,0.0,0.0,0.0,0.0,0.0,,,,,,,,,,,,,,,,,,,,,,,,,,,,,,,,,,,,,,,,,,,,,,,,,,,,,,,,,,,,,,,,,,,,,,,,,
2.88,tail,-14.19,9.7,0.18,0.04,-0.65,,0.0,0.0,2.918,-34.63,-23.47,82.27,-8.09,-5.1,105.64,25.31,-12.04,133.15,8.17,-24.08,79.89,-5.98,-63.98,128.5,-36.04,-47.37,114.08,,,,,,,,,,,,,,,,,,,,,,,,,,,,,,,,,,,,,0.0,0.0,0.0,0.0,0.0,0.0,0.0,0.0,0.0,0.0,0.0,0.0,0.0,0.0,0.0,0.0,0.0,0.0,,,,,,,,,,,,,,,,,,,,,,,,,,,,,,,,,,,,,,,,,,,,,,,,,,,,,,,,,,,,,,,,,,,,,,,,,
2.98,tail,-14.15,9.72,-0.03,-0.01,0.13,,0.0,0.0,2.918,-34.63,-23.47,82.27,-8.09,-5.1,105.64,25.31,-12.04,133.15,8.17,-24.08,79.89,-5.98,-63.98,128.5,-36.04,-47.37,114.08,,,,,,,,,,,,,,,,,,,,,,,,,,,,,,,,,,,,,0.0,0.0,0.0,0.0,0.0,0.0,0.0,0.0,0.0,0.0,0.0,0.0,0.0,0.0,0.0,0.0,0.0,0.0,,,,,,,,,,,,,,,,,,,,,,,,,,,,,,,,,,,,,,,,,,,,,,,,,,,,,,,,,,,,,,,,,,,,,,,,,
3.08,tail,-14.11,9.74,0.01,-0.0,-0.01,,0.0,0.0,2.918,-34.63,-23.47,82.27,-8.09,-5.1,105.64,25.31,-12.04,133.15,8.17,-24.08,79.89,-5.98,-63.98,128.5,-36.04,-47.37,114.08,,,,,,,,,,,,,,,,,,,,,,,,,,,,,,,,,,,,,0.0,0.0,0.0,0.0,0.0,0.0,0.0,0.0,0.0,0.0,0.0,0.0,0.0,0.0,0.0,0.0,0.0,0.0,,,,,,,,,,,,,,,,,,,,,,,,,,,,,,,,,,,,,,,,,,,,,,,,,,,,,,,,,,,,,,,,,,,,,,,,,
3.18,tail,-14.08,9.76,-0.03,0.01,-0.06,,0.0,0.0,2.918,-34.63,-23.47,82.27,-8.09,-5.1,105.64,25.31,-12.04,133.15,8.17,-24.08,79.89,-5.98,-63.98,128.5,-36.04,-47.37,114.08,,,,,,,,,,,,,,,,,,,,,,,,,,,,,,,,,,,,,0.0,0.0,0.0,0.0,0.0,0.0,0.0,0.0,0.0,0.0,0.0,0.0,0.0,0.0,0.0,0.0,0.0,0.0,,,,,,,,,,,,,,,,,,,,,,,,,,,,,,,,,,,,,,,,,,,,,,,,,,,,,,,,,,,,,,,,,,,,,,,,,
3.28,tail,-14.05,9.77,-0.05,-0.01,-0.01,,0.0,0.0,2.918,-34.63,-23.47,82.27,-8.09,-5.1,105.64,25.31,-12.04,133.15,8.17,-24.08,79.89,-5.98,-63.98,128.5,-36.04,-47.37,114.08,,,,,,,,,,,,,,,,,,,,,,,,,,,,,,,,,,,,,0.0,0.0,0.0,0.0,0.0,0.0,0.0,0.0,0.0,0.0,0.0,0.0,0.0,0.0,0.0,0.0,0.0,0.0,,,,,,,,,,,,,,,,,,,,,,,,,,,,,,,,,,,,,,,,,,,,,,,,,,,,,,,,,,,,,,,,,,,,,,,,,
3.38,tail,-14.02,9.8,-0.03,0.07,-0.01,,0.0,0.0,2.918,-34.63,-23.47,82.27,-8.09,-5.1,105.64,25.31,-12.04,133.15,8.17,-24.08,79.89,-5.98,-63.98,128.5,-36.04,-47.37,114.08,,,,,,,,,,,,,,,,,,,,,,,,,,,,,,,,,,,,,0.0,0.0,0.0,0.0,0.0,0.0,0.0,0.0,0.0,0.0,0.0,0.0,0.0,0.0,0.0,0.0,0.0,0.0,,,,,,,,,,,,,,,,,,,,,,,,,,,,,,,,,,,,,,,,,,,,,,,,,,,,,,,,,,,,,,,,,,,,,,,,,
3.48,tail,-13.99,9.83,-0.02,0.04,-0.05,,0.0,0.0,2.918,-34.63,-23.47,82.27,-8.09,-5.1,105.64,25.31,-12.04,133.15,8.17,-24.08,79.89,-5.98,-63.98,128.5,-36.04,-47.37,114.08,,,,,,,,,,,,,,,,,,,,,,,,,,,,,,,,,,,,,0.0,0.0,0.0,0.0,0.0,0.0,0.0,0.0,0.0,0.0,0.0,0.0,0.0,0.0,0.0,0.0,0.0,0.0,,,,,,,,,,,,,,,,,,,,,,,,,,,,,,,,,,,,,,,,,,,,,,,,,,,,,,,,,,,,,,,,,,,,,,,,,
3.58,tail,-13.96,9.85,-0.05,0.07,-0.07,,0.0,0.0,2.918,-34.63,-23.47,82.27,-8.09,-5.1,105.64,25.31,-12.04,133.15,8.17,-24.08,79.89,-5.98,-63.98,128.5,-36.04,-47.37,114.08,,,,,,,,,,,,,,,,,,,,,,,,,,,,,,,,,,,,,0.0,0.0,0.0,0.0,0.0,0.0,0.0,0.0,0.0,0.0,0.0,0.0,0.0,0.0,0.0,0.0,0.0,0.0,,,,,,,,,,,,,,,,,,,,,,,,,,,,,,,,,,,,,,,,,,,,,,,,,,,,,,,,,,,,,,,,,,,,,,,,,
3.68,tail,-13.92,9.87,-0.03,0.03,-0.02,,0.0,0.0,2.918,-34.63,-23.47,82.27,-8.09,-5.1,105.64,25.31,-12.04,133.15,8.17,-24.08,79.89,-5.98,-63.98,128.5,-36.04,-47.37,114.08,,,,,,,,,,,,,,,,,,,,,,,,,,,,,,,,,,,,,0.0,0.0,0.0,0.0,0.0,0.0,0.0,0.0,0.0,0.0,0.0,0.0,0.0,0.0,0.0,0.0,0.0,0.0,,,,,,,,,,,,,,,,,,,,,,,,,,,,,,,,,,,,,,,,,,,,,,,,,,,,,,,,,,,,,,,,,,,,,,,,,
3.78,tail,-13.9,9.88,-0.08,-0.03,-0.03,,0.0,0.0,2.918,-34.63,-23.47,82.27,-8.09,-5.1,105.64,25.31,-12.04,133.15,8.17,-24.08,79.89,-5.98,-63.98,128.5,-36.04,-47.37,114.08,,,,,,,,,,,,,,,,,,,,,,,,,,,,,,,,,,,,,0.0,0.0,0.0,0.0,0.0,0.0,0.0,0.0,0.0,0.0,0.0,0.0,0.0,0.0,0.0,0.0,0.0,0.0,,,,,,,,,,,,,,,,,,,,,,,,,,,,,,,,,,,,,,,,,,,,,,,,,,,,,,,,,,,,,,,,,,,,,,,,,
3.88,tail,-13.87,9.91,-0.03,0.04,0.03,,0.0,0.0,2.918,-34.63,-23.47,82.27,-8.09,-5.1,105.64,25.31,-12.04,133.15,8.17,-24.08,79.89,-5.98,-63.98,128.5,-36.04,-47.37,114.08,,,,,,,,,,,,,,,,,,,,,,,,,,,,,,,,,,,,,0.0,0.0,0.0,0.0,0.0,0.0,0.0,0.0,0.0,0.0,0.0,0.0,0.0,0.0,0.0,0.0,0.0,0.0,,,,,,,,,,,,,,,,,,,,,,,,,,,,,,,,,,,,,,,,,,,,,,,,,,,,,,,,,,,,,,,,,,,,,,,,,
3.98,tail,-13.85,9.92,-0.02,-0.01,-0.09,,0.0,0.0,2.918,-34.63,-23.47,82.27,-8.09,-5.1,105.64,25.31,-12.04,133.15,8.17,-24.08,79.89,-5.98,-63.98,128.5,-36.04,-47.37,114.08,,,,,,,,,,,,,,,,,,,,,,,,,,,,,,,,,,,,,0.0,0.0,0.0,0.0,0.0,0.0,0.0,0.0,0.0,0.0,0.0,0.0,0.0,0.0,0.0,0.0,0.0,0.0,,,,,,,,,,,,,,,,,,,,,,,,,,,,,,,,,,,,,,,,,,,,,,,,,,,,,,,,,,,,,,,,,,,,,,,,,
4.08,tail,-13.82,9.93,-0.05,0.03,-0.06,,0.0,0.0,2.918,-34.63,-23.55,82.27,-8.09,-5.1,105.64,25.31,-12.04,133.15,8.17,-24.08,79.89,-5.98,-63.98,128.5,-36.04,-47.37,114.08,,,,,,,,,,,,,,,,,,,,,,,,,,,,,,,,,,,,,0.0,0.0,0.0,0.0,0.0,0.0,0.0,0.0,0.0,0.0,0.0,0.0,0.0,0.0,0.0,0.0,0.0,0.0,,,,,,,,,,,,,,,,,,,,,,,,,,,,,,,,,,,,,,,,,,,,,,,,,,,,,,,,,,,,,,,,,,,,,,,,,
4.18,tail,-13.8,9.96,-0.04,0.07,-0.01,,0.0,0.0,2.918,-34.63,-23.55,82.27,-8.09,-5.1,105.64,25.31,-12.04,133.15,8.17,-24.08,79.89,-5.98,-63.98,128.5,-36.04,-47.37,114.08,,,,,,,,,,,,,,,,,,,,,,,,,,,,,,,,,,,,,0.0,0.0,0.0,0.0,0.0,0.0,0.0,0.0,0.0,0.0,0.0,0.0,0.0,0.0,0.0,0.0,0.0,0.0,,,,,,,,,,,,,,,,,,,,,,,,,,,,,,,,,,,,,,,,,,,,,,,,,,,,,,,,,,,,,,,,,,,,,,,,,
4.28,tail,-13.77,9.97,0.01,0.02,0.01,,0.0,0.0,2.918,-34.63,-23.55,82.27,-8.09,-5.1,105.64,25.31,-12.04,133.15,8.17,-24.08,79.89,-5.98,-63.98,128.5,-36.04,-47.37,114.08,,,,,,,,,,,,,,,,,,,,,,,,,,,,,,,,,,,,,0.0,0.0,0.0,0.0,0.0,0.0,0.0,0.0,0.0,0.0,0.0,0.0,0.0,0.0,0.0,0.0,0.0,0.0,,,,,,,,,,,,,,,,,,,,,,,,,,,,,,,,,,,,,,,,,,,,,,,,,,,,,,,,,,,,,,,,,,,,,,,,,
4.38,tail,-13.74,9.99,-0.01,0.04,-0.07,,0.0,0.0,2.918,-34.63,-23.55,82.27,-8.09,-5.1,105.64,25.31,-12.04,133.15,8.17,-24.08,79.89,-5.98,-63.98,128.5,-36.04,-47.37,114.08,,,,,,,,,,,,,,,,,,,,,,,,,,,,,,,,,,,,,0.0,0.0,0.0,0.0,0.0,0.0,0.0,0.0,0.0,0.0,0.0,0.0,0.0,0.0,0.0,0.0,0.0,0.0,,,,,,,,,,,,,,,,,,,,,,,,,,,,,,,,,,,,,,,,,,,,,,,,,,,,,,,,,,,,,,,,,,,,,,,,,
4.48,tail,-13.7,10.01,0.01,0.06,-0.04,,0.0,0.0,2.918,-34.63,-23.55,82.27,-8.09,-5.1,105.64,25.31,-12.04,133.15,8.17,-24.08,79.89,-5.98,-63.98,128.5,-36.04,-47.37,114.08,,,,,,,,,,,,,,,,,,,,,,,,,,,,,,,,,,,,,0.0,0.0,0.0,0.0,0.0,0.0,0.0,0.0,0.0,0.0,0.0,0.0,0.0,0.0,0.0,0.0,0.0,0.0,,,,,,,,,,,,,,,,,,,,,,,,,,,,,,,,,,,,,,,,,,,,,,,,,,,,,,,,,,,,,,,,,,,,,,,,,
4.58,tail,-13.69,10.03,-0.07,0.05,-0.08,,0.0,0.0,2.918,-34.63,-23.55,82.27,-8.09,-5.1,105.64,25.31,-12.04,133.15,8.17,-24.08,79.89,-5.98,-63.98,128.5,-36.04,-47.37,114.08,,,,,,,,,,,,,,,,,,,,,,,,,,,,,,,,,,,,,0.0,0.0,0.0,0.0,0.0,0.0,0.0,0.0,0.0,0.0,0.0,0.0,0.0,0.0,0.0,0.0,0.0,0.0,,,,,,,,,,,,,,,,,,,,,,,,,,,,,,,,,,,,,,,,,,,,,,,,,,,,,,,,,,,,,,,,,,,,,,,,,
4.68,tail,-13.66,10.05,-0.03,0.02,-0.01,,0.0,0.0,2.918,-34.63,-23.55,82.27,-8.09,-5.1,105.64,25.31,-12.04,133.15,8.17,-24.08,79.89,-5.98,-63.98,128.5,-36.04,-47.37,114.08,,,,,,,,,,,,,,,,,,,,,,,,,,,,,,,,,,,,,0.0,0.0,0.0,0.0,0.0,0.0,0.0,0.0,0.0,0.0,0.0,0.0,0.0,0.0,0.0,0.0,0.0,0.0,,,,,,,,,,,,,,,,,,,,,,,,,,,,,,,,,,,,,,,,,,,,,,,,,,,,,,,,,,,,,,,,,,,,,,,,,
4.78,tail,-13.64,10.07,-0.01,0.05,-0.09,,0.0,0.0,2.918,-34.63,-23.55,82.27,-8.09,-5.1,105.64,25.31,-12.04,133.15,8.17,-24.08,79.89,-5.98,-63.98,128.5,-36.04,-47.37,114.08,,,,,,,,,,,,,,,,,,,,,,,,,,,,,,,,,,,,,0.0,0.0,0.0,0.0,0.0,0.0,0.0,0.0,0.0,0.0,0.0,0.0,0.0,0.0,0.0,0.0,0.0,0.0,,,,,,,,,,,,,,,,,,,,,,,,,,,,,,,,,,,,,,,,,,,,,,,,,,,,,,,,,,,,,,,,,,,,,,,,,
4.88,tail,-13.62,10.08,-0.03,0.0,-0.02,,0.0,0.0,2.918,-34.63,-23.55,82.27,-8.09,-5.1,105.64,25.31,-12.04,133.15,8.17,-24.08,79.89,-5.98,-63.98,128.5,-36.04,-47.37,114.08,,,,,,,,,,,,,,,,,,,,,,,,,,,,,,,,,,,,,0.0,0.0,0.0,0.0,0.0,0.0,0.0,0.0,0.0,0.0,0.0,0.0,0.0,0.0,0.0,0.0,0.0,0.0,,,,,,,,,,,,,,,,,,,,,,,,,,,,,,,,,,,,,,,,,,,,,,,,,,,,,,,,,,,,,,,,,,,,,,,,,
4.98,tail,-13.59,10.1,0.03,0.02,-0.01,,0.0,0.0,2.918,-34.63,-23.55,82.27,-8.09,-5.1,105.64,25.31,-12.04,133.15,8.17,-24.08,79.89,-5.98,-63.98,128.5,-36.04,-47.37,114.08,,,,,,,,,,,,,,,,,,,,,,,,,,,,,,,,,,,,,0.0,0.0,0.0,0.0,0.0,0.0,0.0,0.0,0.0,0.0,0.0,0.0,0.0,0.0,0.0,0.0,0.0,0.0,,,,,,,,,,,,,,,,,,,,,,,,,,,,,,,,,,,,,,,,,,,,,,,,,,,,,,,,,,,,,,,,,,,,,,,,,
5.08,tail,-13.56,10.11,-0.01,-0.03,0.04,,0.0,0.0,2.918,-34.63,-23.55,82.27,-8.09,-5.1,105.64,25.31,-12.04,133.15,8.17,-24.08,79.89,-5.98,-63.98,128.5,-36.04,-47.37,114.08,,,,,,,,,,,,,,,,,,,,,,,,,,,,,,,,,,,,,0.0,0.0,0.0,0.0,0.0,0.0,0.0,0.0,0.0,0.0,0.0,0.0,0.0,0.0,0.0,0.0,0.0,0.0,,,,,,,,,,,,,,,,,,,,,,,,,,,,,,,,,,,,,,,,,,,,,,,,,,,,,,,,,,,,,,,,,,,,,,,,,
5.18,tail,-13.53,10.11,-0.01,-0.04,-0.01,,0.0,0.0,2.918,-34.63,-23.55,82.27,-8.09,-5.1,105.64,25.31,-12.04,133.15,8.17,-24.08,79.89,-5.98,-63.98,128.5,-36.04,-47.37,114.08,,,,,,,,,,,,,,,,,,,,,,,,,,,,,,,,,,,,,0.0,0.0,0.0,0.0,0.0,0.0,0.0,0.0,0.0,0.0,0.0,0.0,0.0,0.0,0.0,0.0,0.0,0.0,,,,,,,,,,,,,,,,,,,,,,,,,,,,,,,,,,,,,,,,,,,,,,,,,,,,,,,,,,,,,,,,,,,,,,,,,
5.28,tail,-13.52,10.12,-0.05,0.01,0.01,,0.0,0.0,2.918,-34.63,-23.55,82.27,-8.09,-5.1,105.64,25.31,-12.04,133.15,8.17,-24.08,79.89,-5.98,-63.98,128.5,-36.04,-47.37,114.08,,,,,,,,,,,,,,,,,,,,,,,,,,,,,,,,,,,,,0.0,0.0,0.0,0.0,0.0,0.006,0.0,0.0,0.0,0.0,0.0,0.0,0.0,0.0,0.0,0.0,0.0,0.0,,,,,,,,,,,,,,,,,,,,,,,,,,,,,,,,,,,,,,,,,,,,,,,,,,,,,,,,,,,,,,,,,,,,,,,,,
