t_s,phase,roll_deg,pitch_deg,gyro_x_dps,gyro_y_dps,gyro_z_dps,height_ref_mm,vx_ref_mps,vy_ref_mps,max_cur_a,q0_deg,q1_deg,q2_deg,q3_deg,q4_deg,q5_deg,q6_deg,q7_deg,q8_deg,q9_deg,q10_deg,q11_deg,q12_deg,q13_deg,q14_deg,q15_deg,q16_deg,q17_deg,cmd0_deg,cmd1_deg,cmd2_deg,cmd3_deg,cmd4_deg,cmd5_deg,cmd6_deg,cmd7_deg,cmd8_deg,cmd9_deg,cmd10_deg,cmd11_deg,cmd12_deg,cmd13_deg,cmd14_deg,cmd15_deg,cmd16_deg,cmd17_deg,act0,act1,act2,act3,act4,act5,act6,act7,act8,act9,act10,act11,act12,act13,act14,act15,act16,act17,cur0_a,cur1_a,cur2_a,cur3_a,cur4_a,cur5_a,cur6_a,cur7_a,cur8_a,cur9_a,cur10_a,cur11_a,cur12_a,cur13_a,cur14_a,cur15_a,cur16_a,cur17_a,obs0,obs1,obs2,obs3,obs4,obs5,obs6,obs7,obs8,obs9,obs10,obs11,obs12,obs13,obs14,obs15,obs16,obs17,obs18,obs19,obs20,obs21,obs22,obs23,obs24,obs25,obs26,obs27,obs28,obs29,obs30,obs31,obs32,obs33,obs34,obs35,obs36,obs37,obs38,obs39,obs40,obs41,obs42,obs43,obs44,obs45,obs46,obs47,obs48,obs49,obs50,obs51,obs52,obs53,obs54,obs55,obs56,obs57,obs58,obs59,obs60,obs61,obs62,obs63,obs64,obs65,obs66,obs67,obs68,obs69,obs70,obs71,rot60_k
0.0,run,-0.39,-0.56,-0.28,-0.22,-0.79,0.0,-0.0,0.0,0.026,0.0,19.95,79.19,-0.18,16.17,79.72,-0.09,19.34,79.63,0.18,16.17,78.93,0.0,18.81,79.98,0.0,17.58,78.93,-1.5,18.45,77.69,-1.59,14.85,80.95,1.41,17.84,81.13,1.68,14.94,80.43,1.5,17.31,78.3,-1.5,16.17,80.43,-1.0,-1.0,-0.3788,-1.0,-1.0,1.0,1.0,-1.0,1.0,1.0,-1.0,1.0,0.253,-1.0,-0.4612,-1.0,-1.0,1.0,0.019,0.006,0.006,0.006,0.006,0.0,0.0,0.013,0.006,0.013,0.0,0.013,0.013,0.013,0.026,0.013,0.006,0.006,0.0,0.0,0.0,-0.0015,-0.0031,0.0031,0.0,0.0,0.0,0.0,0.0,0.0,0.0,0.0,0.0031,0.0,-0.0015,0.0,0.0,0.0,0.0,-0.0032,-0.0075,0.0075,0.0,0.0,0.0,0.0,0.0,0.0,0.0,0.0,0.0075,0.0,-0.0038,0.0,0.0,0.0,0.0173,-0.0139,0.0198,0.0,0.0,0.0,0.0,0.0,0.0,0.0,0.0,0.0,0.0,0.0,0.0,0.0,0.0,0.0,0.0,0.0,0.0,0.0,0.0,0.0,0.0,0.0,0.0,0.0,0.0,0.0,-0.0,0.0,-0.0,0.0,0
0.04,run,-0.38,-0.54,0.91,-0.16,-0.66,0.0,-0.0,0.0,0.026,-0.35,19.95,79.01,-0.26,16.08,80.24,-0.09,18.98,79.63,0.18,15.91,79.01,0.18,18.54,79.72,-0.35,17.4,79.01,-3.0,19.95,79.19,-3.09,13.35,82.45,-0.09,16.34,79.63,3.18,13.44,81.93,0.0,15.81,79.8,-3.0,14.67,81.93,-1.0,1.0,1.0,-1.0,-1.0,1.0,-1.0,-1.0,-1.0,1.0,-1.0,1.0,-1.0,0.1667,1.0,-1.0,-1.0,1.0,0.019,0.006,0.006,0.006,0.006,0.0,0.0,0.013,0.006,0.013,0.0,0.013,0.013,0.013,0.026,0.013,0.006,0.006,0.0,0.0,0.0,-0.0015,-0.0031,0.0046,0.0,0.0,0.0,0.0,-0.0046,0.0,0.0,0.0,0.0031,0.0,-0.0015,0.0,0.0,0.0,0.0,-0.0022,-0.0053,0.0078,0.0,0.0,0.0,0.0,-0.0075,0.0,0.0,0.0,0.0053,0.0,-0.0026,0.0,-0.0019,-0.0013,-0.0049,-0.0039,-0.0138,-1.0,-1.0,-0.3788,-1.0,-1.0,1.0,1.0,-1.0,1.0,1.0,-1.0,1.0,0.253,-1.0,-0.4612,-1.0,-1.0,1.0,0.0,0.0,0.0,0.0,0.0,0.0,0.0,0.0,0.0,-0.0,0.0,-0.0,0.0,0
0.08,run,-0.64,-0.42,-5.37,1.91,4.38,0.0,-0.0,0.0,0.026,-1.14,19.42,78.66,-0.88,15.38,80.77,0.09,18.19,80.16,1.23,15.29,79.8,0.88,17.75,79.19,-0.97,16.79,79.72,-4.5,21.45,80.69,-4.59,11.85,83.95,-1.59,17.84,81.13,4.68,11.94,83.43,-1.5,17.31,81.3,-4.5,13.17,83.43,-0.1513,0.9982,0.254,-1.0,-1.0,0.2883,-1.0,1.0,1.0,1.0,-1.0,1.0,-0.8991,1.0,1.0,-1.0,-1.0,1.0,0.019,0.006,0.006,0.006,0.006,0.0,0.0,0.013,0.006,0.013,0.0,0.013,0.013,0.013,0.026,0.013,0.006,0.006,-0.0061,0.0,-0.0031,-0.0031,-0.0046,0.0138,0.0,-0.0061,0.0,0.0,-0.0092,0.0015,0.0031,-0.0046,-0.0015,-0.0061,-0.0046,0.0015,-0.0231,0.0,-0.0115,-0.0073,-0.0095,0.0401,0.0,-0.0231,0.0,0.0,-0.0226,0.0058,0.0115,-0.0173,-0.0136,-0.0231,-0.0134,0.0058,-0.0006,0.0007,0.0159,-0.0029,-0.0115,-1.0,1.0,1.0,-1.0,-1.0,1.0,-1.0,-1.0,-1.0,1.0,-1.0,1.0,-1.0,0.1667,1.0,-1.0,-1.0,1.0,0.0,0.0,0.0,0.0,0.0,0.0,0.0,0.0,0.0,-0.0,0.0,-0.0,0.0,0
0.12,run,-0.5,-0.39,4.86,-1.4,2.0,0.0,-0.0,0.0,0.026,-2.02,18.9,78.57,-1.76,14.59,81.65,0.62,17.49,80.6,2.11,14.41,80.86,0.97,16.96,79.01,-1.85,16.0,80.6,-6.0,22.95,80.58,-6.09,10.35,85.45,-3.09,19.34,82.63,6.18,10.44,84.93,0.0,15.81,79.8,-6.0,11.67,84.93,-1.0,1.0,0.1833,-1.0,-1.0,1.0,-1.0,1.0,1.0,1.0,-1.0,1.0,0.7934,0.2449,-1.0,-1.0,-1.0,1.0,0.013,0.013,0.0,0.013,0.0,0.0,0.0,0.0,0.006,0.026,0.0,0.019,0.006,0.006,0.006,0.019,0.006,0.013,-0.0199,-0.0092,-0.0092,-0.0138,-0.0169,0.023,0.0031,-0.0199,0.0092,0.0184,-0.0199,0.0153,0.0153,-0.0184,-0.0107,-0.0169,-0.0153,0.0138,-0.0679,-0.0345,-0.0311,-0.0454,-0.0526,0.0626,0.0115,-0.0679,0.0345,0.069,-0.0561,0.0558,0.0541,-0.0639,-0.044,-0.0564,-0.0496,0.05,-0.0237,0.0114,-0.0938,0.0334,0.0764,-0.1513,0.9982,0.254,-1.0,-1.0,0.2883,-1.0,1.0,1.0,1.0,-1.0,1.0,-0.8991,1.0,1.0,-1.0,-1.0,1.0,0.0,0.0,0.0,0.0,0.0,0.0,0.0,0.0,0.0,-0.0,0.0,-0.0,0.0,0
0.16,run,-0.76,-0.34,-4.85,1.37,-9.13,0.0,-0.0,0.0,0.026,-3.25,18.63,78.57,-2.9,13.54,82.97,0.62,17.14,80.95,3.16,13.27,82.0,0.88,16.17,79.19,-3.16,14.85,81.56,-7.5,24.45,79.08,-7.59,8.85,86.95,-4.59,17.84,81.13,7.68,8.94,86.43,1.5,17.31,81.3,-7.5,10.17,86.43,-1.0,1.0,-0.2698,-1.0,-1.0,1.0,-0.9647,-0.0289,-0.3189,1.0,-1.0,1.0,1.0,1.0,1.0,-1.0,-1.0,1.0,0.013,0.013,0.0,0.013,0.0,0.0,0.0,0.0,0.006,0.026,0.0,0.019,0.006,0.006,0.006,0.019,0.006,0.013,-0.0353,-0.0184,-0.0107,-0.0291,-0.0307,0.0383,0.0123,-0.0322,0.0169,0.0337,-0.0353,0.0337,0.0169,-0.0322,-0.0138,-0.0322,-0.0291,0.0291,-0.1047,-0.0585,-0.0275,-0.0889,-0.0883,0.101,0.0424,-0.0933,0.0527,0.1055,-0.0964,0.1077,0.0436,-0.0962,-0.0423,-0.0967,-0.0862,0.0922,-0.0117,0.0139,0.0847,-0.0244,0.035,-1.0,1.0,0.1833,-1.0,-1.0,1.0,-1.0,1.0,1.0,1.0,-1.0,1.0,0.7934,0.2449,-1.0,-1.0,-1.0,1.0,0.0,0.0,0.0,0.0,0.0,0.0,0.0,0.0,0.0,-0.0,0.0,-0.0,0.0,0
0.2,run,-0.79,-0.28,0.31,0.99,-10.05,0.0,-0.0,0.0,0.026,-4.57,19.34,78.66,-4.04,12.3,84.38,0.62,17.14,81.3,4.39,12.04,83.32,0.26,15.91,79.89,-4.39,13.71,82.35,-9.0,25.95,80.58,-9.09,7.35,88.45,-6.09,19.34,82.63,9.18,7.44,87.93,3.0,15.81,82.8,-9.0,8.67,87.93,-0.9828,1.0,0.9813,-1.0,-1.0,1.0,-1.0,1.0,0.7517,1.0,-1.0,1.0,1.0,-0.1699,1.0,-1.0,-1.0,1.0,0.013,0.013,0.0,0.013,0.0,0.0,0.0,0.0,0.006,0.026,0.0,0.019,0.006,0.006,0.006,0.019,0.006,0.013,-0.0568,-0.023,-0.0107,-0.0491,-0.0491,0.0614,0.0123,-0.0383,0.023,0.0522,-0.0552,0.0537,0.0153,-0.046,-0.0107,-0.0552,-0.0491,0.046,-0.1544,-0.0583,-0.0192,-0.1375,-0.1313,0.1575,0.0296,-0.0885,0.0601,0.1433,-0.1428,0.1506,0.0247,-0.1194,-0.018,-0.1545,-0.1356,0.1282,-0.034,0.0183,-0.0846,0.0239,-0.1593,-1.0,1.0,-0.2698,-1.0,-1.0,1.0,-0.9647,-0.0289,-0.3189,1.0,-1.0,1.0,1.0,1.0,1.0,-1.0,-1.0,1.0,0.0,0.0,0.0,0.0,0.0,0.0,0.0,0.0,0.0,-0.0,0.0,-0.0,0.0,0
0.24,run,-0.91,-0.69,-3.82,-10.3,-9.63,0.0,-0.0,0.0,0.039,-5.89,19.95,79.19,-5.45,10.99,85.69,-0.35,17.84,82.09,5.62,10.63,84.55,0.18,15.56,80.77,-5.8,12.83,83.94,-7.5,27.45,79.08,-10.59,5.85,89.95,-7.59,17.84,81.13,10.68,5.94,89.43,4.5,17.31,84.3,-10.5,7.17,89.43,-0.1347,1.0,0.0828,-1.0,-0.3437,1.0,-1.0,0.0532,0.0599,1.0,-1.0,1.0,0.8406,0.9221,1.0,-1.0,-1.0,1.0,0.013,0.039,0.006,0.013,0.006,0.0,0.013,0.0,0.0,0.033,0.0,0.019,0.0,0.019,0.006,0.013,0.039,0.0,-0.0798,-0.0107,-0.0092,-0.069,-0.0706,0.0859,0.0123,-0.0383,0.0291,0.0736,-0.0767,0.0767,0.0046,-0.0506,0.0015,-0.0767,-0.069,0.0598,-0.1943,0.0052,-0.0077,-0.171,-0.1724,0.2022,0.0208,-0.0619,0.065,0.1808,-0.1804,0.1917,-0.0229,-0.1008,0.0334,-0.1886,-0.1696,0.1415,-0.0366,0.0231,0.0055,0.0173,-0.1754,-0.9828,1.0,0.9813,-1.0,-1.0,1.0,-1.0,1.0,0.7517,1.0,-1.0,1.0,1.0,-0.1699,1.0,-1.0,-1.0,1.0,0.0,0.0,0.0,0.0,0.0,0.0,0.0,0.0,0.0,-0.0,0.0,-0.0,0.0,0
0.28,run,-1.1,-0.97,-5.91,-7.13,-2.35,0.0,-0.0,0.0,0.039,-7.12,20.92,79.54,-6.77,9.67,87.19,-1.67,18.46,82.71,6.94,9.23,85.96,0.44,15.56,81.65,-7.21,11.51,85.34,-9.0,25.95,80.58,-12.09,4.35,88.45,-9.09,19.34,82.63,12.18,4.44,90.93,6.0,15.81,82.8,-12.0,5.67,90.93,-1.0,-0.1449,0.4271,-1.0,-1.0,-0.2843,-1.0,1.0,0.256,1.0,-1.0,1.0,1.0,0.2975,-0.3108,-1.0,-1.0,1.0,0.013,0.039,0.006,0.013,0.006,0.0,0.013,0.0,0.0,0.033,0.0,0.019,0.0,0.019,0.006,0.013,0.039,0.0,-0.1028,0.0,0.0,-0.0936,-0.0936,0.1089,-0.0046,-0.0261,0.043,0.0951,-0.1012,0.0982,0.0031,-0.0568,0.0169,-0.1012,-0.0844,0.0874,-0.2223,0.0439,0.0291,-0.2117,-0.2069,0.2278,-0.0487,0.0027,0.0973,0.2071,-0.2183,0.2147,-0.0218,-0.0936,0.0809,-0.2241,-0.1763,0.2026,-0.0472,-0.0124,-0.0667,-0.1798,-0.1681,-0.1347,1.0,0.0828,-1.0,-0.3437,1.0,-1.0,0.0532,0.0599,1.0,-1.0,1.0,0.8406,0.9221,1.0,-1.0,-1.0,1.0,0.0,0.0,0.0,0.0,0.0,0.0,0.0,0.0,0.0,-0.0,0.0,-0.0,0.0,0
0.32,run,-1.15,-1.49,-2.91,-13.06,5.72,0.0,-0.0,0.0,0.039,-7.91,21.88,79.8,-8.09,8.35,88.33,-2.99,18.63,82.44,8.35,7.82,87.36,1.32,15.56,82.88,-8.7,9.93,86.75,-10.5,24.45,82.08,-13.59,2.85,89.95,-10.59,20.84,81.13,13.68,2.94,92.43,4.5,14.31,81.3,-13.5,4.17,92.43,-1.0,-0.6268,0.3827,-1.0,0.4704,1.0,-1.0,1.0,-1.0,1.0,-1.0,1.0,-0.5642,0.4296,-0.0823,-1.0,-1.0,1.0,0.013,0.039,0.006,0.013,0.006,0.0,0.013,0.0,0.0,0.033,0.0,0.019,0.0,0.019,0.006,0.013,0.039,0.0,-0.1243,0.0169,0.0061,-0.1166,-0.1166,0.135,-0.0276,-0.0153,0.0537,0.1181,-0.1258,0.1227,0.0077,-0.0568,0.0322,-0.1258,-0.1074,0.112,-0.2361,0.094,0.0434,-0.2345,-0.2311,0.2572,-0.1204,0.0421,0.1084,0.2312,-0.2448,0.2423,0.002,-0.0655,0.1141,-0.2488,-0.2096,0.2338,-0.064,-0.0372,-0.1031,-0.1245,-0.041,-1.0,-0.1449,0.4271,-1.0,-1.0,-0.2843,-1.0,1.0,0.256,1.0,-1.0,1.0,1.0,0.2975,-0.3108,-1.0,-1.0,1.0,0.0,0.0,0.0,0.0,0.0,0.0,0.0,0.0,0.0,-0.0,0.0,-0.0,0.0,0
0.36,run,-1.23,-1.93,-3.54,-11.19,3.57,0.0,-0.0,0.0,0.058,-8.7,22.85,80.33,-9.49,7.29,89.12,-4.39,19.51,82.27,9.67,6.5,88.77,2.29,15.73,83.32,-10.11,8.61,88.68,-12.0,22.95,83.58,-15.09,1.35,88.45,-12.09,22.34,79.63,15.18,1.44,93.93,3.0,12.81,82.8,-15.0,2.67,93.93,-1.0,-1.0,0.2397,-1.0,-0.4419,-1.0,-1.0,1.0,0.1165,1.0,-1.0,1.0,-0.446,0.0527,0.9227,-1.0,-1.0,1.0,0.019,0.058,0.006,0.019,0.033,0.0,0.013,0.006,0.019,0.045,0.0,0.019,0.0,0.013,0.019,0.019,0.033,0.006,-0.1381,0.0337,0.0107,-0.1396,-0.1396,0.1549,-0.0506,-0.0123,0.0491,0.1427,-0.1503,0.1473,0.023,-0.0568,0.0537,-0.1519,-0.135,0.1365,-0.217,0.129,0.0476,-0.2503,-0.248,0.2548,-0.1704,0.041,0.0586,0.2538,-0.2633,0.2615,0.0588,-0.0459,0.1603,-0.2719,-0.2502,0.2556,-0.0679,-0.0822,-0.0508,-0.2279,0.0998,-1.0,-0.6268,0.3827,-1.0,0.4704,1.0,-1.0,1.0,-1.0,1.0,-1.0,1.0,-0.5642,0.4296,-0.0823,-1.0,-1.0,1.0,0.0,0.0,0.0,0.0,0.0,0.0,0.0,0.0,0.0,-0.0,0.0,-0.0,0.0,0
0.4,run,0.13,-2.53,38.99,-16.21,8.78,0.0,-0.0,0.0,0.058,-9.84,23.55,81.04,-10.55,5.98,89.03,-5.8,20.39,81.83,10.99,5.1,90.18,3.25,15.73,83.67,-11.6,7.29,89.65,-13.5,21.45,82.08,-16.59,-0.15,89.95,-13.59,23.84,81.13,16.68,-0.06,95.43,1.5,11.31,81.3,-16.5,1.17,95.43,-1.0,-1.0,0.1272,-1.0,0.1322,1.0,-1.0,1.0,1.0,1.0,-1.0,1.0,-1.0,-0.0453,-0.1029,-1.0,-1.0,1.0,0.019,0.058,0.006,0.019,0.033,0.0,0.013,0.006,0.019,0.045,0.0,0.019,0.0,0.013,0.019,0.019,0.033,0.006,-0.1519,0.0506,0.0199,-0.1641,-0.158,0.1687,-0.0752,0.0031,0.046,0.1657,-0.1733,0.1718,0.0399,-0.0537,0.0614,-0.1764,-0.158,0.1703,-0.2037,0.1537,0.0679,-0.2674,-0.2427,0.2302,-0.2115,0.0863,0.0295,0.2641,-0.2707,0.2753,0.1046,-0.0206,0.141,-0.2825,-0.2615,0.3057,-0.0749,-0.1206,-0.0618,-0.1954,0.0623,-1.0,-1.0,0.2397,-1.0,-0.4419,-1.0,-1.0,1.0,0.1165,1.0,-1.0,1.0,-0.446,0.0527,0.9227,-1.0,-1.0,1.0,0.0,0.0,0.0,0.0,0.0,0.0,0.0,0.0,0.0,-0.0,0.0,-0.0,0.0,0
0.44,run,0.68,-3.29,18.07,-22.82,11.49,0.0,-0.0,0.0,0.058,-10.9,23.73,81.83,-11.95,3.78,89.91,-7.21,21.36,81.3,12.57,3.52,91.58,3.78,14.94,83.94,-12.92,5.8,90.97,-12.0,19.95,80.58,-18.09,-1.65,88.45,-15.09,22.34,79.63,18.18,1.44,96.93,-0.0,12.81,82.8,-18.0,-0.33,93.93,-0.2204,-1.0,-0.0677,-1.0,-1.0,-1.0,-1.0,-1.0,-0.8779,1.0,1.0,1.0,-1.0,1.0,1.0,-0.7958,-1.0,-0.4015,0.019,0.058,0.006,0.019,0.033,0.0,0.013,0.006,0.019,0.045,0.0,0.019,0.0,0.013,0.019,0.019,0.033,0.006,-0.1718,0.0629,0.0322,-0.1825,-0.181,0.1672,-0.0997,0.0184,0.0383,0.1887,-0.1979,0.1963,0.0568,-0.0537,0.0675,-0.2025,-0.181,0.1871,-0.2174,0.1536,0.0935,-0.2562,-0.2562,0.1554,-0.2401,0.1179,-0.0081,0.2711,-0.2815,0.2847,0.1365,-0.0144,0.1217,-0.2955,-0.2693,0.2772,0.0436,-0.173,0.6806,-0.2829,0.1533,-1.0,-1.0,0.1272,-1.0,0.1322,1.0,-1.0,1.0,1.0,1.0,-1.0,1.0,-1.0,-0.0453,-0.1029,-1.0,-1.0,1.0,0.0,0.0,0.0,0.0,0.0,0.0,0.0,0.0,0.0,-0.0,0.0,-0.0,0.0,0
0.48,run,0.78,-3.55,2.53,-5.41,4.67,0.0,-0.0,0.0,0.111,-11.95,23.73,82.44,-13.71,2.72,89.74,-8.61,22.24,80.77,14.06,2.11,92.99,4.57,13.97,83.41,-14.41,4.39,92.2,-10.5,18.45,79.08,-19.59,-3.15,86.95,-16.59,23.84,78.13,19.68,2.94,98.43,-1.5,14.31,84.3,-16.5,-1.83,92.43,1.0,-1.0,-0.128,-1.0,-1.0,-1.0,-1.0,1.0,-0.0397,1.0,1.0,1.0,-1.0,1.0,1.0,0.8881,-1.0,-1.0,0.0,0.111,0.006,0.013,0.045,0.0,0.013,0.013,0.026,0.019,0.0,0.026,0.006,0.013,0.0,0.006,0.039,0.0,-0.1902,0.066,0.046,-0.2071,-0.2194,0.1825,-0.1243,0.0353,0.0291,0.2163,-0.2255,0.2209,0.066,-0.0675,0.0721,-0.2255,-0.2071,0.2102,-0.2212,0.119,0.1173,-0.2714,-0.3232,0.1663,-0.2601,0.1458,-0.0402,0.2934,-0.3006,0.2914,0.13,-0.0619,0.1025,-0.2932,-0.2864,0.2804,0.0917,-0.2395,0.3154,-0.3983,0.2006,-0.2204,-1.0,-0.0677,-1.0,-1.0,-1.0,-1.0,-1.0,-0.8779,1.0,1.0,1.0,-1.0,1.0,1.0,-0.7958,-1.0,-0.4015,0.0,0.0,0.0,0.0,0.0,0.0,0.0,0.0,0.0,-0.0,0.0,-0.0,0.0,0
0.52,run,1.53,-4.49,20.26,-23.76,-7.18,0.0,-0.0,0.0,0.111,-12.83,23.73,82.79,-15.38,1.67,89.03,-10.11,23.12,80.42,15.56,0.97,94.22,4.39,13.36,83.06,-15.73,3.08,93.78,-9.0,16.95,80.58,-21.09,-4.65,85.45,-18.09,25.34,79.63,21.18,4.44,96.93,-3.0,15.81,85.8,-15.0,-3.33,90.93,1.0,-1.0,0.901,-1.0,-0.0582,-0.5374,-1.0,1.0,1.0,1.0,1.0,-0.3126,-0.7348,1.0,0.928,1.0,-1.0,-1.0,0.0,0.111,0.006,0.013,0.045,0.0,0.013,0.013,0.026,0.019,0.0,0.026,0.006,0.013,0.0,0.006,0.039,0.0,-0.2086,0.066,0.0568,-0.2378,-0.2378,0.1795,-0.1488,0.0506,0.0199,0.2424,-0.25,0.2454,0.0798,-0.0844,0.0629,-0.2516,-0.2316,0.2316,-0.224,0.0833,0.1224,-0.3052,-0.2953,0.1049,-0.2742,0.1597,-0.0627,0.3032,-0.3026,0.2961,0.1429,-0.1067,0.0372,-0.3031,-0.2926,0.2769,0.0999,-0.2625,0.0442,-0.0944,0.0814,1.0,-1.0,-0.128,-1.0,-1.0,-1.0,-1.0,1.0,-0.0397,1.0,1.0,1.0,-1.0,1.0,1.0,0.8881,-1.0,-1.0,0.0,0.0,0.0,0.0,0.0,0.0,0.0,0.0,0.0,-0.0,0.0,-0.0,0.0,0
0.56,run,2.35,-5.4,23.57,-25.19,-11.41,0.0,-0.0,0.0,0.111,-13.27,23.73,82.79,-16.88,-0.09,88.24,-11.51,23.73,79.89,17.05,0.35,95.54,3.87,13.01,82.97,-16.61,1.58,94.31,-7.5,15.45,79.08,-22.59,-6.15,83.95,-19.59,26.84,81.13,22.68,5.94,95.43,-1.5,17.31,84.3,-13.5,-4.83,89.43,1.0,-1.0,0.02,-1.0,-1.0,-1.0,-1.0,1.0,1.0,1.0,1.0,-0.2597,0.3018,1.0,-0.5268,1.0,-1.0,-1.0,0.0,0.111,0.006,0.013,0.045,0.0,0.013,0.013,0.026,0.019,0.0,0.026,0.006,0.013,0.0,0.006,0.039,0.0,-0.224,0.066,0.0629,-0.2669,-0.2562,0.1672,-0.1749,0.066,0.0138,0.2684,-0.27,0.2669,0.0767,-0.0951,0.0568,-0.2746,-0.2546,0.2592,-0.2139,0.0583,0.1085,-0.3222,-0.2753,0.0277,-0.2891,0.1689,-0.0668,0.3095,-0.2861,0.2873,0.0886,-0.1147,0.0032,-0.2979,-0.2906,0.2967,0.1657,-0.3441,0.3536,-0.4147,-0.1253,1.0,-1.0,0.901,-1.0,-0.0582,-0.5374,-1.0,1.0,1.0,1.0,1.0,-0.3126,-0.7348,1.0,0.928,1.0,-1.0,-1.0,0.0,0.0,0.0,0.0,0.0,0.0,0.0,0.0,0.0,-0.0,0.0,-0.0,0.0,0
0.6,run,3.36,-6.23,29.03,-23.83,-17.75,0.0,-0.0,0.0,0.111,-13.36,23.29,82.44,-18.11,-1.93,87.01,-12.83,24.61,79.63,18.54,-0.26,96.59,3.08,12.74,83.32,-17.49,0.09,94.66,-6.0,13.95,80.58,-24.09,-7.65,82.45,-21.09,28.34,82.63,24.18,7.44,93.93,-0.0,18.81,82.8,-12.0,-6.33,87.93,0.7242,-1.0,0.406,-1.0,-1.0,-0.486,-1.0,1.0,0.2079,1.0,1.0,-0.1456,0.9402,1.0,-0.2784,1.0,-1.0,-1.0,0.0,0.0,0.006,0.013,0.013,0.019,0.013,0.006,0.045,0.013,0.013,0.026,0.013,0.019,0.013,0.006,0.039,0.006,-0.2316,0.066,0.0629,-0.293,-0.2869,0.1534,-0.1994,0.0767,0.0046,0.2945,-0.2807,0.2899,0.0675,-0.1012,0.0552,-0.2899,-0.2807,0.2684,-0.1786,0.0408,0.076,-0.3238,-0.3083,-0.0326,-0.2948,0.1587,-0.0814,0.3148,-0.2407,0.2878,0.0273,-0.1034,-0.0036,-0.2663,-0.3016,0.2424,0.2372,-0.4232,0.4113,-0.4396,-0.1991,1.0,-1.0,0.02,-1.0,-1.0,-1.0,-1.0,1.0,1.0,1.0,1.0,-0.2597,0.3018,1.0,-0.5268,1.0,-1.0,-1.0,0.0,0.0,0.0,0.0,0.0,0.0,0.0,0.0,0.0,-0.0,0.0,-0.0,0.0,0
0.64,run,5.19,-7.05,46.41,-20.75,-17.98,0.0,-0.0,0.0,0.111,-13.1,22.15,81.74,-19.6,-3.16,85.52,-14.24,25.84,79.54,20.13,-0.44,97.21,2.02,13.18,83.94,-17.75,-1.23,95.19,-4.5,12.45,82.08,-25.59,-9.15,80.95,-22.59,29.84,81.13,25.68,8.94,95.43,1.5,20.31,84.3,-10.5,-7.83,86.43,1.0,-1.0,0.4959,-1.0,-1.0,-1.0,-1.0,1.0,-1.0,1.0,1.0,0.8717,1.0,1.0,0.3802,1.0,-1.0,-1.0,0.0,0.0,0.006,0.013,0.013,0.019,0.013,0.006,0.045,0.013,0.013,0.026,0.013,0.019,0.013,0.006,0.039,0.006,-0.2332,0.0583,0.0568,-0.3145,-0.3191,0.1319,-0.2224,0.092,0.0,0.3206,-0.2915,0.3083,0.0537,-0.1058,0.0614,-0.3053,-0.3068,0.2746,-0.1308,-0.0003,0.0301,-0.3075,-0.337,-0.1036,-0.293,0.1688,-0.0743,0.3185,-0.2089,0.2707,-0.0328,-0.0897,0.0206,-0.2442,-0.3093,0.1928,0.3254,-0.4957,0.5067,-0.4159,-0.3099,0.7242,-1.0,0.406,-1.0,-1.0,-0.486,-1.0,1.0,0.2079,1.0,1.0,-0.1456,0.9402,1.0,-0.2784,1.0,-1.0,-1.0,0.0,0.0,0.0,0.0,0.0,0.0,0.0,0.0,0.0,-0.0,0.0,-0.0,0.0,0
0.68,run,7.36,-8.31,52.85,-31.19,-5.71,0.0,-0.0,0.0,0.111,-12.57,21.09,81.12,-21.09,-4.57,84.11,-15.56,27.16,79.54,21.71,-0.44,97.56,1.05,13.89,84.11,-17.75,-2.72,94.92,-3.0,10.95,83.58,-27.09,-10.65,79.45,-24.09,28.34,79.63,27.18,10.44,96.93,3.0,21.81,85.8,-9.0,-9.33,84.93,1.0,-1.0,1.0,-1.0,-1.0,-1.0,-1.0,0.1522,-1.0,1.0,1.0,1.0,0.336,1.0,1.0,1.0,-1.0,-1.0,0.0,0.0,0.006,0.013,0.013,0.019,0.013,0.006,0.045,0.013,0.013,0.026,0.013,0.019,0.013,0.006,0.039,0.006,-0.2286,0.0383,0.0445,-0.3405,-0.3405,0.1058,-0.247,0.1135,-0.0015,0.3482,-0.2945,0.3191,0.0353,-0.0982,0.0721,-0.3099,-0.3298,0.2838,-0.0745,-0.0741,-0.0244,-0.3119,-0.3155,-0.1692,-0.2961,0.1978,-0.0577,0.3254,-0.1576,0.2293,-0.0912,-0.0343,0.0542,-0.188,-0.3018,0.1691,0.4856,-0.5679,0.8101,-0.3622,-0.3138,1.0,-1.0,0.4959,-1.0,-1.0,-1.0,-1.0,1.0,-1.0,1.0,1.0,0.8717,1.0,1.0,0.3802,1.0,-1.0,-1.0,0.0,0.0,0.0,0.0,0.0,0.0,0.0,0.0,0.0,-0.0,0.0,-0.0,0.0,0
0.72,run,7.29,-8.47,-0.14,-0.11,0.86,0.0,-0.0,0.0,0.182,-3.6,10.9,83.06,-26.98,-10.99,79.28,-23.64,28.48,80.24,27.16,8.0,96.77,2.9,21.53,85.61,-8.96,-8.79,85.08,-1.5,9.45,85.08,-28.59,-12.15,77.95,-25.59,26.84,78.13,28.68,11.94,98.43,4.5,23.31,87.3,-7.5,-10.83,83.43,1.0,-1.0,1.0,-1.0,-1.0,-1.0,-1.0,0.6413,-1.0,1.0,1.0,1.0,0.173,1.0,1.0,1.0,-1.0,-1.0,0.033,0.0,0.013,0.0,0.0,0.006,0.013,0.006,0.026,0.0,0.182,0.013,0.006,0.019,0.013,0.0,0.019,0.006,-0.2194,0.0199,0.0337,-0.3666,-0.3651,0.0813,-0.27,0.1365,-0.0015,0.3758,-0.2945,0.3252,0.0184,-0.0859,0.0752,-0.3099,-0.3559,0.2792,-0.0172,-0.1218,-0.0579,-0.3173,-0.3141,-0.2116,-0.2946,0.2258,-0.0404,0.3326,-0.1103,0.1838,-0.1279,0.0225,0.0496,-0.1316,-0.3103,0.1009,0.6743,-0.6775,0.9224,-0.5444,-0.0997,1.0,-1.0,1.0,-1.0,-1.0,-1.0,-1.0,0.1522,-1.0,1.0,1.0,1.0,0.336,1.0,1.0,1.0,-1.0,-1.0,0.0,0.0,0.0,0.0,0.0,0.0,0.0,0.0,0.0,-0.0,0.0,-0.0,0.0,0
0.76,run,7.48,-8.46,0.46,-0.44,0.22,0.0,-0.0,0.0,0.182,-3.6,10.9,83.06,-26.98,-10.99,79.1,-23.73,28.21,80.24,27.16,8.09,96.77,2.9,21.53,85.61,-8.96,-8.79,84.99,0.0,7.95,86.58,-30.09,-10.65,79.45,-27.09,28.34,76.63,30.18,13.44,99.93,3.0,24.81,85.8,-6.0,-9.33,81.93,1.0,-1.0,1.0,-1.0,0.6814,1.0,-1.0,0.992,-0.1631,1.0,1.0,1.0,-0.707,1.0,0.0438,1.0,0.4139,-1.0,0.033,0.0,0.013,0.0,0.0,0.006,0.013,0.006,0.026,0.0,0.182,0.013,0.006,0.019,0.013,0.0,0.019,0.006,-0.0629,-0.158,0.0675,-0.4694,-0.4771,-0.0031,-0.4111,0.1595,0.0107,0.4709,-0.1473,0.3114,0.0506,0.0476,0.1012,-0.1565,-0.4617,0.1074,-0.0172,-0.1218,-0.0579,-0.3173,-0.3141,-0.2116,-0.2946,0.2258,-0.0404,0.3326,-0.1103,0.1838,-0.1279,0.0225,0.0496,-0.1316,-0.3103,0.1009,0.6686,-0.6913,-0.0025,-0.0019,0.015,1.0,-1.0,1.0,-1.0,-1.0,-1.0,-1.0,0.6413,-1.0,1.0,1.0,1.0,0.173,1.0,1.0,1.0,-1.0,-1.0,0.0,0.0,0.0,0.0,0.0,0.0,0.0,0.0,0.0,-0.0,0.0,-0.0,0.0,0
0.8,run,8.07,-8.08,9.65,8.74,2.31,0.0,-0.0,0.0,0.182,-3.25,10.28,83.58,-27.51,-11.34,78.57,-24.08,27.86,80.24,27.86,8.7,97.03,3.78,21.97,86.04,-8.35,-9.23,84.46,1.5,6.45,88.08,-31.59,-9.15,77.95,-28.59,26.84,78.13,31.68,14.94,98.43,1.5,26.31,87.3,-4.5,-10.26,80.43,1.0,-1.0,0.5229,-1.0,0.5247,-1.0,-1.0,-0.4485,1.0,1.0,1.0,-0.8931,-1.0,1.0,0.3121,1.0,0.268,-1.0,0.033,0.0,0.013,0.0,0.0,0.006,0.013,0.006,0.026,0.0,0.182,0.013,0.006,0.019,0.013,0.0,0.019,0.006,-0.0629,-0.158,0.0675,-0.4694,-0.4771,-0.0061,-0.4126,0.1549,0.0107,0.4709,-0.1457,0.3114,0.0506,0.0476,0.1012,-0.1565,-0.4617,0.1058,-0.0121,-0.0852,-0.0405,-0.2221,-0.2198,-0.1609,-0.2126,0.139,-0.0283,0.2328,-0.0709,0.1287,-0.0895,0.0158,0.0347,-0.0921,-0.2172,0.0642,0.6849,-0.6904,0.008,-0.0077,0.0039,1.0,-1.0,1.0,-1.0,0.6814,1.0,-1.0,0.992,-0.1631,1.0,1.0,1.0,-0.707,1.0,0.0438,1.0,0.4139,-1.0,0.0,0.0,0.0,0.0,0.0,0.0,0.0,0.0,0.0,-0.0,0.0,-0.0,0.0,0
0.84,run,8.55,-7.91,8.62,4.64,-5.96,0.0,-0.0,0.0,0.182,-2.29,9.49,84.29,-27.77,-11.6,78.22,-24.87,27.33,80.07,28.65,9.49,97.38,3.87,22.76,86.48,-7.29,-9.67,83.85,3.0,4.95,89.58,-33.09,-10.65,76.45,-30.09,25.34,79.63,33.18,16.44,96.93,-0.0,27.81,85.8,-3.0,-8.76,78.93,1.0,-1.0,1.0,-1.0,-1.0,-0.694,-1.0,-0.6406,1.0,0.9874,1.0,-0.1606,-1.0,1.0,0.0082,1.0,1.0,-1.0,0.084,0.006,0.019,0.033,0.013,0.0,0.026,0.013,0.078,0.019,0.169,0.045,0.006,0.058,0.019,0.026,0.006,0.019,-0.0568,-0.1687,0.0767,-0.4786,-0.4832,-0.0153,-0.4188,0.1488,0.0107,0.4832,-0.135,0.316,0.066,0.0552,0.1089,-0.1457,-0.4694,0.0966,0.0142,-0.0993,0.0057,-0.1895,-0.1766,-0.1466,-0.1715,0.0746,-0.0198,0.2083,-0.0099,0.1071,-0.006,0.0394,0.0526,-0.0248,-0.1804,0.011,0.7363,-0.6578,0.1684,0.1526,0.0403,1.0,-1.0,0.5229,-1.0,0.5247,-1.0,-1.0,-0.4485,1.0,1.0,1.0,-0.8931,-1.0,1.0,0.3121,1.0,0.268,-1.0,0.0,0.0,0.0,0.0,0.0,0.0,0.0,0.0,0.0,-0.0,0.0,-0.0,0.0,0
0.88,run,9.42,-7.73,17.83,3.86,0.99,0.0,-0.0,0.0,0.182,-1.41,8.53,85.25,-28.74,-11.69,77.43,-25.84,26.72,79.89,29.44,10.46,97.56,3.43,23.64,86.84,-6.68,-9.67,82.79,4.5,3.45,91.08,-34.59,-12.15,77.95,-31.59,23.84,81.13,31.68,17.94,95.43,-1.5,29.31,84.3,-1.5,-7.26,77.43,1.0,-1.0,1.0,-1.0,-1.0,1.0,-1.0,0.7339,1.0,0.5749,1.0,-0.5014,-1.0,1.0,-0.78,1.0,1.0,-1.0,0.084,0.006,0.019,0.033,0.013,0.0,0.026,0.013,0.078,0.019,0.169,0.045,0.006,0.058,0.019,0.026,0.006,0.019,-0.0399,-0.1825,0.089,-0.4832,-0.4878,-0.0215,-0.4326,0.1396,0.0077,0.497,-0.1212,0.3221,0.0675,0.069,0.1166,-0.1273,-0.4771,0.0859,0.0732,-0.1213,0.05,-0.1499,-0.1408,-0.1256,-0.1718,0.0177,-0.0254,0.1976,0.0448,0.0979,0.0016,0.0793,0.0656,0.0516,-0.155,-0.0326,0.7784,-0.6423,0.1504,0.0809,-0.104,1.0,-1.0,1.0,-1.0,-1.0,-0.694,-1.0,-0.6406,1.0,0.9874,1.0,-0.1606,-1.0,1.0,0.0082,1.0,1.0,-1.0,0.0,0.0,0.0,0.0,0.0,0.0,0.0,0.0,0.0,-0.0,0.0,-0.0,0.0,0
0.92,run,10.17,-7.51,15.08,4.76,-4.29,0.0,-0.0,0.0,0.182,-0.09,7.21,86.48,-30.15,-11.69,76.82,-26.98,25.84,79.89,30.85,11.78,97.56,2.81,24.96,86.57,-5.01,-9.49,81.56,6.0,1.95,92.58,-35.0,-13.65,79.45,-33.09,22.34,82.63,30.18,19.44,96.93,-3.0,30.0,82.8,0.0,-5.76,75.93,1.0,-1.0,1.0,-1.0,-1.0,1.0,-1.0,-1.0,1.0,-0.0152,1.0,0.4661,-1.0,1.0,-1.0,1.0,1.0,-1.0,0.084,0.006,0.019,0.033,0.013,0.0,0.026,0.013,0.078,0.019,0.169,0.045,0.006,0.058,0.019,0.026,0.006,0.019,-0.0245,-0.1994,0.1058,-0.5001,-0.4893,-0.0353,-0.4495,0.1289,0.0046,0.5108,-0.1043,0.3252,0.0598,0.0844,0.1227,-0.1166,-0.4771,0.0675,0.1089,-0.1483,0.0983,-0.1683,-0.1043,-0.1398,-0.1836,-0.0279,-0.0293,0.1901,0.0947,0.0801,-0.0277,0.1131,0.069,0.0765,-0.1085,-0.0919,0.8541,-0.627,0.3111,0.0674,0.0174,1.0,-1.0,1.0,-1.0,-1.0,1.0,-1.0,0.7339,1.0,0.5749,1.0,-0.5014,-1.0,1.0,-0.78,1.0,1.0,-1.0,0.0,0.0,0.0,0.0,0.0,0.0,0.0,0.0,0.0,-0.0,0.0,-0.0,0.0,0
0.96,run,10.84,-7.38,15.45,3.0,-8.72,0.0,-0.0,0.0,0.182,1.41,5.8,87.8,-31.46,-11.69,76.2,-28.48,24.79,79.89,31.64,13.18,96.94,1.85,26.28,86.13,-3.52,-8.88,80.24,7.5,0.45,94.08,-35.0,-15.15,80.95,-34.59,20.84,84.13,28.68,20.94,95.43,-4.5,30.0,81.3,1.5,-4.26,74.43,1.0,-1.0,1.0,-1.0,-1.0,1.0,-1.0,-0.421,1.0,-1.0,1.0,-0.434,-1.0,1.0,-0.5105,1.0,1.0,-1.0,0.078,0.0,0.026,0.019,0.0,0.026,0.026,0.026,0.0,0.013,0.163,0.0,0.026,0.052,0.013,0.019,0.013,0.013,-0.0015,-0.2224,0.1273,-0.5246,-0.4893,-0.046,-0.4694,0.1135,0.0046,0.5354,-0.0813,0.3252,0.0491,0.1074,0.1181,-0.0874,-0.474,0.046,0.1623,-0.1899,0.1492,-0.2096,-0.073,-0.138,-0.2031,-0.0769,-0.0205,0.2249,0.1524,0.0561,-0.0596,0.1653,0.0311,0.1626,-0.0645,-0.1447,0.9198,-0.6078,0.2631,0.0831,-0.0748,1.0,-1.0,1.0,-1.0,-1.0,1.0,-1.0,-1.0,1.0,-0.0152,1.0,0.4661,-1.0,1.0,-1.0,1.0,1.0,-1.0,0.0,0.0,0.0,0.0,0.0,0.0,0.0,0.0,0.0,-0.0,0.0,-0.0,0.0,0
1.0,run,11.54,-7.4,15.28,-0.32,-4.4,0.0,-0.0,0.0,0.182,2.9,4.48,89.21,-32.52,-12.3,76.11,-29.88,23.64,80.42,32.26,14.5,96.42,0.62,27.42,85.34,-2.37,-8.0,78.75,9.0,-1.05,95.58,-35.0,-16.65,82.45,-35.0,19.34,85.63,27.18,22.44,93.93,-6.0,30.0,79.8,3.0,-2.76,72.93,1.0,-1.0,1.0,-1.0,-1.0,1.0,-1.0,-0.2156,1.0,-1.0,1.0,0.2221,-1.0,1.0,-1.0,1.0,1.0,-1.0,0.078,0.0,0.026,0.019,0.0,0.026,0.026,0.026,0.0,0.013,0.163,0.0,0.026,0.052,0.013,0.019,0.013,0.013,0.0245,-0.247,0.1503,-0.5476,-0.4893,-0.0568,-0.4955,0.0951,0.0046,0.5492,-0.0568,0.3145,0.0322,0.1304,0.1104,-0.0614,-0.4633,0.023,0.2116,-0.2252,0.1909,-0.2332,-0.0511,-0.137,-0.2402,-0.123,-0.0143,0.2093,0.1989,-0.0011,-0.1051,0.2022,-0.0071,0.2118,-0.0048,-0.1878,0.978,-0.596,0.2697,0.0523,-0.1522,1.0,-1.0,1.0,-1.0,-1.0,1.0,-1.0,-0.421,1.0,-1.0,1.0,-0.434,-1.0,1.0,-0.5105,1.0,1.0,-1.0,0.0,0.0,0.0,0.0,0.0,0.0,0.0,0.0,0.0,-0.0,0.0,-0.0,0.0,0
1.04,run,12.33,-6.62,10.71,12.34,-4.55,0.0,-0.002,0.0,0.182,5.19,2.2,91.58,-33.75,-13.89,76.82,-32.08,21.71,82.27,32.7,17.05,94.83,-1.85,28.92,83.23,0.26,-5.71,76.46,9.57,-2.55,97.08,-35.0,-18.15,83.95,-35.0,17.84,87.13,25.68,23.94,92.43,-4.5,28.5,78.3,4.5,-4.26,74.43,0.2734,-1.0,0.6724,-1.0,-1.0,0.9153,-1.0,-1.0,1.0,-1.0,1.0,-1.0,1.0,0.6932,-0.9248,1.0,-0.2969,1.0,0.071,0.0,0.039,0.019,0.0,0.052,0.019,0.039,0.0,0.0,0.156,0.0,0.019,0.019,0.006,0.026,0.006,0.013,0.0506,-0.27,0.1749,-0.566,-0.5001,-0.0583,-0.52,0.0752,0.0138,0.5599,-0.0337,0.3053,0.0107,0.1503,0.0966,-0.0414,-0.4479,-0.0031,0.2458,-0.2438,0.2256,-0.2322,-0.076,-0.1016,-0.2601,-0.1608,0.0244,0.1868,0.2255,-0.0353,-0.154,0.2162,-0.0567,0.223,0.0541,-0.2291,1.0395,-0.5981,0.2666,-0.0057,-0.0768,1.0,-1.0,1.0,-1.0,-1.0,1.0,-1.0,-0.2156,1.0,-1.0,1.0,0.2221,-1.0,1.0,-1.0,1.0,1.0,-1.0,0.0,0.0,0.0,0.0,0.0,0.0,0.0,0.0,0.0,-0.0133,0.0,-0.0133,0.0,3
1.08,run,12.96,-6.65,12.69,-1.1,0.69,0.0,-0.004,0.0,0.182,6.5,0.7,93.08,-34.19,-15.38,77.87,-33.13,20.39,83.67,32.52,18.46,93.6,-2.99,29.44,81.65,1.58,-4.57,75.23,8.07,-4.05,95.58,-33.5,-19.65,82.45,-35.0,16.34,88.63,24.18,22.44,90.93,-3.0,30.0,79.8,6.0,-5.76,75.93,-0.6118,-1.0,-0.8648,-0.6997,-1.0,-1.0,-1.0,-1.0,1.0,-1.0,-0.776,-1.0,1.0,1.0,1.0,1.0,-1.0,1.0,0.071,0.0,0.039,0.019,0.0,0.052,0.019,0.039,0.0,0.0,0.156,0.0,0.019,0.019,0.006,0.026,0.006,0.013,0.0905,-0.3099,0.2163,-0.5875,-0.5277,-0.046,-0.5584,0.0414,0.046,0.5676,0.0107,0.2777,-0.0322,0.1764,0.0598,0.0046,-0.408,-0.043,0.2613,-0.2599,0.2506,-0.2106,-0.115,-0.0437,-0.2679,-0.1881,0.0892,0.1479,0.2574,-0.0865,-0.2039,0.2097,-0.1221,0.2591,0.1271,-0.2496,1.1079,-0.5304,0.1869,0.2154,-0.0794,0.2734,-1.0,0.6724,-1.0,-1.0,0.9153,-1.0,-1.0,1.0,-1.0,1.0,-1.0,1.0,0.6932,-0.9248,1.0,-0.2969,1.0,0.0,0.0,0.0,0.0,0.0,0.0,0.0,0.0,0.0,-0.0267,0.0,-0.0267,0.0,3
1.12,run,13.26,-6.59,3.6,1.06,2.35,0.0,-0.006,0.0,0.182,7.47,-0.62,94.31,-34.28,-16.7,79.01,-33.93,19.42,84.81,31.82,19.69,92.81,-3.87,29.62,80.42,2.99,-4.04,74.27,9.57,-5.55,94.08,-32.0,-21.15,80.95,-35.0,14.84,90.13,22.68,20.94,89.43,-1.5,30.0,81.3,7.5,-7.26,77.43,0.3188,-1.0,-1.0,-0.3717,-1.0,-0.368,-1.0,-1.0,1.0,-1.0,-0.6228,-1.0,1.0,1.0,1.0,1.0,-1.0,1.0,0.071,0.0,0.039,0.019,0.0,0.052,0.019,0.039,0.0,0.0,0.156,0.0,0.019,0.019,0.006,0.026,0.006,0.013,0.1135,-0.3359,0.2424,-0.5952,-0.5538,-0.0276,-0.5768,0.0184,0.0706,0.5645,0.0353,0.2562,-0.0522,0.1856,0.0322,0.0276,-0.3881,-0.0644,0.2618,-0.2713,0.2648,-0.1737,-0.1699,0.0325,-0.2506,-0.2105,0.1466,0.093,0.2643,-0.1341,-0.2111,0.1783,-0.1801,0.2602,0.1573,-0.2484,1.1634,-0.5326,0.2214,-0.0192,0.012,-0.6118,-1.0,-0.8648,-0.6997,-1.0,-1.0,-1.0,-1.0,1.0,-1.0,-0.776,-1.0,1.0,1.0,1.0,1.0,-1.0,1.0,0.0,0.0,0.0,0.0,0.0,0.0,0.0,0.0,0.0,-0.04,0.0,-0.04,0.0,3
1.16,run,13.84,-6.06,9.66,12.32,9.82,0.0,-0.008,0.0,0.182,8.17,-1.93,95.27,-34.28,-18.02,80.16,-34.45,18.19,86.13,30.76,20.48,91.67,-4.39,29.88,79.37,4.04,-3.08,73.65,11.07,-7.05,92.58,-30.5,-22.65,79.45,-35.0,13.34,91.63,21.18,19.44,87.93,0.0,30.0,82.8,9.0,-8.76,78.93,1.0,-1.0,-1.0,0.5578,-1.0,-0.0791,-1.0,-1.0,1.0,-1.0,-0.9541,-1.0,1.0,1.0,1.0,1.0,-1.0,1.0,0.052,0.0,0.026,0.0,0.0,0.065,0.0,0.045,0.0,0.026,0.163,0.0,0.006,0.0,0.006,0.0,0.006,0.006,0.1304,-0.359,0.2638,-0.5967,-0.5768,-0.0077,-0.5906,0.0015,0.0905,0.5522,0.0568,0.2424,-0.0675,0.1887,0.0107,0.0522,-0.3789,-0.0813,0.2456,-0.275,0.2647,-0.1273,-0.204,0.0965,-0.2265,-0.2097,0.1763,0.0197,0.2644,-0.1449,-0.2045,0.1362,-0.2054,0.2729,0.1442,-0.2362,1.1891,-0.5275,0.0629,0.0185,0.0409,0.3188,-1.0,-1.0,-0.3717,-1.0,-0.368,-1.0,-1.0,1.0,-1.0,-0.6228,-1.0,1.0,1.0,1.0,1.0,-1.0,1.0,0.0,0.0,0.0,0.0,0.0,0.0,0.0,0.0,0.0,-0.0533,0.0,-0.0533,0.0,3
1.2,run,14.22,-5.56,6.0,12.81,3.15,0.0,-0.01,0.0,0.182,8.7,-3.43,96.06,-33.84,-19.42,81.04,-34.54,16.79,87.63,29.62,21.27,90.18,-4.57,29.88,78.75,5.98,-2.99,73.48,12.57,-8.55,91.08,-29.0,-24.15,77.95,-35.0,11.84,93.13,19.68,17.94,86.43,1.5,30.0,84.3,10.5,-10.26,80.43,1.0,-1.0,-1.0,1.0,-1.0,-0.9478,-1.0,-1.0,1.0,-1.0,-1.0,-1.0,1.0,1.0,1.0,1.0,-1.0,1.0,0.052,0.0,0.026,0.0,0.0,0.065,0.0,0.045,0.0,0.026,0.163,0.0,0.006,0.0,0.006,0.0,0.006,0.006,0.1427,-0.382,0.2807,-0.5967,-0.5998,0.0123,-0.5998,-0.0199,0.1135,0.5338,0.0706,0.2224,-0.0767,0.1933,-0.0077,0.0706,-0.362,-0.092,0.2184,-0.2795,0.2491,-0.0891,-0.2298,0.143,-0.1933,-0.2281,0.2105,-0.0558,0.2373,-0.1769,-0.178,0.1127,-0.2134,0.2606,0.1647,-0.206,1.2398,-0.4809,0.1687,0.215,0.1714,1.0,-1.0,-1.0,0.5578,-1.0,-0.0791,-1.0,-1.0,1.0,-1.0,-0.9541,-1.0,1.0,1.0,1.0,1.0,-1.0,1.0,0.0,0.0,0.0,0.0,0.0,0.0,0.0,0.0,0.0,-0.0667,0.0,-0.0667,0.0,3
1.24,run,14.54,-5.19,3.53,9.62,9.9,0.0,-0.012,0.0,0.182,9.58,-4.75,96.42,-32.96,-20.74,81.56,-34.54,15.47,88.95,28.3,21.45,89.03,-4.39,29.97,78.31,6.94,-3.08,73.56,14.07,-10.05,89.58,-27.5,-25.65,76.45,-35.0,10.34,94.63,18.18,16.44,84.93,3.0,30.0,85.8,12.0,-11.76,81.93,1.0,-1.0,-1.0,1.0,-1.0,-0.8987,-1.0,-1.0,1.0,-1.0,-1.0,-1.0,1.0,1.0,1.0,1.0,-1.0,1.0,0.052,0.0,0.026,0.0,0.0,0.065,0.0,0.045,0.0,0.026,0.163,0.0,0.006,0.0,0.006,0.0,0.006,0.006,0.1519,-0.408,0.2945,-0.589,-0.6243,0.0276,-0.6013,-0.0445,0.1396,0.5139,0.0844,0.1963,-0.0798,0.1933,-0.0184,0.1043,-0.3605,-0.0951,0.1845,-0.2854,0.2219,-0.036,-0.2453,0.1528,-0.1406,-0.2441,0.237,-0.1077,0.2136,-0.2135,-0.1351,0.0789,-0.1863,0.2985,0.1206,-0.1547,1.2731,-0.4374,0.1047,0.2235,0.0549,1.0,-1.0,-1.0,1.0,-1.0,-0.9478,-1.0,-1.0,1.0,-1.0,-1.0,-1.0,1.0,1.0,1.0,1.0,-1.0,1.0,0.0,0.0,0.0,0.0,0.0,0.0,0.0,0.0,0.0,-0.08,0.0,-0.08,0.0,3
1.28,run,14.82,-4.83,4.21,8.97,11.42,0.0,-0.014,0.0,0.182,10.55,-6.15,96.42,-31.82,-22.06,81.65,-34.54,14.15,90.26,26.98,21.53,87.8,-3.43,29.97,78.31,8.88,-3.69,74.09,15.57,-11.55,88.08,-26.0,-27.15,74.95,-35.0,8.84,96.13,16.68,14.94,83.43,4.5,30.0,87.3,13.5,-13.26,83.43,1.0,-1.0,-1.0,1.0,-1.0,-0.3389,-1.0,-1.0,1.0,-1.0,-1.0,-1.0,1.0,1.0,1.0,1.0,-1.0,1.0,0.136,0.0,0.0,0.013,0.0,0.006,0.006,0.071,0.006,0.065,0.039,0.0,0.0,0.0,0.013,0.033,0.026,0.019,0.1672,-0.431,0.3007,-0.5737,-0.6473,0.0368,-0.6013,-0.0675,0.1626,0.4909,0.0874,0.1764,-0.0767,0.1948,-0.0261,0.1212,-0.362,-0.0936,0.1859,-0.2849,0.178,0.0316,-0.2568,0.141,-0.0984,-0.256,0.251,-0.1605,0.1609,-0.2232,-0.0832,0.0609,-0.1588,0.2714,0.0787,-0.1026,1.3011,-0.4055,0.0616,0.1679,0.1728,1.0,-1.0,-1.0,1.0,-1.0,-0.8987,-1.0,-1.0,1.0,-1.0,-1.0,-1.0,1.0,1.0,1.0,1.0,-1.0,1.0,0.0,0.0,0.0,0.0,0.0,0.0,0.0,0.0,0.0,-0.0933,0.0,-0.0933,0.0,3
1.32,run,15.13,-4.4,4.01,9.94,15.23,0.0,-0.016,0.0,0.182,11.69,-7.56,96.33,-30.76,-23.47,81.65,-34.54,12.66,91.67,25.66,21.53,86.4,-2.46,30.06,78.93,9.58,-4.48,75.06,17.07,-13.05,86.58,-24.5,-28.65,73.45,-35.0,7.34,97.63,15.18,13.44,81.93,6.0,30.0,88.8,15.0,-14.76,84.93,1.0,-1.0,-1.0,1.0,-1.0,-0.0925,-1.0,-1.0,1.0,-1.0,-1.0,-1.0,1.0,1.0,1.0,1.0,-1.0,1.0,0.136,0.0,0.0,0.013,0.0,0.006,0.006,0.071,0.006,0.065,0.039,0.0,0.0,0.0,0.013,0.033,0.026,0.019,0.1841,-0.4556,0.3007,-0.5538,-0.6703,0.0383,-0.6013,-0.0905,0.1856,0.4679,0.089,0.1549,-0.0598,0.1948,-0.0261,0.1549,-0.3728,-0.0844,0.1933,-0.2913,0.1246,0.0967,-0.2659,0.1045,-0.0689,-0.2653,0.2618,-0.1985,0.1183,-0.2366,0.0049,0.0426,-0.1112,0.3163,0.0149,-0.0374,1.3255,-0.3739,0.0734,0.1566,0.1994,1.0,-1.0,-1.0,1.0,-1.0,-0.3389,-1.0,-1.0,1.0,-1.0,-1.0,-1.0,1.0,1.0,1.0,1.0,-1.0,1.0,0.0,0.0,0.0,0.0,0.0,0.0,0.0,0.0,0.0,-0.1067,0.0,-0.1067,0.0,3
1.36,run,15.34,-3.85,3.64,12.86,12.96,0.0,-0.018,0.0,0.182,13.01,-8.96,95.54,-29.44,-24.79,80.77,-34.54,11.34,93.08,24.35,21.27,85.08,-1.14,30.06,79.89,11.69,-5.71,76.11,18.57,-14.55,85.08,-23.0,-30.15,74.95,-35.0,5.84,99.13,13.68,11.94,80.43,7.5,30.0,90.3,16.5,-16.26,86.43,1.0,-1.0,-1.0,1.0,-1.0,0.2269,-1.0,-1.0,1.0,-1.0,-1.0,-1.0,1.0,1.0,1.0,1.0,-1.0,1.0,0.136,0.0,0.0,0.013,0.0,0.006,0.006,0.071,0.006,0.065,0.039,0.0,0.0,0.0,0.013,0.033,0.026,0.019,0.204,-0.4801,0.2991,-0.5354,-0.6949,0.0383,-0.6013,-0.1166,0.2102,0.4449,0.089,0.1304,-0.043,0.1963,-0.0153,0.1672,-0.3866,-0.0675,0.2103,-0.2961,0.0815,0.1369,-0.2784,0.0731,-0.0482,-0.2837,0.2755,-0.2254,0.0828,-0.2579,0.0668,0.0356,-0.0375,0.2675,-0.0414,0.0372,1.3526,-0.3363,0.07,0.1735,0.2658,1.0,-1.0,-1.0,1.0,-1.0,-0.0925,-1.0,-1.0,1.0,-1.0,-1.0,-1.0,1.0,1.0,1.0,1.0,-1.0,1.0,0.0,0.0,0.0,0.0,0.0,0.0,0.0,0.0,0.0,-0.12,0.0,-0.12,0.0,3
1.4,run,15.46,-3.49,-2.68,10.69,12.81,0.0,-0.02,0.0,0.182,14.24,-10.37,94.75,-27.95,-26.02,79.8,-34.54,9.84,94.48,22.94,20.39,83.58,0.26,29.97,80.86,12.39,-7.03,77.52,20.07,-16.05,83.58,-21.5,-31.65,76.45,-35.0,4.34,100.63,12.18,10.44,78.93,9.0,30.0,91.8,18.0,-17.76,87.93,1.0,-1.0,-0.8145,1.0,-1.0,0.4178,-1.0,-1.0,1.0,-1.0,-1.0,-1.0,1.0,1.0,1.0,1.0,-1.0,1.0,0.136,0.006,0.013,0.026,0.006,0.013,0.006,0.033,0.006,0.117,0.0,0.006,0.006,0.006,0.026,0.013,0.033,0.013,0.227,-0.5047,0.2853,-0.5123,-0.7179,0.023,-0.6013,-0.1396,0.2347,0.4218,0.0844,0.1074,-0.0199,0.1963,0.0015,0.204,-0.408,-0.0491,0.2333,-0.2992,0.0053,0.182,-0.281,-0.0062,-0.0338,-0.2847,0.2848,-0.2439,0.0408,-0.2667,0.1329,0.0249,0.0369,0.3251,-0.1094,0.095,1.3711,-0.2881,0.0636,0.2244,0.2263,1.0,-1.0,-1.0,1.0,-1.0,0.2269,-1.0,-1.0,1.0,-1.0,-1.0,-1.0,1.0,1.0,1.0,1.0,-1.0,1.0,0.0,0.0,0.0,0.0,0.0,0.0,0.0,0.0,0.0,-0.1333,0.0,-0.1333,0.0,3
1.44,run,15.29,-3.21,-7.12,5.33,18.95,0.0,-0.022,0.0,0.182,15.56,-11.6,93.16,-26.46,-27.16,78.57,-34.54,8.35,95.89,21.53,19.16,82.18,1.76,29.71,82.27,14.5,-8.44,79.01,21.57,-17.55,82.08,-20.0,-33.15,77.95,-35.0,2.84,102.13,10.68,8.94,77.43,10.5,28.5,93.3,19.5,-19.26,89.43,1.0,-1.0,-0.4904,1.0,-1.0,1.0,-1.0,-1.0,1.0,-1.0,-1.0,-1.0,1.0,0.9223,1.0,1.0,-1.0,1.0,0.136,0.006,0.013,0.026,0.006,0.013,0.006,0.033,0.006,0.117,0.0,0.006,0.006,0.006,0.026,0.013,0.033,0.013,0.2485,-0.5292,0.2715,-0.4863,-0.7394,0.0061,-0.6013,-0.1657,0.2592,0.3973,0.069,0.0813,0.0046,0.1948,0.0184,0.2163,-0.431,-0.0245,0.2439,-0.3016,-0.0481,0.2253,-0.2773,-0.0677,-0.0236,-0.2972,0.2915,-0.2629,-0.0291,-0.2846,0.1852,0.0117,0.0892,0.2736,-0.163,0.1586,1.3811,-0.2564,-0.0468,0.1866,0.2236,1.0,-1.0,-0.8145,1.0,-1.0,0.4178,-1.0,-1.0,1.0,-1.0,-1.0,-1.0,1.0,1.0,1.0,1.0,-1.0,1.0,0.0,0.0,0.0,0.0,0.0,0.0,0.0,0.0,0.0,-0.1467,0.0,-0.1467,0.0,3
1.48,run,15.21,-2.78,-4.8,11.85,21.67,0.0,-0.024,0.0,0.182,16.88,-13.01,91.85,-25.14,-28.3,77.52,-34.54,6.94,97.29,19.86,17.93,80.86,3.25,29.53,83.58,15.38,-9.84,80.33,23.07,-19.05,80.58,-18.5,-34.65,79.45,-35.0,1.34,103.63,9.18,7.44,75.93,12.0,27.0,94.8,21.0,-20.76,90.93,1.0,-1.0,-0.3579,1.0,-1.0,1.0,-1.0,-1.0,1.0,-1.0,-1.0,-1.0,1.0,0.3825,1.0,1.0,-1.0,1.0,0.136,0.006,0.013,0.026,0.006,0.013,0.006,0.033,0.006,0.117,0.0,0.006,0.006,0.006,0.026,0.013,0.033,0.013,0.2715,-0.5507,0.2439,-0.4602,-0.7593,-0.0153,-0.6013,-0.1917,0.2838,0.3728,0.0476,0.0568,0.0307,0.1902,0.043,0.2531,-0.4556,0.0015,0.2571,-0.2917,-0.1373,0.2555,-0.2689,-0.128,-0.0165,-0.3059,0.2961,-0.2761,-0.1009,-0.2913,0.2275,-0.0091,0.1545,0.3297,-0.2062,0.2089,1.3665,-0.2328,-0.1243,0.0931,0.3307,1.0,-1.0,-0.4904,1.0,-1.0,1.0,-1.0,-1.0,1.0,-1.0,-1.0,-1.0,1.0,0.9223,1.0,1.0,-1.0,1.0,0.0,0.0,0.0,0.0,0.0,0.0,0.0,0.0,0.0,-0.16,0.0,-0.16,0.0,3
1.52,run,14.63,-2.59,-14.64,3.18,21.67,0.0,-0.026,0.0,0.182,18.46,-14.59,89.82,-23.73,-29.36,76.9,-34.54,5.54,98.35,18.28,16.61,79.45,4.57,29.0,84.99,17.14,-11.34,81.83,24.57,-20.55,79.08,-17.0,-36.15,80.95,-35.0,-0.16,105.13,7.68,5.94,74.43,13.5,25.5,96.3,22.5,-22.26,92.43,1.0,-1.0,0.0137,1.0,-1.0,1.0,-1.0,-1.0,1.0,-1.0,-1.0,-1.0,1.0,0.1829,1.0,1.0,-1.0,1.0,0.039,0.0,0.0,0.026,0.019,0.006,0.013,0.052,0.019,0.033,0.006,0.006,0.006,0.0,0.026,0.0,0.026,0.013,0.2945,-0.5752,0.2209,-0.4372,-0.7793,-0.0337,-0.6013,-0.2163,0.3083,0.3436,0.0261,0.0337,0.0568,0.1871,0.066,0.2684,-0.4801,0.0245,0.2663,-0.2963,-0.1825,0.2653,-0.2631,-0.1587,-0.0116,-0.3063,0.2994,-0.3027,-0.1513,-0.2903,0.2571,-0.0179,0.1945,0.2884,-0.2364,0.2326,1.3593,-0.1951,-0.0838,0.2068,0.3782,1.0,-1.0,-0.3579,1.0,-1.0,1.0,-1.0,-1.0,1.0,-1.0,-1.0,-1.0,1.0,0.3825,1.0,1.0,-1.0,1.0,0.0,0.0,0.0,0.0,0.0,0.0,0.0,0.0,0.0,-0.1733,0.0,-0.1733,0.0,3
1.56,run,14.42,-2.35,-5.56,10.86,-15.54,0.0,-0.028,0.0,0.182,20.39,-15.91,88.51,-22.15,-31.11,76.73,-34.54,4.13,99.84,16.7,15.29,78.05,6.06,28.12,86.4,18.37,-12.74,83.14,26.07,-22.05,80.58,-15.5,-37.65,82.45,-35.0,-1.66,106.63,6.18,4.44,72.93,15.0,24.0,97.8,24.0,-23.76,93.93,1.0,-1.0,0.3355,1.0,-1.0,1.0,-1.0,-1.0,1.0,-1.0,-0.7605,-1.0,1.0,-0.1311,1.0,1.0,-1.0,1.0,0.039,0.0,0.0,0.026,0.019,0.006,0.013,0.052,0.019,0.033,0.006,0.006,0.006,0.0,0.026,0.0,0.026,0.013,0.3221,-0.6029,0.1856,-0.4126,-0.7977,-0.0445,-0.6013,-0.2408,0.3267,0.316,0.0031,0.0092,0.0798,0.1779,0.0905,0.2991,-0.5062,0.0506,0.2898,-0.3108,-0.2598,0.2775,-0.2531,-0.1513,-0.0081,-0.3063,0.2785,-0.3152,-0.192,-0.2951,0.2661,-0.047,0.2281,0.3167,-0.2631,0.2604,1.3085,-0.1783,-0.2555,0.0555,0.3782,1.0,-1.0,0.0137,1.0,-1.0,1.0,-1.0,-1.0,1.0,-1.0,-1.0,-1.0,1.0,0.1829,1.0,1.0,-1.0,1.0,0.0,0.0,0.0,0.0,0.0,0.0,0.0,0.0,0.0,-0.1867,0.0,-0.1867,0.0,3
1.6,run,13.98,-2.21,-13.22,4.74,-25.07,0.0,-0.03,0.0,0.182,21.8,-17.4,87.28,-20.65,-32.52,76.64,-34.54,2.72,101.43,15.12,14.06,76.99,7.29,26.98,87.8,19.86,-14.15,84.64,24.57,-23.55,82.08,-14.0,-39.15,83.95,-35.0,-3.16,108.13,4.68,2.94,71.43,16.5,22.5,99.3,25.5,-25.26,95.43,0.6655,-1.0,0.3209,1.0,-1.0,1.0,-1.0,-1.0,1.0,-1.0,-0.0508,-1.0,1.0,0.6966,1.0,1.0,-0.7103,1.0,0.039,0.0,0.0,0.026,0.019,0.006,0.013,0.052,0.019,0.033,0.006,0.006,0.006,0.0,0.026,0.0,0.026,0.013,0.3559,-0.6259,0.1626,-0.385,-0.8283,-0.0476,-0.6013,-0.2654,0.3528,0.2884,-0.0199,-0.0153,0.1058,0.1626,0.115,0.3206,-0.5308,0.0736,0.3293,-0.3037,-0.268,0.2977,-0.2921,-0.1174,-0.0057,-0.3063,0.2926,-0.3241,-0.2206,-0.2985,0.284,-0.0903,0.2516,0.3021,-0.2761,0.2685,1.291,-0.1574,-0.097,0.1895,-0.2712,1.0,-1.0,0.3355,1.0,-1.0,1.0,-1.0,-1.0,1.0,-1.0,-0.7605,-1.0,1.0,-0.1311,1.0,1.0,-1.0,1.0,0.0,0.0,0.0,0.0,0.0,0.0,0.0,0.0,0.0,-0.2,0.0,-0.2,0.0,3
1.64,run,13.92,-1.56,-6.14,18.81,-21.99,0.0,-0.032,0.0,0.182,23.03,-18.81,85.96,-19.07,-33.84,76.9,-34.54,1.23,102.74,13.62,13.18,75.32,8.7,25.58,89.21,21.45,-15.56,85.78,23.07,-25.05,83.58,-12.5,-40.65,85.45,-35.0,-4.66,109.63,3.18,1.44,69.93,18.0,21.0,100.8,27.0,-26.76,96.93,0.0339,-1.0,0.3772,1.0,-1.0,1.0,-1.0,-1.0,1.0,-1.0,0.3703,-1.0,1.0,0.7592,1.0,1.0,-0.7845,1.0,0.039,0.0,0.0,0.0,0.026,0.006,0.006,0.033,0.013,0.013,0.019,0.006,0.006,0.0,0.033,0.006,0.033,0.019,0.3804,-0.6519,0.1411,-0.359,-0.8529,-0.0491,-0.6013,-0.2899,0.3804,0.2608,-0.0414,-0.0337,0.1273,0.1427,0.1396,0.3467,-0.5553,0.0997,0.3227,-0.3105,-0.2683,0.3063,-0.2966,-0.0879,-0.004,-0.3066,0.3085,-0.3306,-0.2351,-0.2781,0.2794,-0.1381,0.2683,0.3094,-0.2855,0.2859,1.252,-0.1451,-0.2307,0.0827,-0.4376,0.6655,-1.0,0.3209,1.0,-1.0,1.0,-1.0,-1.0,1.0,-1.0,-0.0508,-1.0,1.0,0.6966,1.0,1.0,-0.7103,1.0,0.0,0.0,0.0,0.0,0.0,0.0,0.0,0.0,0.0,-0.2133,0.0,-0.2133,0.0,3
1.68,run,13.8,-0.56,-7.07,27.87,-16.04,0.0,-0.034,0.0,0.182,24.17,-20.3,84.55,-17.23,-35.33,77.96,-34.54,-0.26,104.24,12.22,11.25,73.92,10.11,24.17,90.7,22.68,-16.96,87.63,21.57,-26.55,85.08,-11.0,-42.15,86.95,-35.0,-6.16,111.13,1.68,-0.06,68.43,19.5,21.5,102.3,28.5,-25.26,98.43,0.2085,-1.0,0.7835,1.0,-1.0,1.0,-1.0,-1.0,1.0,-1.0,-0.5218,-1.0,1.0,0.8454,1.0,1.0,0.7121,1.0,0.039,0.0,0.0,0.0,0.026,0.006,0.006,0.033,0.013,0.013,0.019,0.006,0.006,0.0,0.033,0.006,0.033,0.019,0.4019,-0.6765,0.1181,-0.3313,-0.8759,-0.0445,-0.6013,-0.316,0.4034,0.2347,-0.0568,-0.0629,0.1519,0.1181,0.1641,0.3743,-0.5798,0.1197,0.3064,-0.3095,-0.2741,0.318,-0.294,-0.0443,-0.0028,-0.3125,0.3023,-0.3292,-0.2221,-0.304,0.2877,-0.1888,0.2799,0.3202,-0.2919,0.2749,1.2473,-0.0882,-0.1071,0.3282,-0.3838,0.0339,-1.0,0.3772,1.0,-1.0,1.0,-1.0,-1.0,1.0,-1.0,0.3703,-1.0,1.0,0.7592,1.0,1.0,-0.7845,1.0,0.0,0.0,0.0,0.0,0.0,0.0,0.0,0.0,0.0,-0.2267,0.0,-0.2267,0.0,3
1.72,run,13.82,0.23,-4.21,19.65,4.25,0.0,-0.036,0.0,0.182,24.87,-21.71,83.23,-16.52,-36.65,78.93,-34.54,-1.67,105.64,10.81,9.93,72.51,11.43,22.85,92.2,24.26,-18.37,88.86,21.6,-28.05,86.58,-9.5,-43.65,88.45,-35.0,-7.66,112.63,0.18,-1.56,66.93,21.0,20.0,103.8,30.0,-23.76,99.93,0.617,-1.0,1.0,1.0,-1.0,0.3804,-1.0,-1.0,1.0,-1.0,-0.1509,-1.0,1.0,-0.035,1.0,1.0,1.0,1.0,0.039,0.0,0.0,0.0,0.026,0.006,0.006,0.033,0.013,0.013,0.019,0.006,0.006,0.0,0.033,0.006,0.033,0.019,0.4218,-0.7026,0.0936,-0.2991,-0.902,-0.0261,-0.6013,-0.3421,0.4295,0.2102,-0.0905,-0.0874,0.1764,0.0936,0.1902,0.3958,-0.6044,0.1519,0.289,-0.314,-0.2836,0.3429,-0.3032,0.0377,-0.0019,-0.3161,0.309,-0.3221,-0.2815,-0.3045,0.293,-0.2238,0.2933,0.3043,-0.296,0.3128,1.2367,-0.0008,-0.1234,0.4865,-0.28,0.2085,-1.0,0.7835,1.0,-1.0,1.0,-1.0,-1.0,1.0,-1.0,-0.5218,-1.0,1.0,0.8454,1.0,1.0,0.7121,1.0,0.0,0.0,0.0,0.0,0.0,0.0,0.0,0.0,0.0,-0.24,0.0,-0.24,0.0,3
1.76,run,13.7,1.46,-5.53,30.47,10.72,0.0,-0.038,0.0,0.182,25.49,-23.2,82.71,-15.21,-38.06,80.33,-34.54,-3.08,107.05,9.32,8.61,71.19,12.92,21.62,93.69,25.58,-19.78,89.74,23.1,-29.55,88.08,-8.0,-45.15,89.95,-35.0,-9.16,114.13,-1.32,-0.06,65.43,22.5,18.5,105.3,31.5,-22.26,101.43,0.8517,-1.0,0.4093,1.0,-1.0,0.4009,-1.0,-1.0,1.0,-1.0,0.7254,-1.0,1.0,0.039,1.0,1.0,1.0,0.6896,0.0,0.0,0.006,0.026,0.033,0.019,0.006,0.033,0.026,0.013,0.019,0.013,0.006,0.0,0.026,0.013,0.026,0.026,0.4341,-0.7271,0.0706,-0.2869,-0.925,-0.0092,-0.6013,-0.3666,0.4541,0.1856,-0.1135,-0.112,0.1994,0.0706,0.2163,0.4234,-0.6289,0.1733,0.2485,-0.3122,-0.2851,0.2863,-0.2989,0.09,-0.0014,-0.3137,0.3087,-0.3179,-0.2837,-0.3055,0.2918,-0.2433,0.3035,0.317,-0.2996,0.2998,1.2385,0.0679,-0.0734,0.3429,0.0741,0.617,-1.0,1.0,1.0,-1.0,0.3804,-1.0,-1.0,1.0,-1.0,-0.1509,-1.0,1.0,-0.035,1.0,1.0,1.0,1.0,0.0,0.0,0.0,0.0,0.0,0.0,0.0,0.0,0.0,-0.2533,0.0,-0.2533,0.0,3
1.8,run,13.58,2.28,-4.6,18.36,5.15,0.0,-0.04,0.0,0.182,25.49,-24.79,82.35,-13.54,-39.64,81.91,-34.54,-4.66,108.54,7.73,7.12,69.61,14.41,20.3,95.19,27.16,-21.09,92.11,24.6,-31.05,89.58,-6.5,-46.65,88.45,-35.0,-10.66,115.63,-2.82,-1.56,63.93,24.0,17.0,106.8,33.0,-20.76,99.93,1.0,-0.7547,0.7893,1.0,-1.0,-1.0,-1.0,-1.0,1.0,-1.0,0.0905,-1.0,1.0,-0.3187,1.0,1.0,1.0,-0.2711,0.0,0.0,0.006,0.026,0.033,0.019,0.006,0.033,0.026,0.013,0.019,0.013,0.006,0.0,0.026,0.013,0.026,0.026,0.4449,-0.7532,0.0614,-0.2638,-0.9495,0.0153,-0.6013,-0.3912,0.4786,0.1595,-0.1365,-0.135,0.2255,0.0491,0.2424,0.4464,-0.6535,0.1887,0.2142,-0.3163,-0.2341,0.2866,-0.3012,0.155,-0.001,-0.3116,0.3081,-0.3203,-0.2848,-0.3001,0.302,-0.2508,0.3102,0.3082,-0.3017,0.2674,1.228,0.175,-0.0966,0.5318,0.1871,0.8517,-1.0,0.4093,1.0,-1.0,0.4009,-1.0,-1.0,1.0,-1.0,0.7254,-1.0,1.0,0.039,1.0,1.0,1.0,0.6896,0.0,0.0,0.0,0.0,0.0,0.0,0.0,0.0,0.0,-0.2667,0.0,-0.2667,0.0,3
1.84,run,13.44,2.74,-5.03,12.11,-2.68,0.0,-0.042,0.0,0.182,25.05,-26.19,82.27,-11.95,-41.04,83.32,-34.63,-6.06,109.95,6.33,5.71,68.29,15.91,19.16,96.5,28.56,-22.06,92.99,26.1,-32.55,88.08,-5.0,-48.15,86.95,-35.0,-12.16,117.13,-4.32,-0.06,62.43,25.5,15.5,108.3,34.5,-19.26,98.43,1.0,-1.0,0.1032,1.0,-1.0,-0.2696,-1.0,-1.0,1.0,-1.0,1.0,-1.0,1.0,-0.4118,1.0,1.0,1.0,-1.0,0.0,0.0,0.006,0.026,0.033,0.019,0.006,0.033,0.026,0.013,0.019,0.013,0.006,0.0,0.026,0.013,0.026,0.026,0.4449,-0.7808,0.0552,-0.2347,-0.9771,0.043,-0.6013,-0.4188,0.5047,0.1319,-0.1626,-0.1626,0.2516,0.0261,0.2684,0.474,-0.6765,0.2301,0.1499,-0.3159,-0.1848,0.3003,-0.3053,0.2029,-0.0007,-0.3126,0.3049,-0.3186,-0.2886,-0.3045,0.3006,-0.2543,0.3063,0.3102,-0.2899,0.3288,1.2176,0.247,-0.0803,0.3205,0.0898,1.0,-0.7547,0.7893,1.0,-1.0,-1.0,-1.0,-1.0,1.0,-1.0,0.0905,-1.0,1.0,-0.3187,1.0,1.0,1.0,-0.2711,0.0,0.0,0.0,0.0,0.0,0.0,0.0,0.0,0.0,-0.28,0.0,-0.28,0.0,3
1.88,run,13.3,3.25,-5.84,12.61,-5.59,0.0,-0.044,0.0,0.182,24.7,-27.51,82.53,-10.55,-42.45,84.64,-34.63,-7.56,111.27,4.92,4.31,66.8,17.23,17.84,97.91,29.97,-22.68,94.92,27.6,-34.05,89.58,-3.5,-49.65,85.45,-35.0,-13.66,118.63,-5.82,1.44,60.93,27.0,14.0,109.8,35.0,-17.76,96.93,1.0,-1.0,0.4488,1.0,-1.0,-0.6847,-1.0,-1.0,1.0,-1.0,1.0,-1.0,1.0,-0.3962,1.0,1.0,1.0,-1.0,0.006,0.006,0.013,0.019,0.033,0.0,0.013,0.026,0.026,0.013,0.019,0.019,0.026,0.013,0.039,0.013,0.019,0.0,0.4372,-0.8053,0.0537,-0.2071,-1.0017,0.0675,-0.6029,-0.4433,0.5292,0.1074,-0.1871,-0.1856,0.2777,0.0061,0.2915,0.4985,-0.6934,0.2454,0.0765,-0.3123,-0.1351,0.3128,-0.3049,0.2332,-0.0062,-0.3099,0.3046,-0.3142,-0.2932,-0.2986,0.3073,-0.2521,0.2999,0.3083,-0.2656,0.2871,1.2051,0.287,-0.0878,0.2114,-0.0467,1.0,-1.0,0.1032,1.0,-1.0,-0.2696,-1.0,-1.0,1.0,-1.0,1.0,-1.0,1.0,-0.4118,1.0,1.0,1.0,-1.0,0.0,0.0,0.0,0.0,0.0,0.0,0.0,0.0,0.0,-0.2933,0.0,-0.2933,0.0,3
1.92,run,13.18,3.96,-5.07,18.55,-5.81,0.0,-0.046,0.0,0.182,24.52,-28.92,83.32,-9.05,-43.86,85.69,-34.63,-8.96,112.68,3.52,2.99,65.39,18.54,16.44,99.4,31.38,-23.03,95.89,29.1,-35.55,91.08,-2.0,-51.15,83.95,-35.0,-15.16,120.13,-7.32,2.94,59.43,25.5,12.5,111.3,35.0,-16.26,95.43,1.0,-1.0,0.5839,1.0,-1.0,-0.5192,-1.0,-1.0,1.0,-1.0,1.0,-0.9176,0.5241,-0.5051,1.0,1.0,1.0,-1.0,0.006,0.006,0.013,0.019,0.033,0.0,0.013,0.026,0.026,0.013,0.019,0.019,0.026,0.013,0.039,0.013,0.019,0.0,0.431,-0.8283,0.0583,-0.1825,-1.0262,0.0905,-0.6029,-0.4694,0.5522,0.0828,-0.2117,-0.2117,0.3007,-0.0169,0.316,0.5231,-0.7041,0.2792,0.0306,-0.3047,-0.0773,0.3108,-0.3053,0.2494,-0.0043,-0.3146,0.2993,-0.3118,-0.2971,-0.3067,0.3012,-0.2626,0.3018,0.3077,-0.2261,0.3273,1.1926,0.3315,-0.1019,0.2202,-0.0975,1.0,-1.0,0.4488,1.0,-1.0,-0.6847,-1.0,-1.0,1.0,-1.0,1.0,-1.0,1.0,-0.3962,1.0,1.0,1.0,-1.0,0.0,0.0,0.0,0.0,0.0,0.0,0.0,0.0,0.0,-0.3067,0.0,-0.3067,0.0,3
1.96,run,13.26,4.58,-0.61,14.15,2.66,0.0,-0.048,0.0,0.182,24.96,-30.32,84.38,-7.73,-45.26,86.4,-34.63,-10.28,114.08,2.11,1.93,63.98,19.95,15.21,100.72,32.61,-23.12,96.5,30.6,-37.05,92.58,-0.5,-52.65,82.45,-35.0,-16.66,121.63,-8.82,4.44,57.93,24.0,11.0,112.8,35.0,-14.76,93.93,1.0,-1.0,1.0,1.0,-1.0,-0.521,-1.0,-1.0,1.0,-1.0,1.0,-0.1845,-1.0,-0.5781,1.0,1.0,1.0,-1.0,0.006,0.006,0.013,0.019,0.033,0.0,0.013,0.026,0.026,0.013,0.019,0.019,0.026,0.013,0.039,0.013,0.019,0.0,0.428,-0.8529,0.0721,-0.1565,-1.0508,0.1089,-0.6029,-0.4939,0.5768,0.0583,-0.2347,-0.2362,0.3237,-0.0414,0.3421,0.5476,-0.7102,0.2961,0.0098,-0.3057,-0.0022,0.3157,-0.3061,0.2438,-0.003,-0.3126,0.3019,-0.3106,-0.2946,-0.307,0.2974,-0.2762,0.3094,0.3077,-0.1814,0.2926,1.1826,0.3932,-0.0885,0.3237,-0.1015,1.0,-1.0,0.5839,1.0,-1.0,-0.5192,-1.0,-1.0,1.0,-1.0,1.0,-0.9176,0.5241,-0.5051,1.0,1.0,1.0,-1.0,0.0,0.0,0.0,0.0,0.0,0.0,0.0,0.0,0.0,-0.32,0.0,-0.32,0.0,3
2.0,run,13.19,5.24,-4.77,15.29,9.19,0.0,-0.05,0.0,0.182,25.66,-31.73,85.61,-6.33,-46.67,86.84,-34.63,-11.51,115.49,0.7,1.14,62.58,21.27,13.71,102.04,33.57,-23.64,97.56,32.1,-38.55,94.08,1.0,-51.15,83.95,-35.0,-18.16,123.13,-10.32,5.94,59.43,22.5,9.5,114.3,35.0,-13.26,92.43,1.0,-1.0,1.0,1.0,-0.2969,0.3434,-1.0,-1.0,1.0,-1.0,1.0,0.423,-1.0,-0.0458,1.0,1.0,1.0,-1.0,0.033,0.006,0.026,0.013,0.026,0.0,0.006,0.078,0.026,0.013,0.019,0.013,0.019,0.0,0.033,0.013,0.039,0.006,0.4357,-0.8774,0.0905,-0.1335,-1.0753,0.1212,-0.6029,-0.517,0.6013,0.0337,-0.2531,-0.2608,0.3482,-0.0629,0.3651,0.5691,-0.7118,0.3068,0.0356,-0.306,0.0675,0.3073,-0.3063,0.2167,-0.0021,-0.3051,0.3034,-0.3095,-0.2752,-0.3069,0.3002,-0.2738,0.3029,0.2959,-0.1327,0.2451,1.1894,0.4475,-0.0106,0.247,0.0464,1.0,-1.0,1.0,1.0,-1.0,-0.521,-1.0,-1.0,1.0,-1.0,1.0,-0.1845,-1.0,-0.5781,1.0,1.0,1.0,-1.0,0.0,0.0,0.0,0.0,0.0,0.0,0.0,0.0,0.0,-0.3333,0.0,-0.3333,0.0,3
2.04,run,13.05,5.96,-5.16,20.21,6.75,0.0,-0.05,0.0,0.182,26.72,-33.22,87.1,-4.75,-48.16,86.84,-34.63,-12.74,116.98,-0.97,0.62,61.17,22.41,12.3,103.54,34.37,-22.41,97.91,33.6,-40.05,95.58,2.5,-49.65,82.45,-35.0,-19.66,124.63,-11.82,7.44,60.93,21.0,8.0,115.8,35.0,-11.76,90.93,1.0,-1.0,1.0,1.0,-0.0978,0.0603,-1.0,-1.0,1.0,-0.9608,1.0,0.7512,-1.0,0.1805,1.0,1.0,1.0,-1.0,0.033,0.006,0.026,0.013,0.026,0.0,0.006,0.078,0.026,0.013,0.019,0.013,0.019,0.0,0.033,0.013,0.039,0.006,0.4479,-0.902,0.112,-0.1089,-1.0999,0.1289,-0.6029,-0.5384,0.6259,0.0092,-0.2669,-0.2853,0.3712,-0.089,0.3881,0.586,-0.721,0.3252,0.071,-0.3062,0.1278,0.3071,-0.3064,0.1805,-0.0015,-0.2941,0.3044,-0.3087,-0.2444,-0.3069,0.2965,-0.2895,0.2983,0.2704,-0.1274,0.2406,1.1836,0.5052,-0.0833,0.2668,0.1605,1.0,-1.0,1.0,1.0,-0.2969,0.3434,-1.0,-1.0,1.0,-1.0,1.0,0.423,-1.0,-0.0458,1.0,1.0,1.0,-1.0,0.0,0.0,0.0,0.0,0.0,0.0,0.0,0.0,0.0,-0.3333,0.0,-0.3333,0.0,3
2.08,run,13.12,6.22,-0.34,6.71,4.48,0.0,-0.05,0.0,0.182,28.04,-34.63,88.42,-3.34,-49.13,86.48,-34.72,-13.89,118.3,-2.29,0.53,60.21,23.2,10.9,104.94,34.8,-21.45,98.0,35.0,-41.55,97.08,4.0,-48.15,80.95,-35.0,-21.16,126.13,-13.32,8.94,62.43,19.5,6.5,117.3,35.0,-10.26,89.43,1.0,-1.0,1.0,1.0,0.4151,-0.3494,-1.0,-1.0,1.0,-0.3834,1.0,1.0,-1.0,0.3838,0.8119,1.0,1.0,-1.0,0.033,0.006,0.026,0.013,0.026,0.0,0.006,0.078,0.026,0.013,0.019,0.013,0.019,0.0,0.033,0.013,0.039,0.006,0.4663,-0.9281,0.1381,-0.0813,-1.1259,0.1289,-0.6029,-0.5599,0.6519,-0.0199,-0.2761,-0.3099,0.3912,-0.1135,0.4142,0.5998,-0.6995,0.3313,0.1125,-0.3033,0.1784,0.3092,-0.3035,0.1263,-0.001,-0.2791,0.302,-0.3155,-0.2025,-0.2986,0.2755,-0.2864,0.2978,0.2364,-0.0159,0.1894,1.1713,0.5677,-0.0901,0.3527,0.1178,1.0,-1.0,1.0,1.0,-0.0978,0.0603,-1.0,-1.0,1.0,-0.9608,1.0,0.7512,-1.0,0.1805,1.0,1.0,1.0,-1.0,0.0,0.0,0.0,0.0,0.0,0.0,0.0,0.0,0.0,-0.3333,0.0,-0.3333,0.0,3
2.12,run,13.04,6.58,-3.72,8.54,-2.47,0.0,-0.05,0.0,0.254,29.44,-36.04,89.91,-1.93,-50.01,85.34,-34.72,-15.12,119.71,-3.78,0.53,59.41,23.55,9.49,106.35,34.89,-20.21,97.56,35.0,-43.05,98.58,5.5,-46.65,79.45,-35.0,-22.66,127.63,-11.82,10.44,63.93,18.0,8.0,118.8,35.0,-8.76,87.93,1.0,-1.0,1.0,1.0,0.4816,0.0184,-1.0,-1.0,1.0,-0.2492,1.0,1.0,-1.0,0.9899,0.6427,1.0,1.0,-1.0,0.033,0.006,0.026,0.019,0.019,0.013,0.0,0.254,0.039,0.013,0.006,0.0,0.0,0.0,0.052,0.006,0.058,0.006,0.4893,-0.9526,0.1611,-0.0568,-1.1428,0.1227,-0.6044,-0.5798,0.675,-0.043,-0.2777,-0.3267,0.405,-0.1381,0.4387,0.6075,-0.6826,0.3329,0.1638,-0.3031,0.21,0.3072,-0.2748,0.0657,-0.0064,-0.2691,0.2965,-0.3059,-0.1474,-0.2714,0.2439,-0.2912,0.2992,0.1938,0.0512,0.1382,1.1769,0.5904,-0.006,0.117,0.0783,1.0,-1.0,1.0,1.0,0.4151,-0.3494,-1.0,-1.0,1.0,-0.3834,1.0,1.0,-1.0,0.3838,0.8119,1.0,1.0,-1.0,0.0,0.0,0.0,0.0,0.0,0.0,0.0,0.0,0.0,-0.3333,0.0,-0.3333,0.0,3
2.16,run,12.98,6.97,-3.54,9.79,-2.42,0.0,-0.05,0.0,0.254,30.76,-37.44,91.23,-0.44,-50.54,84.38,-34.72,-16.35,121.11,-5.1,1.14,59.06,23.55,8.26,107.84,34.89,-19.07,96.86,35.0,-44.55,100.08,7.0,-45.15,77.95,-35.0,-24.16,129.13,-10.32,11.94,65.43,16.5,9.5,117.3,35.0,-7.26,86.43,1.0,-1.0,1.0,1.0,0.5756,-0.3852,-1.0,-1.0,1.0,0.6773,0.9108,1.0,-1.0,1.0,-0.798,1.0,1.0,-1.0,0.033,0.006,0.026,0.019,0.019,0.013,0.0,0.254,0.039,0.013,0.006,0.0,0.0,0.0,0.052,0.006,0.058,0.006,0.5139,-0.9771,0.1871,-0.0322,-1.1582,0.1028,-0.6044,-0.6013,0.6995,-0.069,-0.2777,-0.3405,0.4111,-0.1626,0.4633,0.609,-0.6611,0.3252,0.2071,-0.3045,0.2451,0.3074,-0.2501,-0.029,-0.0045,-0.2692,0.2999,-0.3123,-0.1032,-0.2419,0.1938,-0.2962,0.3018,0.1415,0.1167,0.0679,1.1702,0.6219,-0.0649,0.149,-0.0431,1.0,-1.0,1.0,1.0,0.4816,0.0184,-1.0,-1.0,1.0,-0.2492,1.0,1.0,-1.0,0.9899,0.6427,1.0,1.0,-1.0,0.0,0.0,0.0,0.0,0.0,0.0,0.0,0.0,0.0,-0.3333,0.0,-0.3333,0.0,3
2.2,run,12.93,7.23,-2.2,3.81,-2.49,0.0,-0.05,0.0,0.254,32.17,-38.85,92.64,0.88,-50.62,82.97,-34.72,-17.49,122.52,-6.59,2.2,59.24,23.29,7.38,109.25,34.8,-17.75,95.71,35.0,-46.05,101.58,7.41,-43.65,76.45,-35.0,-25.66,130.63,-8.82,10.44,66.93,15.0,11.0,115.8,35.0,-5.76,84.93,1.0,-1.0,1.0,0.2116,0.7129,-1.0,-1.0,-1.0,1.0,0.5557,0.1957,1.0,-1.0,0.9749,-1.0,1.0,1.0,-1.0,0.033,0.006,0.026,0.019,0.019,0.013,0.0,0.254,0.039,0.013,0.006,0.0,0.0,0.0,0.052,0.006,0.058,0.006,0.5369,-1.0017,0.2102,-0.0061,-1.1674,0.0859,-0.6044,-0.6228,0.724,-0.092,-0.2669,-0.3467,0.4111,-0.1841,0.4893,0.609,-0.6412,0.3129,0.2312,-0.3052,0.2578,0.3129,-0.2096,-0.0836,-0.0031,-0.269,0.302,-0.3049,-0.032,-0.1924,0.1357,-0.2879,0.309,0.099,0.1564,0.0015,1.1653,0.6563,-0.0618,0.1709,-0.0423,1.0,-1.0,1.0,1.0,0.5756,-0.3852,-1.0,-1.0,1.0,0.6773,0.9108,1.0,-1.0,1.0,-0.798,1.0,1.0,-1.0,0.0,0.0,0.0,0.0,0.0,0.0,0.0,0.0,0.0,-0.3333,0.0,-0.3333,0.0,3
2.24,run,12.22,6.84,-20.51,-12.72,-8.71,0.0,-0.05,0.0,0.254,33.22,-40.17,94.13,2.29,-50.62,81.56,-34.72,-20.21,124.1,-7.82,3.43,59.41,22.41,6.77,110.74,34.8,-16.35,94.39,35.0,-47.55,103.08,5.91,-42.15,74.95,-35.0,-27.16,132.13,-10.32,8.94,68.43,13.5,12.5,114.3,35.0,-4.26,83.43,1.0,-1.0,1.0,-1.0,0.7809,-1.0,-1.0,-1.0,1.0,-0.4035,-0.238,1.0,-1.0,0.7627,-1.0,1.0,1.0,-1.0,0.013,0.013,0.033,0.013,0.013,0.013,0.0,0.0,0.039,0.0,0.0,0.019,0.006,0.0,0.039,0.006,0.071,0.0,0.5614,-1.0262,0.2347,0.0169,-1.1689,0.0614,-0.6044,-0.6427,0.7486,-0.1181,-0.2485,-0.3436,0.4065,-0.1994,0.5139,0.6075,-0.6182,0.293,0.2537,-0.3055,0.2723,0.3052,-0.1524,-0.1503,-0.0022,-0.2629,0.3032,-0.311,0.0465,-0.1232,0.0778,-0.2589,0.3082,0.0636,0.1956,-0.0736,1.1604,0.6782,-0.0384,0.0664,-0.0435,1.0,-1.0,1.0,0.2116,0.7129,-1.0,-1.0,-1.0,1.0,0.5557,0.1957,1.0,-1.0,0.9749,-1.0,1.0,1.0,-1.0,0.0,0.0,0.0,0.0,0.0,0.0,0.0,0.0,0.0,-0.3333,0.0,-0.3333,0.0,3
2.28,run,12.11,5.99,-7.27,-17.89,-0.74,0.0,-0.05,0.0,0.254,34.19,-41.13,95.54,3.6,-50.19,80.07,-34.98,-22.24,125.42,-8.88,4.92,60.47,21.36,6.15,111.97,34.8,-14.94,92.99,35.0,-49.05,104.58,4.41,-40.65,76.45,-35.0,-28.66,133.63,-11.82,7.44,69.93,12.0,11.0,112.8,35.0,-2.76,81.93,1.0,-1.0,1.0,-1.0,1.0,0.4693,-1.0,-1.0,1.0,-1.0,0.2959,1.0,-1.0,-0.8366,-1.0,1.0,1.0,-1.0,0.013,0.013,0.033,0.013,0.013,0.013,0.0,0.0,0.039,0.0,0.0,0.019,0.006,0.0,0.039,0.006,0.071,0.0,0.5798,-1.0492,0.2608,0.0414,-1.1689,0.0368,-0.6044,-0.6903,0.7762,-0.1396,-0.227,-0.3405,0.3912,-0.2102,0.54,0.6075,-0.5937,0.27,0.2466,-0.3001,0.2884,0.3056,-0.1067,-0.1973,-0.0015,-0.3623,0.3158,-0.2982,0.1131,-0.0747,-0.0031,-0.2215,0.3135,0.0445,0.2289,-0.1378,1.0983,0.6448,-0.358,-0.222,-0.1521,1.0,-1.0,1.0,-1.0,0.7809,-1.0,-1.0,-1.0,1.0,-0.4035,-0.238,1.0,-1.0,0.7627,-1.0,1.0,1.0,-1.0,0.0,0.0,0.0,0.0,0.0,0.0,0.0,0.0,0.0,-0.3333,0.0,-0.3333,0.0,3
2.32,run,12.08,5.62,-2.58,-8.39,-2.53,0.0,-0.05,0.0,0.254,34.72,-42.71,97.03,4.75,-49.22,78.66,-34.8,-23.55,126.74,-9.76,6.15,61.52,20.21,6.06,113.03,34.8,-13.45,91.58,35.0,-50.55,106.08,2.91,-39.15,74.95,-35.0,-30.16,135.13,-13.32,5.94,71.43,10.5,9.5,111.3,35.0,-1.26,80.43,1.0,-1.0,1.0,-1.0,1.0,0.0818,-1.0,-1.0,1.0,-0.6028,0.5469,1.0,-1.0,-0.2349,-1.0,1.0,1.0,-1.0,0.013,0.013,0.033,0.013,0.013,0.013,0.0,0.0,0.039,0.0,0.0,0.019,0.006,0.0,0.039,0.006,0.071,0.0,0.5967,-1.0661,0.2853,0.0644,-1.1612,0.0107,-0.609,-0.7256,0.7992,-0.158,-0.201,-0.3221,0.3728,-0.2209,0.5614,0.6075,-0.5691,0.2454,0.2359,-0.2734,0.294,0.3003,-0.0459,-0.2359,-0.0183,-0.386,0.3074,-0.2778,0.177,0.0168,-0.0712,-0.1953,0.3,0.0312,0.2524,-0.1885,1.0894,0.5704,-0.1268,-0.3122,-0.0129,1.0,-1.0,1.0,-1.0,1.0,0.4693,-1.0,-1.0,1.0,-1.0,0.2959,1.0,-1.0,-0.8366,-1.0,1.0,1.0,-1.0,0.0,0.0,0.0,0.0,0.0,0.0,0.0,0.0,0.0,-0.3333,0.0,-0.3333,0.0,3
2.36,run,12.11,5.32,-0.05,-8.26,-4.62,0.0,-0.05,0.0,0.254,34.89,-44.21,98.61,5.54,-47.99,77.43,-34.8,-24.96,128.06,-10.9,7.21,62.84,18.81,6.15,113.73,34.8,-12.13,90.26,35.0,-52.05,107.58,1.41,-37.65,73.45,-35.0,-31.66,133.63,-14.82,4.44,72.93,9.0,8.0,109.8,35.0,0.24,78.93,1.0,-1.0,1.0,-1.0,0.4028,-0.9851,-1.0,-1.0,0.546,-0.866,-0.3483,1.0,-1.0,-0.1673,-1.0,1.0,1.0,-1.0,0.006,0.019,0.013,0.013,0.006,0.019,0.0,0.013,0.052,0.019,0.006,0.013,0.0,0.058,0.026,0.006,0.078,0.013,0.6059,-1.0937,0.3114,0.0844,-1.1443,-0.0138,-0.6059,-0.7486,0.8222,-0.1733,-0.1795,-0.3037,0.3528,-0.2224,0.5798,0.6075,-0.543,0.2209,0.1997,-0.295,0.3037,0.2851,0.0312,-0.2573,-0.0013,-0.3566,0.3015,-0.2521,0.2045,0.0808,-0.1247,-0.1425,0.2791,0.0218,0.2745,-0.2241,1.0863,0.5382,-0.045,-0.1465,-0.0442,1.0,-1.0,1.0,-1.0,1.0,0.0818,-1.0,-1.0,1.0,-0.6028,0.5469,1.0,-1.0,-0.2349,-1.0,1.0,1.0,-1.0,0.0,0.0,0.0,0.0,0.0,0.0,0.0,0.0,0.0,-0.3333,0.0,-0.3333,0.0,3
2.4,run,12.26,5.16,2.35,-4.86,-8.58,0.0,-0.05,0.0,0.254,34.89,-45.62,100.02,6.06,-46.58,76.2,-34.8,-26.37,129.2,-12.13,7.91,64.16,17.14,6.68,114.17,34.8,-10.63,88.77,35.0,-53.55,109.08,-0.09,-38.25,71.95,-35.0,-33.16,132.13,-16.32,2.94,74.43,7.5,6.5,108.3,35.0,1.74,77.43,1.0,-1.0,1.0,-1.0,-0.241,-0.8269,-1.0,-1.0,-0.3199,-1.0,-0.3606,1.0,-1.0,0.0893,-1.0,1.0,1.0,-1.0,0.006,0.019,0.013,0.013,0.006,0.019,0.0,0.013,0.052,0.019,0.006,0.013,0.0,0.058,0.026,0.006,0.078,0.013,0.609,-1.1198,0.339,0.0982,-1.1229,-0.0353,-0.6059,-0.7731,0.8452,-0.1933,-0.1611,-0.2807,0.3283,-0.2209,0.5921,0.6075,-0.52,0.1979,0.1513,-0.3044,0.3162,0.2514,0.1025,-0.2607,-0.0009,-0.3417,0.2975,-0.2513,0.2123,0.143,-0.1794,-0.094,0.2414,0.0153,0.2786,-0.2433,1.0894,0.5119,-0.0008,-0.1441,-0.0807,1.0,-1.0,1.0,-1.0,0.4028,-0.9851,-1.0,-1.0,0.546,-0.866,-0.3483,1.0,-1.0,-0.1673,-1.0,1.0,1.0,-1.0,0.0,0.0,0.0,0.0,0.0,0.0,0.0,0.0,0.0,-0.3333,0.0,-0.3333,0.0,3
2.44,run,12.68,5.32,10.48,2.04,-15.57,0.0,-0.05,0.0,0.254,34.89,-47.02,101.51,6.24,-45.18,74.97,-34.8,-27.69,130.25,-13.27,8.09,65.57,16.0,6.94,114.26,34.8,-9.32,87.45,35.0,-55.05,110.58,-1.59,-39.75,70.45,-33.5,-34.66,130.63,-17.82,1.44,75.93,6.0,5.0,106.8,35.0,3.24,75.93,1.0,-1.0,1.0,-1.0,-1.0,-0.8339,-0.4887,-1.0,-1.0,-1.0,-0.5719,1.0,-1.0,-0.3794,-1.0,1.0,1.0,-1.0,0.006,0.019,0.013,0.013,0.006,0.019,0.0,0.013,0.052,0.019,0.006,0.013,0.0,0.058,0.026,0.006,0.078,0.013,0.609,-1.1443,0.3636,0.1074,-1.0983,-0.0568,-0.6059,-0.7977,0.8652,-0.2148,-0.1488,-0.2577,0.2991,-0.2117,0.5998,0.6075,-0.4939,0.1718,0.1059,-0.3051,0.3133,0.2104,0.1637,-0.263,-0.0006,-0.3312,0.283,-0.2564,0.1946,0.1863,-0.2348,-0.0313,0.1978,0.0107,0.2927,-0.268,1.1025,0.4978,0.041,-0.0848,-0.1497,1.0,-1.0,1.0,-1.0,-0.241,-0.8269,-1.0,-1.0,-0.3199,-1.0,-0.3606,1.0,-1.0,0.0893,-1.0,1.0,1.0,-1.0,0.0,0.0,0.0,0.0,0.0,0.0,0.0,0.0,0.0,-0.3333,0.0,-0.3333,0.0,3
2.48,run,12.62,4.92,-3.21,-9.51,-9.52,0.0,-0.05,0.0,0.254,34.89,-48.34,102.92,6.24,-43.68,73.56,-34.8,-29.0,131.13,-14.59,8.53,66.97,14.5,6.94,113.91,34.72,-7.91,85.96,35.0,-56.55,112.08,-3.09,-41.25,68.95,-32.0,-36.16,129.13,-19.32,-0.06,77.43,4.5,3.5,105.3,33.5,4.74,74.43,1.0,-0.98,1.0,-1.0,-1.0,-1.0,1.0,-1.0,-1.0,-1.0,-1.0,1.0,-1.0,-0.5811,-1.0,0.8245,1.0,-1.0,0.0,0.019,0.013,0.026,0.006,0.013,0.013,0.019,0.065,0.019,0.0,0.026,0.006,0.0,0.0,0.006,0.071,0.006,0.609,-1.1689,0.3896,0.1104,-1.0738,-0.0782,-0.6059,-0.8207,0.8836,-0.2347,-0.1457,-0.2332,0.2792,-0.2071,0.6013,0.6075,-0.4709,0.1488,0.0741,-0.3056,0.3172,0.1588,0.2067,-0.2647,-0.0005,-0.3182,0.2671,-0.2543,0.1477,0.2225,-0.2392,-0.0046,0.1442,0.0075,0.2912,-0.2739,1.1384,0.5117,0.1829,0.0356,-0.2717,1.0,-1.0,1.0,-1.0,-1.0,-0.8339,-0.4887,-1.0,-1.0,-1.0,-0.5719,1.0,-1.0,-0.3794,-1.0,1.0,1.0,-1.0,0.0,0.0,0.0,0.0,0.0,0.0,0.0,0.0,0.0,-0.3333,0.0,-0.3333,0.0,3
2.52,run,12.79,4.4,-0.32,-14.21,-1.46,0.0,-0.05,0.0,0.254,34.98,-49.75,104.41,6.15,-42.45,72.25,-34.8,-30.41,131.66,-16.0,8.35,68.38,13.1,6.42,113.12,34.45,-6.42,84.55,35.0,-58.05,113.58,-4.59,-42.75,67.45,-30.5,-37.66,127.63,-20.82,-1.56,78.93,3.0,2.0,103.8,35.0,6.24,72.93,1.0,-1.0,1.0,-1.0,-1.0,-0.9254,1.0,-1.0,-1.0,-1.0,-0.5714,1.0,-1.0,-0.9707,-1.0,1.0,1.0,-1.0,0.0,0.019,0.013,0.026,0.006,0.013,0.013,0.019,0.065,0.019,0.0,0.026,0.006,0.0,0.0,0.006,0.071,0.006,0.609,-1.1919,0.4142,0.1104,-1.0477,-0.1028,-0.6059,-0.8437,0.8989,-0.2577,-0.1381,-0.2086,0.2531,-0.2071,0.5952,0.6059,-0.4464,0.1227,0.0519,-0.3001,0.3139,0.1112,0.2423,-0.2772,-0.0003,-0.3089,0.2444,-0.2641,0.1321,0.2476,-0.2651,-0.0033,0.078,-0.0005,0.2957,-0.2894,1.1331,0.4773,-0.0559,-0.1661,-0.1662,1.0,-0.98,1.0,-1.0,-1.0,-1.0,1.0,-1.0,-1.0,-1.0,-1.0,1.0,-1.0,-0.5811,-1.0,0.8245,1.0,-1.0,0.0,0.0,0.0,0.0,0.0,0.0,0.0,0.0,0.0,-0.3333,0.0,-0.3333,0.0,3
2.56,run,12.64,3.98,-6.02,-9.52,2.81,0.0,-0.05,0.0,0.254,34.98,-51.24,105.73,5.01,-41.4,70.84,-34.01,-31.73,131.92,-17.31,7.73,69.79,11.69,5.71,112.32,34.19,-5.01,83.14,35.0,-59.55,115.08,-6.09,-44.25,65.95,-29.0,-39.16,126.13,-22.32,-3.06,80.43,1.5,0.5,102.3,35.0,7.74,71.43,1.0,-1.0,1.0,-1.0,-1.0,-1.0,1.0,-1.0,-1.0,-1.0,0.0442,1.0,-1.0,-0.79,-1.0,1.0,1.0,-1.0,0.0,0.019,0.013,0.026,0.006,0.013,0.013,0.019,0.065,0.019,0.0,0.026,0.006,0.0,0.0,0.006,0.071,0.006,0.6105,-1.2164,0.4403,0.1089,-1.0262,-0.1258,-0.6059,-0.8682,0.9081,-0.2823,-0.1411,-0.1841,0.2286,-0.2163,0.5814,0.6013,-0.4203,0.0982,0.0421,-0.3022,0.3177,0.0721,0.2502,-0.2804,-0.0002,-0.3084,0.2057,-0.2771,0.081,0.2655,-0.2777,-0.0368,0.0027,-0.0176,0.3049,-0.2947,1.1481,0.4314,-0.0056,-0.248,-0.0255,1.0,-1.0,1.0,-1.0,-1.0,-0.9254,1.0,-1.0,-1.0,-1.0,-0.5714,1.0,-1.0,-0.9707,-1.0,1.0,1.0,-1.0,0.0,0.0,0.0,0.0,0.0,0.0,0.0,0.0,0.0,-0.3333,0.0,-0.3333,0.0,3
2.6,run,12.36,3.8,-7.92,-4.05,2.14,0.0,-0.05,0.0,0.254,34.98,-52.65,107.14,3.34,-40.61,69.43,-32.87,-33.22,131.92,-18.63,6.77,71.28,10.28,4.57,111.09,34.01,-3.78,81.65,35.0,-61.05,116.58,-7.59,-45.75,64.45,-27.5,-40.66,124.63,-23.82,-4.56,81.93,-0.0,-1.0,100.8,35.0,9.24,69.93,1.0,-1.0,1.0,-1.0,-1.0,-1.0,1.0,-1.0,-1.0,-1.0,-0.0733,1.0,-1.0,-0.7475,-1.0,1.0,1.0,-1.0,0.0,0.026,0.013,0.013,0.006,0.006,0.026,0.033,0.006,0.033,0.013,0.019,0.019,0.006,0.019,0.019,0.117,0.006,0.6105,-1.2425,0.4633,0.089,-1.0078,-0.1503,-0.5921,-0.8912,0.9127,-0.3053,-0.1519,-0.1595,0.204,-0.2286,0.5676,0.5967,-0.3958,0.0736,0.0295,-0.3094,0.3087,-0.0244,0.2442,-0.2883,0.0516,-0.3022,0.1612,-0.2802,0.0164,0.2779,-0.2865,-0.0718,-0.0499,-0.0296,0.3055,-0.2984,1.1351,0.3946,-0.1051,-0.1662,0.0491,1.0,-1.0,1.0,-1.0,-1.0,-1.0,1.0,-1.0,-1.0,-1.0,0.0442,1.0,-1.0,-0.79,-1.0,1.0,1.0,-1.0,0.0,0.0,0.0,0.0,0.0,0.0,0.0,0.0,0.0,-0.3333,0.0,-0.3333,0.0,3
2.64,run,12.22,3.7,-5.47,-2.97,4.87,0.0,-0.05,0.0,0.254,34.98,-54.14,108.54,2.29,-40.17,68.03,-31.55,-34.63,131.92,-19.95,5.54,72.6,8.79,3.43,109.6,34.28,-2.46,80.33,35.0,-62.55,118.08,-9.09,-47.25,62.95,-26.0,-42.16,123.13,-25.32,-6.06,83.43,-1.5,-2.5,99.3,35.0,10.74,68.43,1.0,-1.0,1.0,-1.0,-1.0,-1.0,1.0,-1.0,-1.0,-1.0,-0.3326,1.0,-1.0,-0.593,-1.0,1.0,1.0,-1.0,0.0,0.026,0.013,0.013,0.006,0.006,0.026,0.033,0.006,0.033,0.013,0.019,0.019,0.006,0.019,0.019,0.117,0.006,0.6105,-1.2671,0.4878,0.0598,-0.994,-0.1749,-0.5722,-0.9173,0.9127,-0.3283,-0.1687,-0.1335,0.1795,-0.2485,0.5461,0.5937,-0.3743,0.0476,0.0206,-0.3085,0.308,-0.1263,0.2227,-0.2938,0.1109,-0.3092,0.1129,-0.2824,-0.0518,0.2923,-0.2925,-0.125,-0.1154,-0.0322,0.2943,-0.3066,1.1105,0.3793,-0.1382,-0.0707,0.0373,1.0,-1.0,1.0,-1.0,-1.0,-1.0,1.0,-1.0,-1.0,-1.0,-0.0733,1.0,-1.0,-0.7475,-1.0,1.0,1.0,-1.0,0.0,0.0,0.0,0.0,0.0,0.0,0.0,0.0,0.0,-0.3333,0.0,-0.3333,0.0,3
2.68,run,11.93,3.68,-9.44,0.19,2.19,0.0,-0.05,0.0,0.254,34.98,-55.46,110.04,0.79,-39.99,66.62,-30.23,-36.04,131.4,-21.36,4.13,74.0,7.47,1.85,108.28,34.54,-1.05,78.93,35.0,-64.05,119.58,-10.59,-48.75,61.45,-24.5,-43.66,121.63,-26.82,-7.56,84.93,-3.0,-4.0,97.8,35.0,12.24,66.93,1.0,-0.9496,1.0,-1.0,-1.0,-1.0,1.0,-1.0,-1.0,-1.0,-0.1031,1.0,-1.0,-0.1962,-1.0,1.0,1.0,-1.0,0.0,0.026,0.013,0.013,0.006,0.006,0.026,0.033,0.006,0.033,0.013,0.019,0.019,0.006,0.019,0.019,0.117,0.006,0.6105,-1.2931,0.5123,0.0414,-0.9863,-0.1994,-0.5492,-0.9419,0.9127,-0.3513,-0.1902,-0.1104,0.1534,-0.2684,0.52,0.5983,-0.3513,0.0245,0.0144,-0.3146,0.3085,-0.158,0.1849,-0.2985,0.1647,-0.3093,0.079,-0.2847,-0.1175,0.2916,-0.3034,-0.163,-0.1794,-0.0051,0.2931,-0.3017,1.0985,0.3706,-0.0955,-0.0518,0.0849,1.0,-1.0,1.0,-1.0,-1.0,-1.0,1.0,-1.0,-1.0,-1.0,-0.3326,1.0,-1.0,-0.593,-1.0,1.0,1.0,-1.0,0.0,0.0,0.0,0.0,0.0,0.0,0.0,0.0,0.0,-0.3333,0.0,-0.3333,0.0,3
2.72,run,11.11,3.54,-22.34,-3.86,-2.53,0.0,-0.05,0.0,0.254,34.98,-56.95,111.45,-1.05,-40.08,65.21,-28.83,-37.44,130.61,-22.85,2.72,75.41,6.15,0.44,106.79,34.63,0.35,77.34,35.0,-62.55,121.08,-12.09,-50.25,59.95,-23.0,-45.16,120.13,-28.32,-9.06,86.43,-4.5,-5.5,96.3,33.5,13.74,65.43,1.0,-0.3526,1.0,-1.0,-1.0,-0.8226,1.0,-1.0,-1.0,-1.0,-0.2732,1.0,-1.0,0.1385,-1.0,0.8831,0.7905,-1.0,0.0,0.013,0.019,0.013,0.019,0.013,0.019,0.026,0.013,0.026,0.006,0.019,0.019,0.006,0.013,0.006,0.111,0.0,0.6105,-1.3162,0.5384,0.0153,-0.9833,-0.224,-0.5262,-0.9664,0.9035,-0.3758,-0.2148,-0.0859,0.1304,-0.2961,0.497,0.6029,-0.3267,0.0,0.0101,-0.3059,0.313,-0.2076,0.1408,-0.3003,0.2009,-0.3078,0.0211,-0.2906,-0.1736,0.2955,-0.298,-0.2168,-0.2112,0.0135,0.2965,-0.3025,1.0734,0.3686,-0.1648,0.0034,0.0383,1.0,-0.9496,1.0,-1.0,-1.0,-1.0,1.0,-1.0,-1.0,-1.0,-0.1031,1.0,-1.0,-0.1962,-1.0,1.0,1.0,-1.0,0.0,0.0,0.0,0.0,0.0,0.0,0.0,0.0,0.0,-0.3333,0.0,-0.3333,0.0,3
2.76,run,10.1,3.25,-26.63,-7.42,-4.26,0.0,-0.05,0.0,0.254,34.98,-58.36,112.76,-2.02,-40.61,63.81,-27.42,-38.85,129.46,-24.17,1.23,76.82,4.66,-0.97,105.29,34.63,1.76,75.94,35.0,-61.05,122.58,-13.59,-48.75,61.45,-21.5,-46.66,118.63,-29.82,-10.56,87.93,-6.0,-7.0,94.8,32.0,12.24,63.93,1.0,1.0,1.0,-1.0,0.1289,0.6493,1.0,-1.0,-1.0,-1.0,-0.3477,1.0,-1.0,0.0433,-1.0,0.7669,-0.7229,-1.0,0.0,0.013,0.019,0.013,0.019,0.013,0.019,0.026,0.013,0.026,0.006,0.019,0.019,0.006,0.013,0.006,0.111,0.0,0.6105,-1.3422,0.563,-0.0169,-0.9848,-0.2485,-0.5016,-0.991,0.8897,-0.4019,-0.2393,-0.0614,0.1074,-0.3206,0.4709,0.6044,-0.3022,-0.0276,0.0071,-0.3119,0.3111,-0.2662,0.0928,-0.3022,0.2326,-0.3075,-0.037,-0.3012,-0.2135,0.2989,-0.2949,-0.2438,-0.2456,0.0152,0.2996,-0.3153,1.002,0.3566,-0.39,-0.0673,-0.0442,1.0,-0.3526,1.0,-1.0,-1.0,-0.8226,1.0,-1.0,-1.0,-1.0,-0.2732,1.0,-1.0,0.1385,-1.0,0.8831,0.7905,-1.0,0.0,0.0,0.0,0.0,0.0,0.0,0.0,0.0,0.0,-0.3333,0.0,-0.3333,0.0,3
2.8,run,7.95,2.39,-17.88,-7.26,-19.49,0.0,-0.05,0.0,0.254,34.98,-61.52,116.98,-5.98,-44.21,60.56,-23.29,-43.07,125.77,-28.12,-3.16,80.95,0.35,-4.92,100.99,31.99,5.71,71.63,35.0,-59.55,124.08,-15.09,-47.25,62.95,-20.0,-48.16,117.13,-31.32,-12.06,89.43,-7.5,-5.5,93.3,30.5,10.74,62.43,1.0,1.0,1.0,-1.0,1.0,1.0,1.0,-1.0,-1.0,-1.0,-0.0323,1.0,-1.0,0.7361,-1.0,0.302,-0.5412,-1.0,0.0,0.013,0.019,0.033,0.019,0.006,0.006,0.045,0.039,0.058,0.0,0.033,0.006,0.0,0.013,0.0,0.136,0.0,0.6105,-1.3668,0.586,-0.0337,-0.994,-0.273,-0.4771,-1.0155,0.8698,-0.4249,-0.2654,-0.0368,0.0813,-0.3451,0.4449,0.6044,-0.2777,-0.0522,0.005,-0.3119,0.3055,-0.2506,0.0299,-0.3051,0.2564,-0.3088,-0.1019,-0.2986,-0.2489,0.3027,-0.3058,-0.2642,-0.2713,0.0107,0.3032,-0.3142,0.9134,0.331,-0.4647,-0.1296,-0.0744,1.0,1.0,1.0,-1.0,0.1289,0.6493,1.0,-1.0,-1.0,-1.0,-0.3477,1.0,-1.0,0.0433,-1.0,0.7669,-0.7229,-1.0,0.0,0.0,0.0,0.0,0.0,0.0,0.0,0.0,0.0,-0.3333,0.0,-0.3333,0.0,3
2.84,run,7.43,2.07,-16.43,-9.51,-22.88,0.0,-0.05,0.0,0.254,34.98,-61.96,118.21,-7.38,-45.09,60.21,-22.24,-44.21,124.72,-29.0,-4.48,82.0,-0.88,-5.45,99.67,31.2,6.68,70.49,35.0,-58.05,125.58,-16.59,-45.75,64.45,-18.5,-46.66,115.63,-32.82,-10.56,90.93,-9.0,-4.0,91.8,29.0,9.24,60.93,1.0,1.0,1.0,-1.0,1.0,1.0,1.0,0.0612,-1.0,-1.0,0.426,1.0,-1.0,1.0,-1.0,-1.0,-1.0,-0.5601,0.0,0.013,0.019,0.033,0.019,0.006,0.006,0.045,0.039,0.058,0.0,0.033,0.006,0.0,0.013,0.0,0.136,0.0,0.6105,-1.422,0.6596,-0.1028,-1.0569,-0.3298,-0.405,-1.0891,0.8053,-0.4939,-0.3421,0.0353,0.0061,-0.4142,0.3697,0.5584,-0.2086,-0.1273,0.0035,-0.287,0.3055,-0.2614,-0.0574,-0.2842,0.2692,-0.3078,-0.1515,-0.2949,-0.2697,0.3017,-0.3076,-0.2709,-0.2835,-0.0498,0.2982,-0.3135,0.7262,0.256,-0.312,-0.1268,-0.3401,1.0,1.0,1.0,-1.0,1.0,1.0,1.0,-1.0,-1.0,-1.0,-0.0323,1.0,-1.0,0.7361,-1.0,0.302,-0.5412,-1.0,0.0,0.0,0.0,0.0,0.0,0.0,0.0,0.0,0.0,-0.3333,0.0,-0.3333,0.0,3
2.88,run,7.0,1.74,-11.79,-10.3,-9.47,0.0,-0.05,0.0,0.254,34.98,-62.14,119.53,-8.88,-45.97,60.03,-21.36,-45.53,123.4,-29.97,-5.89,83.41,-2.2,-5.71,98.26,30.59,7.65,69.08,35.0,-56.55,127.08,-18.09,-44.25,65.95,-17.0,-45.16,114.13,-34.32,-9.06,92.43,-10.5,-2.5,90.3,27.5,7.74,59.43,1.0,1.0,1.0,-1.0,1.0,1.0,1.0,-0.1894,-1.0,-1.0,1.0,1.0,-1.0,1.0,-1.0,-1.0,-1.0,-0.5144,0.0,0.013,0.019,0.033,0.019,0.006,0.006,0.045,0.039,0.058,0.0,0.033,0.006,0.0,0.013,0.0,0.136,0.0,0.6105,-1.4297,0.6811,-0.1273,-1.0723,-0.3359,-0.3866,-1.1091,0.7869,-0.5093,-0.3651,0.0537,-0.0153,-0.4234,0.3467,0.5446,-0.1917,-0.1473,0.0024,-0.2353,0.3102,-0.293,-0.109,-0.2265,0.271,-0.3049,-0.1887,-0.2753,-0.292,0.2937,-0.3117,-0.2309,-0.3017,-0.0968,0.2844,-0.3089,0.681,0.2283,-0.2868,-0.1661,-0.3994,1.0,1.0,1.0,-1.0,1.0,1.0,1.0,0.0612,-1.0,-1.0,0.426,1.0,-1.0,1.0,-1.0,-1.0,-1.0,-0.5601,0.0,0.0,0.0,0.0,0.0,0.0,0.0,0.0,0.0,-0.3333,0.0,-0.3333,0.0,3
2.92,run,6.66,1.51,-6.9,-5.06,-9.26,0.0,-0.05,0.0,0.254,34.98,-62.14,120.76,-10.37,-46.49,60.29,-20.3,-46.41,122.08,-31.11,-7.21,84.81,-3.6,-5.98,96.86,29.71,8.35,67.68,35.0,-55.05,128.58,-19.59,-42.75,67.45,-15.5,-43.66,112.63,-35.0,-7.56,93.93,-12.0,-1.0,88.8,26.0,6.24,57.93,1.0,1.0,1.0,-1.0,1.0,1.0,1.0,0.0862,-1.0,-1.0,1.0,1.0,-1.0,1.0,-1.0,-0.8602,-1.0,-0.115,0.0,0.006,0.039,0.013,0.013,0.013,0.019,0.039,0.058,0.058,0.0,0.045,0.019,0.026,0.006,0.0,0.078,0.0,0.6105,-1.4327,0.7041,-0.1534,-1.0876,-0.339,-0.3712,-1.1321,0.7639,-0.5262,-0.3896,0.0782,-0.0383,-0.428,0.3221,0.5338,-0.1749,-0.1718,0.0017,-0.176,0.3017,-0.3009,-0.1326,-0.1698,0.2461,-0.298,-0.2166,-0.2547,-0.2946,0.2958,-0.3027,-0.1785,-0.3013,-0.1072,0.2611,-0.3064,0.6431,0.1991,-0.2058,-0.1798,-0.1653,1.0,1.0,1.0,-1.0,1.0,1.0,1.0,-0.1894,-1.0,-1.0,1.0,1.0,-1.0,1.0,-1.0,-1.0,-1.0,-0.5144,0.0,0.0,0.0,0.0,0.0,0.0,0.0,0.0,0.0,-0.3333,0.0,-0.3333,0.0,3
2.96,run,6.42,1.64,-7.14,3.26,-12.3,0.0,-0.05,0.0,0.254,34.98,-61.88,122.26,-11.69,-46.67,61.0,-19.07,-47.11,120.67,-32.34,-8.35,86.13,-5.01,-5.71,95.45,28.65,8.79,66.18,35.0,-53.55,130.08,-21.09,-41.25,68.95,-14.0,-42.16,111.13,-35.0,-6.06,95.43,-13.5,0.5,87.3,24.5,4.74,59.43,1.0,1.0,1.0,-1.0,1.0,1.0,1.0,0.2884,-1.0,-1.0,1.0,1.0,-1.0,1.0,-1.0,-0.4671,-1.0,0.7349,0.0,0.006,0.039,0.013,0.013,0.013,0.019,0.039,0.058,0.058,0.0,0.045,0.019,0.026,0.006,0.0,0.078,0.0,0.6105,-1.4327,0.7256,-0.1795,-1.0968,-0.3344,-0.3528,-1.1474,0.7409,-0.5461,-0.4126,0.1028,-0.0629,-0.4326,0.2976,0.5185,-0.1626,-0.1963,0.0012,-0.1232,0.2921,-0.309,-0.1275,-0.1015,0.2417,-0.2664,-0.2384,-0.2535,-0.293,0.2996,-0.3044,-0.1423,-0.3035,-0.1329,0.229,-0.307,0.6137,0.1797,-0.1204,-0.0883,-0.1616,1.0,1.0,1.0,-1.0,1.0,1.0,1.0,0.0862,-1.0,-1.0,1.0,1.0,-1.0,1.0,-1.0,-0.8602,-1.0,-0.115,0.0,0.0,0.0,0.0,0.0,0.0,0.0,0.0,0.0,-0.3333,0.0,-0.3333,0.0,3
3.0,run,6.36,2.07,-1.27,9.97,-14.68,0.0,-0.05,0.0,0.254,34.98,-60.64,123.93,-13.18,-46.67,62.14,-17.75,-47.64,119.36,-33.4,-9.05,87.54,-6.33,-4.92,93.96,27.25,8.88,64.78,35.0,-52.05,131.58,-22.59,-39.75,67.45,-12.5,-40.66,109.63,-35.0,-4.56,96.93,-15.0,2.0,85.8,23.0,3.24,60.93,1.0,1.0,1.0,-1.0,1.0,-0.3675,1.0,0.5665,-1.0,-1.0,0.9335,1.0,-1.0,1.0,-1.0,0.0075,-1.0,1.0,0.0,0.006,0.039,0.013,0.013,0.013,0.019,0.039,0.058,0.058,0.0,0.045,0.019,0.026,0.006,0.0,0.078,0.0,0.6105,-1.4281,0.7517,-0.2025,-1.0999,-0.3221,-0.3313,-1.1597,0.7164,-0.5676,-0.4326,0.1258,-0.0874,-0.428,0.273,0.5001,-0.1549,-0.2224,0.0008,-0.069,0.3023,-0.3026,-0.1008,-0.025,0.2497,-0.2325,-0.2589,-0.258,-0.2799,0.296,-0.3052,-0.0824,-0.3045,-0.1621,0.1891,-0.3128,0.5921,0.1907,-0.1246,0.057,-0.2146,1.0,1.0,1.0,-1.0,1.0,1.0,1.0,0.2884,-1.0,-1.0,1.0,1.0,-1.0,1.0,-1.0,-0.4671,-1.0,0.7349,0.0,0.0,0.0,0.0,0.0,0.0,0.0,0.0,0.0,-0.3333,0.0,-0.3333,0.0,3
3.04,run,6.39,2.87,1.12,19.79,-12.91,0.0,-0.05,0.0,0.254,34.98,-59.5,125.51,-14.59,-46.32,63.37,-16.44,-47.72,117.86,-34.19,-9.58,89.03,-7.82,-4.13,92.55,26.02,8.88,63.46,35.0,-50.55,130.08,-24.09,-38.25,65.95,-11.0,-39.16,108.13,-35.0,-3.06,98.43,-16.5,3.5,84.3,21.5,1.74,62.43,1.0,1.0,0.6589,-1.0,1.0,-1.0,1.0,0.9687,-1.0,-1.0,0.7309,1.0,-1.0,1.0,-1.0,0.265,-1.0,1.0,0.0,0.013,0.013,0.013,0.013,0.006,0.013,0.0,0.052,0.013,0.0,0.058,0.019,0.058,0.006,0.0,0.006,0.0,0.6105,-1.4067,0.7808,-0.2286,-1.0999,-0.3022,-0.3083,-1.1689,0.6934,-0.586,-0.4449,0.1503,-0.1104,-0.4142,0.247,0.4755,-0.1534,-0.247,0.0006,0.0323,0.3211,-0.3097,-0.0706,0.0574,0.2612,-0.1973,-0.2676,-0.2497,-0.242,0.2994,-0.3,-0.0058,-0.3111,-0.2056,0.1381,-0.3111,0.5877,0.2284,-0.0221,0.1741,-0.2562,1.0,1.0,1.0,-1.0,1.0,-0.3675,1.0,0.5665,-1.0,-1.0,0.9335,1.0,-1.0,1.0,-1.0,0.0075,-1.0,1.0,0.0,0.0,0.0,0.0,0.0,0.0,0.0,0.0,0.0,-0.3333,0.0,-0.3333,0.0,3
3.08,run,7.26,3.85,17.81,19.84,-12.35,0.0,-0.05,0.0,0.254,34.98,-57.83,127.09,-16.35,-45.18,64.95,-14.77,-47.2,116.19,-34.72,-9.58,90.79,-9.49,-2.55,90.88,24.26,8.17,62.14,35.0,-49.05,128.58,-25.59,-36.75,64.45,-9.5,-37.66,106.63,-35.0,-4.56,99.93,-18.0,5.0,82.8,23.0,1.56,63.93,1.0,1.0,-0.4906,-1.0,-0.1863,-1.0,1.0,1.0,-1.0,-1.0,-0.6924,1.0,-1.0,1.0,-1.0,0.79,0.4829,1.0,0.0,0.013,0.013,0.013,0.013,0.006,0.013,0.0,0.052,0.013,0.0,0.058,0.019,0.058,0.006,0.0,0.006,0.0,0.6105,-1.3867,0.8084,-0.2531,-1.0937,-0.2807,-0.2853,-1.1704,0.6673,-0.5998,-0.4541,0.1764,-0.1365,-0.4004,0.2224,0.4541,-0.1534,-0.27,0.0004,0.0969,0.3275,-0.3082,-0.0265,0.1201,0.2685,-0.1438,-0.2844,-0.2262,-0.2037,0.3066,-0.3071,0.0473,-0.3091,-0.2239,0.0967,-0.3034,0.5901,0.2978,0.0196,0.3454,-0.2252,1.0,1.0,0.6589,-1.0,1.0,-1.0,1.0,0.9687,-1.0,-1.0,0.7309,1.0,-1.0,1.0,-1.0,0.265,-1.0,1.0,0.0,0.0,0.0,0.0,0.0,0.0,0.0,0.0,0.0,-0.3333,0.0,-0.3333,0.0,3
3.12,run,7.71,4.35,10.37,11.4,-13.52,0.0,-0.05,0.0,0.254,34.98,-57.04,128.14,-17.84,-43.86,65.92,-13.45,-46.41,114.7,-34.8,-9.4,92.37,-10.9,-1.14,89.12,23.03,7.21,61.35,35.0,-47.55,127.08,-27.09,-38.25,62.95,-8.0,-36.16,105.13,-35.0,-6.06,101.43,-19.5,6.5,81.3,24.5,0.06,65.43,1.0,1.0,-0.7131,-1.0,-1.0,-1.0,1.0,1.0,-1.0,-1.0,-1.0,1.0,-1.0,1.0,-0.62,1.0,-0.4105,1.0,0.0,0.013,0.013,0.013,0.013,0.006,0.013,0.0,0.052,0.013,0.0,0.058,0.019,0.058,0.006,0.0,0.006,0.0,0.6105,-1.3576,0.836,-0.2838,-1.0738,-0.2531,-0.2562,-1.1612,0.6381,-0.609,-0.4541,0.2071,-0.1657,-0.3728,0.1933,0.4234,-0.1657,-0.293,0.0003,0.1574,0.3142,-0.3101,0.0427,0.169,0.2776,-0.0724,-0.2887,-0.1866,-0.1426,0.309,-0.3046,0.118,-0.306,-0.2511,0.03,-0.2831,0.6662,0.3834,0.3108,0.3462,-0.2155,1.0,1.0,-0.4906,-1.0,-0.1863,-1.0,1.0,1.0,-1.0,-1.0,-0.6924,1.0,-1.0,1.0,-1.0,0.79,0.4829,1.0,0.0,0.0,0.0,0.0,0.0,0.0,0.0,0.0,0.0,-0.3333,0.0,-0.3333,0.0,3
3.16,run,8.09,4.5,5.92,-0.11,-10.8,0.0,-0.05,0.0,0.254,35.07,-55.46,128.85,-19.16,-42.54,66.62,-12.13,-45.35,113.29,-34.89,-8.79,93.78,-12.3,0.26,87.89,22.24,5.98,61.0,35.0,-46.05,125.58,-28.59,-39.75,61.45,-6.5,-34.66,103.63,-35.0,-7.56,102.93,-21.0,8.0,82.8,26.0,-1.44,66.93,1.0,1.0,-0.3969,-1.0,-1.0,-1.0,1.0,1.0,-1.0,-1.0,-0.7303,1.0,-1.0,1.0,0.5424,1.0,-1.0,1.0,0.0,0.026,0.019,0.019,0.013,0.006,0.019,0.006,0.045,0.006,0.033,0.033,0.026,0.058,0.006,0.006,0.0,0.0,0.6105,-1.3438,0.8544,-0.3099,-1.0508,-0.2362,-0.2332,-1.1474,0.6121,-0.6105,-0.451,0.2347,-0.1902,-0.3482,0.1626,0.4019,-0.1825,-0.3068,0.0002,0.1612,0.2879,-0.3134,0.1149,0.1806,0.2793,0.0003,-0.2984,-0.1363,-0.0885,0.3183,-0.3038,0.1733,-0.3275,-0.255,-0.0413,-0.2492,0.7048,0.4275,0.1809,0.199,-0.236,1.0,1.0,-0.7131,-1.0,-1.0,-1.0,1.0,1.0,-1.0,-1.0,-1.0,1.0,-1.0,1.0,-0.62,1.0,-0.4105,1.0,0.0,0.0,0.0,0.0,0.0,0.0,0.0,0.0,0.0,-0.3333,0.0,-0.3333,0.0,3
3.2,run,8.14,4.42,-1.39,-4.77,-6.17,0.0,-0.05,0.0,0.254,35.07,-54.23,129.2,-20.65,-41.22,66.88,-10.72,-44.03,111.97,-34.8,-8.09,95.1,-13.71,1.58,86.4,21.62,4.66,61.0,35.0,-44.55,124.08,-30.09,-41.25,59.95,-5.0,-33.16,102.13,-35.0,-9.06,104.43,-22.5,9.5,84.3,27.5,-2.94,68.43,1.0,1.0,-1.0,-1.0,-1.0,-1.0,1.0,1.0,-1.0,-1.0,-0.0538,1.0,-1.0,1.0,1.0,1.0,-1.0,1.0,0.0,0.026,0.019,0.019,0.013,0.006,0.019,0.006,0.045,0.006,0.033,0.033,0.026,0.058,0.006,0.006,0.0,0.0,0.6121,-1.3162,0.8667,-0.3329,-1.0278,-0.224,-0.2102,-1.129,0.5875,-0.6121,-0.4403,0.2592,-0.2148,-0.3237,0.1411,0.3881,-0.204,-0.3129,0.0059,0.2171,0.2479,-0.3062,0.1673,0.1728,0.2824,0.0697,-0.3016,-0.1012,-0.0214,0.3155,-0.3054,0.214,-0.3103,-0.2307,-0.11,-0.1976,0.7384,0.4402,0.1033,-0.0019,-0.1885,1.0,1.0,-0.3969,-1.0,-1.0,-1.0,1.0,1.0,-1.0,-1.0,-0.7303,1.0,-1.0,1.0,0.5424,1.0,-1.0,1.0,0.0,0.0,0.0,0.0,0.0,0.0,0.0,0.0,0.0,-0.3333,0.0,-0.3333,0.0,3
3.24,run,8.05,4.45,-3.82,1.1,-1.01,0.0,-0.05,0.0,0.254,35.07,-52.91,129.2,-21.97,-40.08,66.88,-9.23,-42.63,110.57,-34.8,-7.65,96.33,-15.03,2.9,84.99,21.62,3.43,61.17,35.0,-43.05,122.58,-31.59,-42.75,58.45,-3.5,-31.66,100.63,-35.0,-10.56,105.93,-24.0,11.0,85.8,29.0,-4.44,69.93,1.0,1.0,-1.0,-1.0,-1.0,-1.0,1.0,1.0,-1.0,-1.0,-0.1476,1.0,-1.0,1.0,0.6404,1.0,-1.0,1.0,0.0,0.026,0.019,0.019,0.013,0.006,0.019,0.006,0.045,0.006,0.033,0.033,0.026,0.058,0.006,0.006,0.0,0.0,0.6121,-1.2947,0.8728,-0.359,-1.0048,-0.2194,-0.1856,-1.106,0.5645,-0.6105,-0.428,0.2823,-0.2393,-0.3007,0.115,0.3774,-0.227,-0.3129,0.0042,0.233,0.1967,-0.3127,0.2039,0.1383,0.2902,0.1356,-0.2979,-0.0651,0.0313,0.3076,-0.3063,0.2366,-0.3156,-0.202,-0.1638,-0.1383,0.7429,0.4334,-0.0242,-0.0833,-0.1077,1.0,1.0,-1.0,-1.0,-1.0,-1.0,1.0,1.0,-1.0,-1.0,-0.0538,1.0,-1.0,1.0,1.0,1.0,-1.0,1.0,0.0,0.0,0.0,0.0,0.0,0.0,0.0,0.0,0.0,-0.3333,0.0,-0.3333,0.0,3
3.28,run,7.85,4.55,-6.55,2.46,1.69,0.0,-0.05,0.0,0.254,35.07,-51.68,129.2,-23.47,-39.29,66.36,-7.91,-41.13,109.16,-34.8,-7.47,97.65,-16.35,4.13,83.85,21.71,2.02,61.79,35.0,-41.55,121.08,-33.09,-44.25,56.95,-2.0,-30.16,99.13,-35.0,-12.06,107.43,-25.5,12.5,87.3,30.5,-5.94,71.43,1.0,1.0,-1.0,-1.0,-1.0,-1.0,1.0,1.0,-1.0,-1.0,-1.0,1.0,-1.0,1.0,0.9257,1.0,-1.0,1.0,0.0,0.084,0.006,0.019,0.0,0.006,0.019,0.006,0.058,0.006,0.019,0.104,0.033,0.123,0.006,0.026,0.013,0.026,0.6121,-1.2717,0.8728,-0.382,-0.9848,-0.2194,-0.1595,-1.0815,0.54,-0.6105,-0.4203,0.3037,-0.2623,-0.2777,0.0905,0.3774,-0.2485,-0.3099,0.0029,0.2488,0.1377,-0.3046,0.217,0.0968,0.3003,0.1863,-0.2999,-0.0455,0.0505,0.2953,-0.3001,0.2513,-0.3123,-0.1414,-0.1947,-0.0854,0.7343,0.4364,-0.0667,0.0193,-0.0177,1.0,1.0,-1.0,-1.0,-1.0,-1.0,1.0,1.0,-1.0,-1.0,-0.1476,1.0,-1.0,1.0,0.6404,1.0,-1.0,1.0,0.0,0.0,0.0,0.0,0.0,0.0,0.0,0.0,0.0,-0.3333,0.0,-0.3333,0.0,3
3.32,run,7.78,4.57,-2.0,1.29,2.86,0.0,-0.05,0.0,0.254,35.07,-50.45,128.85,-24.87,-38.67,65.39,-6.5,-39.73,107.75,-34.8,-7.47,98.96,-17.67,5.27,83.23,22.32,0.62,62.75,35.0,-40.05,119.58,-34.59,-45.75,55.45,-0.5,-28.66,97.63,-35.0,-13.56,108.93,-27.0,14.0,88.8,32.0,-7.44,72.93,1.0,1.0,-1.0,-1.0,-1.0,-1.0,1.0,1.0,-1.0,-1.0,-1.0,1.0,-1.0,1.0,1.0,1.0,-1.0,1.0,0.0,0.084,0.006,0.019,0.0,0.006,0.019,0.006,0.058,0.006,0.019,0.104,0.033,0.123,0.006,0.026,0.013,0.026,0.6121,-1.2502,0.8728,-0.408,-0.971,-0.2286,-0.1365,-1.0554,0.5154,-0.6105,-0.4172,0.3267,-0.2853,-0.2562,0.0706,0.3789,-0.273,-0.2991,0.002,0.2548,0.0964,-0.3111,0.2037,0.0332,0.2966,0.2283,-0.3021,-0.0319,0.0469,0.2931,-0.2965,0.2565,-0.2935,-0.0932,-0.2284,-0.0195,0.7174,0.4451,-0.1143,0.043,0.0295,1.0,1.0,-1.0,-1.0,-1.0,-1.0,1.0,1.0,-1.0,-1.0,-1.0,1.0,-1.0,1.0,0.9257,1.0,-1.0,1.0,0.0,0.0,0.0,0.0,0.0,0.0,0.0,0.0,0.0,-0.3333,0.0,-0.3333,0.0,3
3.36,run,7.7,4.42,-1.71,-5.64,6.79,0.0,-0.05,0.0,0.254,35.24,-49.22,127.97,-26.28,-38.58,64.34,-5.19,-38.32,106.44,-34.8,-7.65,100.28,-18.9,6.5,82.71,23.29,-0.44,64.07,33.5,-38.55,118.08,-35.0,-47.25,53.95,1.0,-27.16,96.13,-35.0,-15.06,110.43,-28.5,15.5,90.3,33.5,-8.94,74.43,0.5291,1.0,-1.0,-1.0,-1.0,-1.0,1.0,1.0,-1.0,-1.0,-1.0,1.0,-1.0,1.0,1.0,1.0,-1.0,1.0,0.0,0.084,0.006,0.019,0.0,0.006,0.019,0.006,0.058,0.006,0.019,0.104,0.033,0.123,0.006,0.026,0.013,0.026,0.6121,-1.2287,0.8667,-0.4326,-0.9603,-0.2454,-0.112,-1.0308,0.4909,-0.6105,-0.4172,0.3497,-0.3083,-0.2362,0.0598,0.3896,-0.2976,-0.2823,0.0014,0.2592,0.0443,-0.3102,0.183,-0.0403,0.3,0.2523,-0.3039,-0.0223,0.0328,0.2918,-0.2942,0.2547,-0.2459,-0.0248,-0.2523,0.0499,0.7115,0.4463,-0.0349,0.0225,0.0499,1.0,1.0,-1.0,-1.0,-1.0,-1.0,1.0,1.0,-1.0,-1.0,-1.0,1.0,-1.0,1.0,1.0,1.0,-1.0,1.0,0.0,0.0,0.0,0.0,0.0,0.0,0.0,0.0,0.0,-0.3333,0.0,-0.3333,0.0,3
3.4,run,7.89,4.14,6.05,-6.27,-3.83,0.0,-0.05,0.0,0.286,34.89,-47.99,126.74,-27.69,-38.58,62.84,-3.78,-36.91,105.03,-34.8,-8.35,101.69,-20.21,7.65,82.53,24.52,-1.58,65.48,32.0,-37.05,116.58,-35.0,-48.75,55.45,2.5,-25.66,94.63,-35.0,-16.56,111.22,-30.0,17.0,91.8,35.0,-10.44,75.93,-0.4918,1.0,-1.0,-1.0,-1.0,0.07,1.0,1.0,0.2342,-1.0,-1.0,0.5437,-1.0,1.0,1.0,1.0,-1.0,1.0,0.006,0.163,0.013,0.019,0.033,0.013,0.026,0.006,0.071,0.006,0.0,0.111,0.084,0.286,0.052,0.026,0.026,0.019,0.6151,-1.2072,0.8514,-0.4571,-0.9587,-0.2638,-0.089,-1.0063,0.4679,-0.6105,-0.4203,0.3728,-0.3298,-0.2148,0.0506,0.4065,-0.316,-0.2592,0.0124,0.2616,-0.0262,-0.3088,0.1339,-0.0969,0.2959,0.2682,-0.2986,-0.0156,0.0115,0.2902,-0.2861,0.2584,-0.2065,0.0456,-0.2453,0.1208,0.704,0.4334,-0.0298,-0.0984,0.1185,0.5291,1.0,-1.0,-1.0,-1.0,-1.0,1.0,1.0,-1.0,-1.0,-1.0,1.0,-1.0,1.0,1.0,1.0,-1.0,1.0,0.0,0.0,0.0,0.0,0.0,0.0,0.0,0.0,0.0,-0.3333,0.0,-0.3333,0.0,3
3.44,run,8.21,3.36,7.18,-17.7,-14.19,0.0,-0.05,0.0,0.286,34.1,-46.49,125.07,-29.44,-39.2,61.08,-2.02,-35.07,103.36,-34.8,-9.58,103.45,-21.88,9.32,82.44,26.37,-3.6,67.32,30.5,-35.55,115.08,-35.0,-50.25,56.95,1.0,-24.16,96.13,-35.0,-18.06,109.72,-28.5,18.5,93.3,35.0,-11.94,77.43,-1.0,1.0,-1.0,-1.0,-1.0,1.0,-1.0,1.0,1.0,-1.0,-1.0,-1.0,0.7715,1.0,1.0,1.0,-1.0,1.0,0.006,0.163,0.013,0.019,0.033,0.013,0.026,0.006,0.071,0.006,0.0,0.111,0.084,0.286,0.052,0.026,0.026,0.019,0.609,-1.1858,0.8299,-0.4817,-0.9587,-0.2899,-0.0644,-0.9817,0.4433,-0.6105,-0.4326,0.3973,-0.3528,-0.1948,0.0476,0.428,-0.3359,-0.2347,-0.0143,0.2636,-0.0988,-0.3081,0.0937,-0.1656,0.2991,0.2797,-0.301,-0.0109,-0.0379,0.2951,-0.2865,0.2556,-0.156,0.1124,-0.2465,0.1766,0.7207,0.4089,0.1055,-0.1094,-0.0668,-0.4918,1.0,-1.0,-1.0,-1.0,0.07,1.0,1.0,0.2342,-1.0,-1.0,0.5437,-1.0,1.0,1.0,1.0,-1.0,1.0,0.0,0.0,0.0,0.0,0.0,0.0,0.0,0.0,0.0,-0.3333,0.0,-0.3333,0.0,3
3.48,run,8.25,2.99,0.07,-9.87,-23.39,0.0,-0.05,0.0,0.286,33.22,-45.09,123.66,-30.85,-40.17,59.68,-0.7,-33.75,102.04,-34.8,-10.9,104.94,-23.47,10.63,83.41,27.86,-5.01,68.82,29.0,-37.05,113.58,-35.0,-51.75,58.45,-0.5,-22.66,97.63,-35.0,-19.56,108.22,-27.0,20.0,94.8,35.0,-13.44,78.93,-1.0,-0.7606,-1.0,-1.0,-1.0,1.0,-1.0,1.0,1.0,-1.0,-1.0,-1.0,1.0,1.0,1.0,1.0,-1.0,1.0,0.006,0.163,0.013,0.019,0.033,0.013,0.026,0.006,0.071,0.006,0.0,0.111,0.084,0.286,0.052,0.026,0.026,0.019,0.5952,-1.1597,0.8007,-0.5123,-0.9695,-0.3206,-0.0337,-0.9495,0.4142,-0.6105,-0.4541,0.428,-0.382,-0.1657,0.046,0.4602,-0.3712,-0.2025,-0.0523,0.2644,-0.1584,-0.3096,0.0327,-0.2099,0.3033,0.2945,-0.3,-0.0077,-0.0923,0.3005,-0.2898,0.2682,-0.1139,0.1773,-0.2806,0.2222,0.7489,0.3408,0.1252,-0.3089,-0.2476,-1.0,1.0,-1.0,-1.0,-1.0,1.0,-1.0,1.0,1.0,-1.0,-1.0,-1.0,0.7715,1.0,1.0,1.0,-1.0,1.0,0.0,0.0,0.0,0.0,0.0,0.0,0.0,0.0,0.0,-0.3333,0.0,-0.3333,0.0,3
3.52,run,8.32,2.74,1.23,-7.55,-23.3,0.0,-0.05,0.0,0.52,31.99,-43.77,122.61,-32.17,-41.4,58.54,0.35,-32.43,100.63,-34.89,-12.3,106.35,-24.79,11.78,84.29,29.27,-6.42,70.22,27.5,-35.55,112.08,-35.0,-53.25,59.95,-2.0,-21.16,99.13,-35.0,-21.06,106.72,-25.5,18.5,93.3,35.0,-14.94,80.43,-1.0,-0.1553,-1.0,-1.0,-1.0,1.0,-1.0,0.1533,1.0,-1.0,-1.0,-1.0,1.0,0.4909,-0.5852,1.0,-1.0,1.0,0.026,0.189,0.019,0.013,0.026,0.0,0.013,0.013,0.065,0.006,0.0,0.052,0.045,0.52,0.169,0.019,0.019,0.019,0.5798,-1.1351,0.7762,-0.5369,-0.9863,-0.3451,-0.0107,-0.9265,0.3912,-0.6105,-0.4771,0.4541,-0.4096,-0.1427,0.0629,0.4863,-0.3958,-0.1764,-0.093,0.2754,-0.2012,-0.3071,-0.0392,-0.2372,0.297,0.2908,-0.2946,-0.0054,-0.1493,0.3063,-0.3045,0.2724,-0.0177,0.2201,-0.2867,0.2515,0.7522,0.3087,0.0012,-0.1723,-0.4082,-1.0,-0.7606,-1.0,-1.0,-1.0,1.0,-1.0,1.0,1.0,-1.0,-1.0,-1.0,1.0,1.0,1.0,1.0,-1.0,1.0,0.0,0.0,0.0,0.0,0.0,0.0,0.0,0.0,0.0,-0.3333,0.0,-0.3333,0.0,3
3.56,run,8.3,2.45,-2.37,-8.91,-18.4,0.0,-0.05,0.0,0.52,30.67,-42.45,121.11,-33.22,-42.8,57.74,1.14,-31.11,99.58,-34.89,-13.62,107.4,-25.75,12.92,85.52,30.67,-7.82,71.63,26.0,-34.05,110.58,-35.0,-54.75,61.45,-3.5,-22.66,100.63,-35.0,-22.56,105.22,-24.0,17.0,94.8,35.0,-16.44,81.93,-1.0,0.5735,-1.0,-1.0,-1.0,1.0,-1.0,-0.0882,1.0,-1.0,-1.0,-1.0,1.0,0.1959,0.4254,1.0,-1.0,1.0,0.026,0.189,0.019,0.013,0.026,0.0,0.013,0.013,0.065,0.006,0.0,0.052,0.045,0.52,0.169,0.019,0.019,0.019,0.5584,-1.1121,0.7578,-0.5599,-1.0078,-0.3651,0.0077,-0.9035,0.3666,-0.6121,-0.5016,0.4786,-0.4326,-0.1227,0.0782,0.5108,-0.4203,-0.1519,-0.1457,0.2791,-0.2099,-0.3012,-0.108,-0.2408,0.2769,0.2898,-0.2983,-0.0095,-0.1966,0.3065,-0.2994,0.2655,0.0452,0.2461,-0.2927,0.2681,0.7582,0.2871,0.0215,-0.1318,-0.4067,-1.0,-0.1553,-1.0,-1.0,-1.0,1.0,-1.0,0.1533,1.0,-1.0,-1.0,-1.0,1.0,0.4909,-0.5852,1.0,-1.0,1.0,0.0,0.0,0.0,0.0,0.0,0.0,0.0,0.0,0.0,-0.3333,0.0,-0.3333,0.0,3
3.6,run,8.31,2.22,-1.01,-6.94,-12.94,0.0,-0.05,0.0,0.52,29.44,-40.96,119.53,-34.01,-44.21,57.13,1.58,-29.71,98.7,-34.89,-14.94,108.28,-26.37,13.8,86.57,32.17,-9.23,73.12,24.5,-32.55,109.08,-35.0,-56.25,62.95,-5.0,-24.16,102.13,-35.0,-24.06,103.72,-22.5,15.5,93.3,35.0,-17.94,83.43,-1.0,0.0044,-1.0,-1.0,-1.0,1.0,-1.0,-0.4086,1.0,-1.0,-1.0,-1.0,1.0,-0.7693,-0.113,1.0,-1.0,1.0,0.026,0.189,0.019,0.013,0.026,0.0,0.013,0.013,0.065,0.006,0.0,0.052,0.045,0.52,0.169,0.019,0.019,0.019,0.5354,-1.0891,0.7317,-0.5783,-1.0324,-0.3789,0.0215,-0.8805,0.3482,-0.6121,-0.5246,0.497,-0.4495,-0.1028,0.0997,0.5354,-0.4449,-0.1273,-0.1881,0.2815,-0.2446,-0.2798,-0.1675,-0.2203,0.2456,0.2891,-0.2777,-0.0067,-0.2237,0.2835,-0.2728,0.2605,0.112,0.2642,-0.2968,0.2796,0.7564,0.2612,-0.0414,-0.1555,-0.3212,-1.0,0.5735,-1.0,-1.0,-1.0,1.0,-1.0,-0.0882,1.0,-1.0,-1.0,-1.0,1.0,0.1959,0.4254,1.0,-1.0,1.0,0.0,0.0,0.0,0.0,0.0,0.0,0.0,0.0,0.0,-0.3333,0.0,-0.3333,0.0,3
3.64,run,8.38,2.1,1.02,-4.17,-9.35,0.0,-0.05,0.0,0.539,28.04,-39.55,118.12,-34.45,-45.62,56.95,1.76,-28.3,98.17,-34.98,-16.26,108.81,-26.89,14.5,87.89,33.31,-10.55,74.62,23.0,-31.05,107.58,-35.0,-57.75,64.45,-6.5,-25.66,103.63,-35.0,-25.56,102.22,-21.0,14.0,94.8,35.0,-19.44,84.93,-1.0,0.4234,-1.0,-1.0,-1.0,1.0,-1.0,-1.0,1.0,-1.0,-1.0,-1.0,1.0,-0.6292,1.0,1.0,-1.0,1.0,0.026,0.169,0.006,0.006,0.026,0.0,0.0,0.033,0.052,0.0,0.0,0.006,0.033,0.539,0.273,0.006,0.039,0.006,0.5139,-1.063,0.7041,-0.5921,-1.0569,-0.3896,0.0291,-0.856,0.3329,-0.6121,-0.5476,0.5123,-0.4602,-0.0874,0.1181,0.5614,-0.4694,-0.1012,-0.2125,0.2951,-0.275,-0.2478,-0.2095,-0.1946,0.2007,0.2946,-0.2521,-0.0047,-0.2432,0.2561,-0.2313,0.24,0.1477,0.283,-0.3001,0.2938,0.7578,0.2416,-0.0176,-0.1212,-0.2259,-1.0,0.0044,-1.0,-1.0,-1.0,1.0,-1.0,-0.4086,1.0,-1.0,-1.0,-1.0,1.0,-0.7693,-0.113,1.0,-1.0,1.0,0.0,0.0,0.0,0.0,0.0,0.0,0.0,0.0,0.0,-0.3333,0.0,-0.3333,0.0,3
3.68,run,8.45,1.83,2.17,-7.97,-6.72,0.0,-0.05,0.0,0.539,26.63,-38.14,116.63,-34.63,-46.93,57.22,1.67,-27.16,98.0,-34.98,-17.58,108.98,-26.98,15.03,89.21,34.1,-11.87,76.38,21.5,-32.55,106.08,-35.0,-59.25,65.95,-8.0,-27.16,105.13,-35.0,-27.06,100.72,-19.5,12.5,96.3,35.0,-20.94,86.43,-1.0,-0.2031,-1.0,-1.0,-1.0,1.0,-1.0,-1.0,1.0,-1.0,-1.0,-1.0,1.0,-1.0,0.6604,1.0,-1.0,1.0,0.026,0.169,0.006,0.006,0.026,0.0,0.0,0.033,0.052,0.0,0.0,0.006,0.033,0.539,0.273,0.006,0.039,0.006,0.4893,-1.0385,0.6796,-0.5998,-1.0815,-0.3927,0.0322,-0.8314,0.3237,-0.6136,-0.5706,0.5216,-0.4694,-0.0752,0.1411,0.5814,-0.4924,-0.0752,-0.2403,0.2982,-0.2841,-0.2021,-0.2383,-0.1477,0.152,0.2978,-0.2108,-0.009,-0.2561,0.2136,-0.1963,0.2138,0.1892,0.2725,-0.2959,0.3029,0.7631,0.2309,0.0179,-0.0728,-0.1632,-1.0,0.4234,-1.0,-1.0,-1.0,1.0,-1.0,-1.0,1.0,-1.0,-1.0,-1.0,1.0,-0.6292,1.0,1.0,-1.0,1.0,0.0,0.0,0.0,0.0,0.0,0.0,0.0,0.0,0.0,-0.3333,0.0,-0.3333,0.0,3
3.72,run,9.2,1.82,16.32,-6.51,-10.62,0.0,-0.05,0.0,0.539,25.31,-36.65,114.79,-34.72,-48.43,57.66,1.41,-26.19,97.91,-35.16,-18.81,108.54,-26.89,15.03,90.62,34.63,-13.36,77.52,20.0,-34.05,104.58,-35.0,-60.75,67.45,-9.5,-28.66,106.63,-35.0,-28.56,99.22,-18.0,11.0,97.8,35.0,-22.44,87.93,-1.0,-0.6887,-1.0,-1.0,-1.0,1.0,-1.0,-1.0,1.0,-1.0,-0.809,-1.0,1.0,-0.9404,1.0,1.0,-1.0,1.0,0.026,0.169,0.006,0.006,0.026,0.0,0.0,0.033,0.052,0.0,0.0,0.006,0.033,0.539,0.273,0.006,0.039,0.006,0.4648,-1.014,0.6535,-0.6029,-1.1045,-0.3881,0.0307,-0.8115,0.3206,-0.6136,-0.5937,0.5246,-0.4709,-0.066,0.1641,0.5952,-0.5154,-0.0445,-0.2606,0.3011,-0.2971,-0.153,-0.2534,-0.086,0.1006,0.2836,-0.1591,-0.0063,-0.2659,0.1611,-0.1432,0.1843,0.2191,0.2427,-0.2938,0.3276,0.7697,0.2071,0.0378,-0.1392,-0.1173,-1.0,-0.2031,-1.0,-1.0,-1.0,1.0,-1.0,-1.0,1.0,-1.0,-1.0,-1.0,1.0,-1.0,0.6604,1.0,-1.0,1.0,0.0,0.0,0.0,0.0,0.0,0.0,0.0,0.0,0.0,-0.3333,0.0,-0.3333,0.0,3
3.76,run,9.42,1.74,5.38,-5.47,-13.85,0.0,-0.05,0.0,0.539,23.82,-35.42,113.55,-34.72,-49.83,58.89,0.79,-25.49,98.09,-35.16,-19.86,108.02,-26.19,15.03,92.2,34.89,-14.77,78.93,18.5,-35.55,103.08,-33.5,-62.25,68.95,-11.0,-30.16,108.13,-35.0,-30.06,97.72,-16.5,9.5,99.3,35.0,-23.94,89.43,-0.6166,-1.0,-1.0,-0.693,-1.0,1.0,-1.0,-1.0,1.0,-1.0,-0.8183,-1.0,1.0,0.56,1.0,1.0,-1.0,1.0,0.019,0.111,0.006,0.0,0.045,0.006,0.039,0.019,0.006,0.0,0.013,0.013,0.006,0.422,0.214,0.0,0.033,0.006,0.4418,-0.9879,0.6213,-0.6044,-1.1305,-0.3804,0.0261,-0.7946,0.3191,-0.6167,-0.6151,0.517,-0.4694,-0.066,0.1887,0.6044,-0.5415,-0.0245,-0.2687,0.3085,-0.3287,-0.1128,-0.2751,-0.0315,0.0532,0.2617,-0.1171,-0.0159,-0.2666,0.084,-0.0945,0.129,0.2453,0.2044,-0.3034,0.304,0.8352,0.2063,0.2849,-0.1137,-0.1853,-1.0,-0.6887,-1.0,-1.0,-1.0,1.0,-1.0,-1.0,1.0,-1.0,-0.809,-1.0,1.0,-0.9404,1.0,1.0,-1.0,1.0,0.0,0.0,0.0,0.0,0.0,0.0,0.0,0.0,0.0,-0.3333,0.0,-0.3333,0.0,3
3.8,run,9.72,1.75,9.57,-1.03,-6.98,0.0,-0.05,0.0,0.539,22.41,-34.54,112.15,-34.72,-51.24,60.03,-0.44,-25.05,98.88,-35.07,-21.62,106.88,-25.14,15.03,93.87,34.89,-16.17,80.24,17.0,-37.05,101.58,-32.0,-63.75,70.45,-12.5,-31.66,109.63,-35.0,-31.56,96.22,-15.0,8.0,97.8,35.0,-25.44,90.93,-0.8927,-1.0,-1.0,0.6752,-1.0,1.0,-1.0,-1.0,1.0,-1.0,-0.6739,-1.0,1.0,-0.5591,-0.6421,1.0,-1.0,1.0,0.019,0.111,0.006,0.0,0.045,0.006,0.039,0.019,0.006,0.0,0.013,0.013,0.006,0.422,0.214,0.0,0.033,0.006,0.4157,-0.9664,0.5998,-0.6044,-1.1551,-0.359,0.0153,-0.7823,0.3221,-0.6167,-0.6335,0.5077,-0.4571,-0.066,0.2163,0.609,-0.566,0.0,-0.2859,0.2966,-0.3107,-0.079,-0.2847,0.0586,-0.0031,0.2293,-0.0705,-0.0111,-0.2557,0.0243,-0.0201,0.0903,0.2754,0.1604,-0.3045,0.3049,0.8543,0.1993,0.0939,-0.0955,-0.2418,-0.6166,-1.0,-1.0,-0.693,-1.0,1.0,-1.0,-1.0,1.0,-1.0,-0.8183,-1.0,1.0,0.56,1.0,1.0,-1.0,1.0,0.0,0.0,0.0,0.0,0.0,0.0,0.0,0.0,0.0,-0.3333,0.0,-0.3333,0.0,3
3.84,run,10.66,1.94,24.95,2.13,-5.26,0.0,-0.05,0.0,0.539,21.09,-33.93,110.83,-34.72,-52.73,61.44,-1.85,-24.96,99.93,-35.07,-22.94,105.56,-23.82,15.03,95.36,34.89,-17.58,81.74,15.5,-38.55,100.08,-30.5,-65.25,71.95,-14.0,-33.16,111.13,-35.0,-33.06,94.72,-13.5,6.5,99.3,35.0,-26.94,92.43,0.2459,-0.6609,-1.0,1.0,-1.0,1.0,-1.0,-1.0,1.0,-1.0,-0.5137,-1.0,1.0,0.4125,1.0,1.0,-1.0,1.0,0.019,0.111,0.006,0.0,0.045,0.006,0.039,0.019,0.006,0.0,0.013,0.013,0.006,0.422,0.214,0.0,0.033,0.006,0.3912,-0.9511,0.5752,-0.6044,-1.1796,-0.339,-0.0061,-0.7747,0.3359,-0.6151,-0.6642,0.4878,-0.4387,-0.066,0.2454,0.609,-0.5906,0.023,-0.2921,0.265,-0.3094,-0.0553,-0.2912,0.1157,-0.0826,0.1892,0.0024,-0.002,-0.2939,-0.0577,0.0549,0.0632,0.3019,0.1122,-0.305,0.2996,0.8809,0.2008,0.1671,-0.0179,-0.1219,-0.8927,-1.0,-1.0,0.6752,-1.0,1.0,-1.0,-1.0,1.0,-1.0,-0.6739,-1.0,1.0,-0.5591,-0.6421,1.0,-1.0,1.0,0.0,0.0,0.0,0.0,0.0,0.0,0.0,0.0,0.0,-0.3333,0.0,-0.3333,0.0,3
3.88,run,11.2,1.73,15.85,-6.09,-4.74,0.0,-0.05,0.0,0.539,19.69,-33.66,109.34,-33.75,-54.05,63.02,-3.52,-25.31,101.16,-35.07,-24.26,104.15,-22.41,14.5,96.77,34.89,-18.98,83.06,14.0,-40.05,98.58,-29.0,-66.75,73.45,-15.5,-34.66,112.63,-35.0,-34.56,93.22,-12.0,5.0,100.8,35.0,-28.44,93.93,0.3602,-1.0,-1.0,1.0,-1.0,1.0,-1.0,-1.0,1.0,-1.0,-0.4449,-1.0,1.0,0.414,1.0,1.0,-1.0,1.0,0.026,0.084,0.0,0.013,0.033,0.006,0.019,0.006,0.0,0.0,0.019,0.006,0.006,0.013,0.065,0.0,0.033,0.0,0.3682,-0.9403,0.5522,-0.6044,-1.2057,-0.3145,-0.0307,-0.7731,0.3543,-0.6151,-0.6872,0.4648,-0.4157,-0.066,0.2715,0.609,-0.6151,0.0491,-0.2913,0.2261,-0.3034,-0.0387,-0.3023,0.1736,-0.1505,0.1382,0.0711,-0.0014,-0.2926,-0.1272,0.1253,0.0443,0.3098,0.0786,-0.3062,0.3082,0.9624,0.2166,0.4354,0.0372,-0.0919,0.2459,-0.6609,-1.0,1.0,-1.0,1.0,-1.0,-1.0,1.0,-1.0,-0.5137,-1.0,1.0,0.4125,1.0,1.0,-1.0,1.0,0.0,0.0,0.0,0.0,0.0,0.0,0.0,0.0,0.0,-0.3333,0.0,-0.3333,0.0,3
3.92,run,11.26,1.52,5.58,-4.64,-0.81,0.0,-0.05,0.0,0.539,18.19,-33.57,107.84,-32.7,-55.55,64.34,-4.92,-26.1,102.66,-35.07,-25.75,102.83,-21.01,13.01,98.0,34.89,-20.48,84.64,12.5,-41.55,97.08,-27.5,-68.25,74.95,-17.0,-36.16,114.13,-35.0,-33.06,91.72,-10.5,3.5,102.3,35.0,-29.94,95.43,0.3364,-1.0,-1.0,1.0,-1.0,1.0,-1.0,-1.0,1.0,-1.0,0.3264,-1.0,1.0,0.4544,1.0,1.0,-1.0,1.0,0.026,0.084,0.0,0.013,0.033,0.006,0.019,0.006,0.0,0.0,0.019,0.006,0.006,0.013,0.065,0.0,0.033,0.0,0.3436,-0.9357,0.5262,-0.5875,-1.2287,-0.2869,-0.0598,-0.7793,0.3758,-0.6151,-0.7102,0.4403,-0.3912,-0.0752,0.2961,0.609,-0.6397,0.0721,-0.296,0.1755,-0.3102,0.0362,-0.2979,0.2251,-0.2146,0.0738,0.1304,-0.001,-0.2911,-0.1811,0.1798,-0.0035,0.3089,0.055,-0.3064,0.302,1.0097,0.1987,0.2766,-0.1062,-0.0827,0.3602,-1.0,-1.0,1.0,-1.0,1.0,-1.0,-1.0,1.0,-1.0,-0.4449,-1.0,1.0,0.414,1.0,1.0,-1.0,1.0,0.0,0.0,0.0,0.0,0.0,0.0,0.0,0.0,0.0,-0.3333,0.0,-0.3333,0.0,3
3.96,run,11.36,1.07,7.95,-11.72,2.61,0.0,-0.05,0.0,0.539,16.79,-33.57,106.52,-31.38,-56.95,65.83,-6.33,-27.25,104.06,-35.07,-27.07,101.43,-19.51,11.78,99.14,34.89,-21.8,85.96,11.0,-43.05,95.58,-26.0,-69.75,76.45,-18.5,-37.66,115.63,-35.0,-31.56,90.22,-9.0,2.0,103.8,35.0,-31.44,96.93,0.0771,-1.0,-1.0,1.0,-1.0,1.0,-1.0,-1.0,1.0,-1.0,0.6036,-1.0,1.0,0.4582,1.0,1.0,-1.0,1.0,0.026,0.084,0.0,0.013,0.033,0.006,0.019,0.006,0.0,0.0,0.019,0.006,0.006,0.013,0.065,0.0,0.033,0.0,0.3175,-0.9342,0.5001,-0.5691,-1.2548,-0.2638,-0.0844,-0.7931,0.4019,-0.6151,-0.7363,0.4172,-0.3666,-0.1012,0.3175,0.609,-0.6657,0.0997,-0.3048,0.1286,-0.3148,0.0943,-0.3062,0.2437,-0.2422,-0.0001,0.1889,-0.0007,-0.3014,-0.213,0.2177,-0.1001,0.2967,0.0385,-0.3121,0.3148,1.0151,0.18,0.0974,-0.0809,-0.0141,0.3364,-1.0,-1.0,1.0,-1.0,1.0,-1.0,-1.0,1.0,-1.0,0.3264,-1.0,1.0,0.4544,1.0,1.0,-1.0,1.0,0.0,0.0,0.0,0.0,0.0,0.0,0.0,0.0,0.0,-0.3333,0.0,-0.3333,0.0,3
4.0,run,12.36,1.23,24.39,0.46,-13.75,0.0,-0.05,0.0,0.539,15.21,-33.84,105.12,-30.41,-58.36,67.15,-7.56,-28.48,105.64,-35.07,-28.3,99.93,-18.11,10.37,100.37,34.89,-23.2,87.36,9.5,-44.55,94.08,-24.5,-71.25,77.95,-20.0,-39.16,117.13,-35.0,-30.06,88.72,-7.5,3.5,105.3,35.0,-32.94,98.43,0.1647,-1.0,-1.0,1.0,-1.0,1.0,-1.0,-1.0,1.0,-1.0,1.0,-1.0,1.0,1.0,1.0,1.0,-1.0,1.0,0.026,0.0,0.006,0.026,0.019,0.033,0.013,0.006,0.006,0.0,0.019,0.019,0.0,0.0,0.143,0.0,0.033,0.0,0.293,-0.9342,0.4771,-0.5461,-1.2793,-0.2378,-0.1089,-0.813,0.4264,-0.6151,-0.7593,0.3927,-0.3405,-0.1227,0.3375,0.609,-0.6888,0.1227,-0.3056,0.09,-0.3068,0.1524,-0.3065,0.2686,-0.2617,-0.075,0.2244,-0.0005,-0.2974,-0.2413,0.2504,-0.1508,0.2826,0.027,-0.3049,0.3068,1.0236,0.1408,0.1388,-0.2046,0.0456,0.0771,-1.0,-1.0,1.0,-1.0,1.0,-1.0,-1.0,1.0,-1.0,0.6036,-1.0,1.0,0.4582,1.0,1.0,-1.0,1.0,0.0,0.0,0.0,0.0,0.0,0.0,0.0,0.0,0.0,-0.3333,0.0,-0.3333,0.0,3
4.04,run,11.98,1.69,-11.05,19.52,-26.34,0.0,-0.05,0.0,0.539,13.8,-34.89,103.71,-28.92,-59.85,68.64,-9.67,-29.62,106.96,-35.07,-29.53,98.53,-16.79,8.88,101.43,34.89,-24.79,88.77,8.0,-46.05,92.58,-23.0,-72.75,79.45,-21.5,-40.66,118.63,-35.0,-28.56,87.22,-6.0,5.0,106.8,35.0,-34.44,99.93,0.2084,-1.0,-1.0,1.0,-1.0,1.0,-1.0,-1.0,1.0,-1.0,1.0,-1.0,1.0,1.0,1.0,1.0,-0.5936,1.0,0.026,0.0,0.006,0.026,0.019,0.033,0.013,0.006,0.006,0.0,0.019,0.019,0.0,0.0,0.143,0.0,0.033,0.0,0.2654,-0.9388,0.4525,-0.5292,-1.3039,-0.2148,-0.1304,-0.8345,0.4541,-0.6151,-0.7808,0.3666,-0.316,-0.1473,0.359,0.609,-0.7133,0.1473,-0.3174,0.0458,-0.3067,0.1699,-0.3065,0.2742,-0.2637,-0.133,0.2606,-0.0003,-0.2887,-0.2666,0.2672,-0.1975,0.2783,0.0189,-0.3054,0.3067,1.1107,0.1549,0.4257,0.0081,-0.24,0.1647,-1.0,-1.0,1.0,-1.0,1.0,-1.0,-1.0,1.0,-1.0,1.0,-1.0,1.0,1.0,1.0,1.0,-1.0,1.0,0.0,0.0,0.0,0.0,0.0,0.0,0.0,0.0,0.0,-0.3333,0.0,-0.3333,0.0,3
4.08,run,11.47,2.27,-15.9,24.31,-33.17,0.0,-0.05,0.0,0.539,12.39,-36.12,102.39,-27.07,-61.17,70.14,-10.63,-31.2,108.37,-35.07,-30.32,97.12,-15.64,7.56,102.74,34.89,-26.1,89.74,6.5,-44.55,91.08,-21.5,-71.25,80.95,-23.0,-42.16,120.13,-35.0,-27.06,85.72,-4.5,3.5,105.3,35.0,-32.94,101.43,-0.2058,1.0,-1.0,1.0,-0.6136,1.0,-1.0,-1.0,1.0,-1.0,0.9764,-1.0,1.0,-0.2581,-0.3686,1.0,0.5007,1.0,0.026,0.0,0.006,0.026,0.019,0.033,0.013,0.006,0.006,0.0,0.019,0.019,0.0,0.0,0.143,0.0,0.033,0.0,0.2408,-0.9572,0.428,-0.5031,-1.33,-0.1887,-0.1672,-0.8544,0.4771,-0.6151,-0.8023,0.3421,-0.293,-0.1733,0.3774,0.609,-0.7409,0.1718,-0.3139,-0.0368,-0.3065,0.2165,-0.3121,0.2895,-0.3222,-0.1676,0.2684,-0.0002,-0.2824,-0.2784,0.2731,-0.2358,0.2636,0.0132,-0.317,0.3065,1.0773,0.1951,-0.1929,0.3406,-0.4597,0.2084,-1.0,-1.0,1.0,-1.0,1.0,-1.0,-1.0,1.0,-1.0,1.0,-1.0,1.0,1.0,1.0,1.0,-0.5936,1.0,0.0,0.0,0.0,0.0,0.0,0.0,0.0,0.0,0.0,-0.3333,0.0,-0.3333,0.0,3
4.12,run,11.21,3.34,-4.63,28.97,-17.69,0.0,-0.05,0.0,0.539,10.99,-37.62,100.9,-26.28,-62.75,71.46,-11.51,-32.61,109.69,-34.72,-30.94,95.62,-14.06,6.15,103.97,34.89,-27.51,91.85,5.0,-43.05,89.58,-20.0,-69.75,82.45,-24.5,-43.66,121.63,-35.0,-25.56,84.22,-3.0,2.0,106.8,35.0,-31.44,102.93,-0.0629,1.0,-1.0,1.0,-0.6625,1.0,-1.0,-1.0,1.0,-1.0,0.7194,-1.0,1.0,0.1382,1.0,1.0,1.0,1.0,0.026,0.0,0.006,0.0,0.019,0.013,0.019,0.013,0.006,0.006,0.0,0.006,0.019,0.0,0.065,0.0,0.033,0.019,0.2163,-0.9787,0.405,-0.4709,-1.353,-0.1626,-0.1841,-0.882,0.5016,-0.6151,-0.8161,0.3175,-0.273,-0.1963,0.4004,0.609,-0.7639,0.1887,-0.3121,-0.1065,-0.3011,0.2727,-0.305,0.3007,-0.289,-0.2212,0.2802,-0.0002,-0.2496,-0.2872,0.2662,-0.2516,0.2711,0.0092,-0.3085,0.278,1.0335,0.2457,-0.2775,0.4243,-0.5788,-0.2058,1.0,-1.0,1.0,-0.6136,1.0,-1.0,-1.0,1.0,-1.0,0.9764,-1.0,1.0,-0.2581,-0.3686,1.0,0.5007,1.0,0.0,0.0,0.0,0.0,0.0,0.0,0.0,0.0,0.0,-0.3333,0.0,-0.3333,0.0,3
4.16,run,11.37,4.76,7.21,36.97,11.91,0.0,-0.05,0.0,0.539,9.49,-38.76,99.32,-23.91,-64.42,72.86,-13.27,-34.01,110.92,-34.89,-31.11,94.22,-12.83,4.75,104.94,34.89,-28.92,93.08,6.5,-41.55,88.08,-18.5,-71.25,83.95,-26.0,-45.16,123.13,-35.0,-24.06,82.72,-1.5,0.5,108.3,35.0,-29.94,104.43,0.6684,1.0,-1.0,1.0,-1.0,1.0,-1.0,-1.0,1.0,-1.0,0.2022,-1.0,1.0,-0.1344,1.0,1.0,1.0,1.0,0.026,0.0,0.006,0.0,0.019,0.013,0.019,0.013,0.006,0.006,0.0,0.006,0.019,0.0,0.065,0.0,0.033,0.019,0.1917,-1.0048,0.3789,-0.4571,-1.3806,-0.1396,-0.1994,-0.9066,0.5246,-0.609,-0.8268,0.2915,-0.2454,-0.2209,0.4218,0.609,-0.7885,0.2255,-0.31,-0.1718,-0.308,0.2424,-0.3165,0.2963,-0.2595,-0.2464,0.282,0.0228,-0.2148,-0.2983,0.2893,-0.2676,0.2698,0.0065,-0.3074,0.3319,1.0102,0.3392,-0.0809,0.5057,-0.3088,-0.0629,1.0,-1.0,1.0,-0.6625,1.0,-1.0,-1.0,1.0,-1.0,0.7194,-1.0,1.0,0.1382,1.0,1.0,1.0,1.0,0.0,0.0,0.0,0.0,0.0,0.0,0.0,0.0,0.0,-0.3333,0.0,-0.3333,0.0,3
4.2,run,11.9,5.31,15.35,13.07,21.39,0.0,-0.05,0.0,0.539,8.17,-40.08,98.0,-23.82,-65.39,74.36,-14.77,-35.33,111.8,-34.89,-31.03,92.81,-11.34,3.52,105.56,34.89,-30.06,94.04,8.0,-40.05,86.58,-17.0,-72.75,85.45,-27.5,-46.66,124.63,-35.0,-25.56,81.22,-0.0,-1.0,109.8,35.0,-28.44,105.93,1.0,1.0,-1.0,1.0,-1.0,1.0,-1.0,-1.0,1.0,-1.0,-0.5094,-1.0,1.0,0.2908,1.0,1.0,1.0,1.0,0.026,0.0,0.006,0.0,0.019,0.013,0.019,0.013,0.006,0.006,0.0,0.006,0.019,0.0,0.065,0.0,0.033,0.019,0.1657,-1.0247,0.3513,-0.4157,-1.4097,-0.115,-0.2301,-0.9311,0.5461,-0.6121,-0.8299,0.2669,-0.224,-0.2454,0.4387,0.609,-0.813,0.247,-0.3146,-0.1949,-0.319,0.3247,-0.3307,0.2993,-0.2965,-0.2643,0.2778,0.0044,-0.1618,-0.3007,0.2829,-0.2792,0.2521,0.0045,-0.3071,0.3127,1.0246,0.4628,0.1258,0.6452,0.2079,0.6684,1.0,-1.0,1.0,-1.0,1.0,-1.0,-1.0,1.0,-1.0,0.2022,-1.0,1.0,-0.1344,1.0,1.0,1.0,1.0,0.0,0.0,0.0,0.0,0.0,0.0,0.0,0.0,0.0,-0.3333,0.0,-0.3333,0.0,3
4.24,run,11.96,5.77,5.7,4.96,8.9,0.0,-0.05,0.0,0.539,6.77,-40.69,96.59,-21.71,-67.06,75.76,-16.26,-36.74,113.64,-34.89,-30.41,91.41,-10.02,2.37,106.79,34.89,-30.94,95.71,9.5,-38.55,85.08,-15.5,-74.25,86.95,-29.0,-48.16,126.13,-35.0,-24.07,79.72,1.5,0.5,111.3,35.0,-26.94,107.43,1.0,1.0,-1.0,1.0,-1.0,1.0,-1.0,-1.0,1.0,-1.0,0.017,-1.0,1.0,1.0,1.0,1.0,0.7173,1.0,0.013,0.019,0.013,0.006,0.019,0.013,0.0,0.019,0.019,0.0,0.006,0.013,0.026,0.0,0.052,0.0,0.019,0.013,0.1427,-1.0477,0.3283,-0.4142,-1.4266,-0.089,-0.2562,-0.9541,0.5614,-0.6121,-0.8283,0.2424,-0.1979,-0.2669,0.4495,0.609,-0.833,0.2638,-0.3068,-0.223,-0.3098,0.2331,-0.2949,0.3076,-0.3057,-0.2716,0.2521,0.0031,-0.1075,-0.3028,0.2961,-0.2762,0.2168,0.0032,-0.29,0.2824,1.0703,0.5114,0.2679,0.228,0.3734,1.0,1.0,-1.0,1.0,-1.0,1.0,-1.0,-1.0,1.0,-1.0,-0.5094,-1.0,1.0,0.2908,1.0,1.0,1.0,1.0,0.0,0.0,0.0,0.0,0.0,0.0,0.0,0.0,0.0,-0.3333,0.0,-0.3333,0.0,3
4.28,run,12.58,6.25,12.66,7.78,5.48,0.0,-0.05,0.0,0.539,6.5,-41.66,95.36,-20.3,-68.47,77.17,-17.58,-38.06,115.05,-34.89,-29.44,90.0,-8.53,1.05,108.11,34.89,-31.46,97.21,11.0,-37.05,83.58,-14.0,-75.75,88.45,-30.5,-49.66,127.63,-35.0,-25.57,78.22,3.0,2.0,112.8,35.0,-25.44,108.93,1.0,1.0,-1.0,1.0,-1.0,1.0,-1.0,-1.0,1.0,-1.0,-0.0429,-1.0,1.0,0.8715,1.0,1.0,1.0,1.0,0.013,0.019,0.013,0.006,0.019,0.013,0.0,0.019,0.019,0.0,0.006,0.013,0.026,0.0,0.052,0.0,0.019,0.013,0.1181,-1.0584,0.3037,-0.3774,-1.4557,-0.0644,-0.2823,-0.9787,0.5937,-0.6121,-0.8176,0.2178,-0.1749,-0.2869,0.4709,0.609,-0.8483,0.293,-0.3066,-0.1963,-0.3087,0.3009,-0.3155,0.3071,-0.3115,-0.2819,0.297,0.0022,-0.0351,-0.3038,0.2934,-0.268,0.2321,0.0022,-0.2604,0.3067,1.0756,0.5509,0.0995,0.0865,0.1554,1.0,1.0,-1.0,1.0,-1.0,1.0,-1.0,-1.0,1.0,-1.0,0.017,-1.0,1.0,1.0,1.0,1.0,0.7173,1.0,0.0,0.0,0.0,0.0,0.0,0.0,0.0,0.0,0.0,-0.3333,0.0,-0.3333,0.0,3
4.32,run,12.98,6.39,11.48,4.06,-1.17,0.0,-0.05,0.0,0.539,5.62,-42.36,93.87,-18.81,-69.79,78.66,-18.9,-39.38,116.46,-34.89,-28.39,88.59,-7.03,0.35,109.51,34.89,-31.73,98.61,12.5,-35.55,82.08,-12.5,-77.25,89.95,-32.0,-51.16,129.13,-35.0,-27.07,76.72,4.5,3.5,114.3,35.0,-23.94,110.43,1.0,1.0,-1.0,1.0,-1.0,1.0,-1.0,-1.0,1.0,-1.0,-0.4271,-1.0,1.0,1.0,1.0,1.0,1.0,1.0,0.013,0.019,0.013,0.006,0.019,0.013,0.0,0.019,0.019,0.0,0.006,0.013,0.026,0.0,0.052,0.0,0.019,0.013,0.1135,-1.0753,0.2823,-0.3528,-1.4803,-0.0399,-0.3053,-1.0017,0.6182,-0.6121,-0.8007,0.1933,-0.1488,-0.3099,0.4939,0.609,-0.8575,0.3191,-0.2319,-0.2008,-0.2967,0.3028,-0.313,0.3072,-0.3045,-0.2838,0.3001,0.0015,0.0388,-0.3048,0.3033,-0.274,0.2489,0.0016,-0.2168,0.3126,1.1304,0.5933,0.2209,0.1357,0.0957,1.0,1.0,-1.0,1.0,-1.0,1.0,-1.0,-1.0,1.0,-1.0,-0.0429,-1.0,1.0,0.8715,1.0,1.0,1.0,1.0,0.0,0.0,0.0,0.0,0.0,0.0,0.0,0.0,0.0,-0.3333,0.0,-0.3333,0.0,3
4.36,run,12.74,6.28,-8.33,-2.88,2.56,0.0,-0.05,0.0,0.539,5.8,-42.54,92.64,-17.05,-71.19,80.07,-20.39,-40.78,117.77,-34.89,-27.25,87.1,-5.71,-0.44,110.92,34.89,-31.73,99.93,14.0,-34.05,80.58,-11.0,-78.75,91.45,-33.5,-52.66,130.63,-35.0,-28.57,75.22,6.0,5.0,115.8,35.0,-22.44,111.93,1.0,1.0,-1.0,1.0,-1.0,1.0,-1.0,-1.0,1.0,-1.0,-0.4269,-1.0,1.0,1.0,1.0,1.0,1.0,1.0,0.0,0.0,0.026,0.013,0.019,0.013,0.013,0.033,0.026,0.0,0.006,0.013,0.019,0.0,0.039,0.0,0.019,0.019,0.0982,-1.0876,0.2562,-0.3267,-1.5033,-0.0138,-0.3283,-1.0247,0.6427,-0.6121,-0.7823,0.1687,-0.1227,-0.3221,0.5185,0.609,-0.8621,0.3436,-0.22,-0.1867,-0.3058,0.3101,-0.3057,0.3131,-0.2997,-0.2852,0.3024,0.0011,0.0964,-0.3057,0.3104,-0.238,0.2666,0.0011,-0.1691,0.3112,1.1649,0.6051,0.2004,0.0708,-0.0205,1.0,1.0,-1.0,1.0,-1.0,1.0,-1.0,-1.0,1.0,-1.0,-0.4271,-1.0,1.0,1.0,1.0,1.0,1.0,1.0,0.0,0.0,0.0,0.0,0.0,0.0,0.0,0.0,0.0,-0.3333,0.0,-0.3333,0.0,3
4.4,run,12.25,6.1,-11.66,-6.01,0.09,0.0,-0.05,0.0,0.539,5.8,-42.54,91.14,-16.35,-72.6,81.47,-21.8,-42.28,119.18,-34.89,-26.54,85.78,-4.39,-0.79,112.24,34.89,-31.64,101.34,15.5,-32.55,79.08,-9.5,-77.25,92.95,-35.0,-54.16,132.13,-35.0,-30.07,73.72,7.5,6.5,117.3,35.0,-20.94,113.43,1.0,1.0,-1.0,1.0,0.3628,1.0,-1.0,-1.0,1.0,-1.0,-0.371,-1.0,1.0,0.7914,0.8323,1.0,1.0,1.0,0.0,0.0,0.026,0.013,0.019,0.013,0.013,0.033,0.026,0.0,0.006,0.013,0.019,0.0,0.039,0.0,0.019,0.019,0.1012,-1.0907,0.2347,-0.2961,-1.5278,0.0107,-0.3543,-1.0492,0.6657,-0.6121,-0.7624,0.1427,-0.0997,-0.3359,0.543,0.609,-0.8621,0.3666,-0.1425,-0.1422,-0.2944,0.3318,-0.3057,0.311,-0.3073,-0.2914,0.2977,0.0007,0.1421,-0.3115,0.3033,-0.2182,0.2784,0.0008,-0.1184,0.3039,1.1441,0.5955,-0.1453,-0.0503,0.0447,1.0,1.0,-1.0,1.0,-1.0,1.0,-1.0,-1.0,1.0,-1.0,-0.4269,-1.0,1.0,1.0,1.0,1.0,1.0,1.0,0.0,0.0,0.0,0.0,0.0,0.0,0.0,0.0,0.0,-0.3333,0.0,-0.3333,0.0,3
4.44,run,11.77,5.97,-11.14,-5.58,-0.5,0.0,-0.05,0.0,0.539,6.42,-42.19,89.65,-14.59,-74.09,82.88,-23.2,-43.59,120.59,-34.89,-25.93,84.29,-2.99,-1.14,113.47,34.89,-30.67,102.74,17.0,-31.05,77.58,-8.0,-75.75,94.45,-35.0,-55.66,133.63,-35.0,-31.57,72.22,9.0,8.0,118.8,35.0,-19.44,114.93,0.6808,0.8193,-1.0,1.0,1.0,1.0,-1.0,-1.0,1.0,-1.0,-0.4018,-1.0,1.0,0.6516,1.0,1.0,1.0,1.0,0.0,0.0,0.026,0.013,0.019,0.013,0.013,0.033,0.026,0.0,0.006,0.013,0.019,0.0,0.039,0.0,0.019,0.019,0.1012,-1.0907,0.2086,-0.2838,-1.5524,0.0353,-0.3789,-1.0753,0.6903,-0.6121,-0.7501,0.1197,-0.0767,-0.3421,0.566,0.609,-0.8606,0.3912,-0.0998,-0.0995,-0.3042,0.2784,-0.3063,0.31,-0.3074,-0.3021,0.3007,0.0005,0.1456,-0.3046,0.2989,-0.1758,0.2814,0.0005,-0.0771,0.305,1.1016,0.5802,-0.2034,-0.1049,0.0016,1.0,1.0,-1.0,1.0,0.3628,1.0,-1.0,-1.0,1.0,-1.0,-0.371,-1.0,1.0,0.7914,0.8323,1.0,1.0,1.0,0.0,0.0,0.0,0.0,0.0,0.0,0.0,0.0,0.0,-0.3333,0.0,-0.3333,0.0,3
4.48,run,11.64,5.94,-2.36,-0.84,-0.31,0.0,-0.05,0.0,0.539,7.82,-41.31,88.15,-13.18,-75.23,84.29,-24.61,-45.0,121.99,-34.89,-25.84,82.88,-1.58,-1.14,114.7,34.89,-29.44,104.06,18.5,-29.55,76.08,-6.5,-74.25,95.95,-35.0,-57.16,135.13,-35.0,-33.07,70.72,10.5,7.15,120.3,35.0,-17.94,116.43,0.6218,0.4546,-1.0,1.0,1.0,1.0,-1.0,-1.0,1.0,-1.0,-0.4049,-1.0,0.8315,0.5846,1.0,1.0,1.0,0.8163,0.013,0.006,0.013,0.019,0.013,0.006,0.013,0.045,0.026,0.0,0.006,0.019,0.033,0.175,0.111,0.0,0.039,0.033,0.112,-1.0845,0.1825,-0.2531,-1.5785,0.0598,-0.4034,-1.0983,0.7148,-0.6121,-0.7394,0.0936,-0.0522,-0.3482,0.5875,0.609,-0.8437,0.4157,-0.0298,-0.0468,-0.3102,0.3093,-0.3117,0.3086,-0.3068,-0.2973,0.3021,0.0004,0.142,-0.3105,0.3008,-0.146,0.2771,0.0004,0.009,0.3051,1.0593,0.5683,-0.1945,-0.0973,-0.0087,0.6808,0.8193,-1.0,1.0,1.0,1.0,-1.0,-1.0,1.0,-1.0,-0.4018,-1.0,1.0,0.6516,1.0,1.0,1.0,1.0,0.0,0.0,0.0,0.0,0.0,0.0,0.0,0.0,0.0,-0.3333,0.0,-0.3333,0.0,3
4.52,run,11.83,5.98,3.72,0.43,-0.49,0.0,-0.05,0.0,0.539,9.05,-39.9,86.48,-11.43,-76.29,86.04,-26.28,-46.67,123.75,-34.89,-25.84,81.21,0.09,-0.53,116.19,34.89,-27.95,105.56,20.0,-29.01,74.58,-5.0,-72.75,97.45,-35.0,-58.66,136.63,-35.0,-31.57,69.22,9.0,8.65,121.8,35.0,-16.44,114.93,0.9182,-0.0728,-0.8794,1.0,1.0,1.0,-1.0,-1.0,1.0,-1.0,-0.1047,-1.0,-0.0874,0.7137,1.0,1.0,1.0,0.2335,0.013,0.006,0.013,0.019,0.013,0.006,0.013,0.045,0.026,0.0,0.006,0.019,0.033,0.175,0.111,0.0,0.039,0.033,0.1365,-1.0692,0.1565,-0.2286,-1.5984,0.0844,-0.428,-1.1229,0.7394,-0.6121,-0.7378,0.069,-0.0276,-0.3482,0.609,0.609,-0.8222,0.4387,0.0715,0.025,-0.3152,0.3088,-0.2932,0.3083,-0.307,-0.3004,0.3038,0.0003,0.1052,-0.3097,0.3029,-0.1022,0.2747,0.0003,0.0871,0.3001,1.0481,0.566,-0.0412,-0.0147,-0.0054,0.6218,0.4546,-1.0,1.0,1.0,1.0,-1.0,-1.0,1.0,-1.0,-0.4049,-1.0,0.8315,0.5846,1.0,1.0,1.0,0.8163,0.0,0.0,0.0,0.0,0.0,0.0,0.0,0.0,0.0,-0.3333,0.0,-0.3333,0.0,3
4.56,run,12.33,6.17,13.22,4.45,-3.75,0.0,-0.05,0.0,0.539,10.63,-38.58,84.99,-10.02,-76.82,87.54,-27.69,-48.08,125.07,-34.89,-26.54,79.8,1.49,0.44,117.51,34.98,-26.72,106.96,21.5,-30.51,73.08,-3.5,-71.25,98.95,-35.0,-60.16,138.13,-35.0,-30.07,67.72,7.5,7.15,123.3,35.0,-14.94,113.43,1.0,-1.0,-0.6459,1.0,1.0,1.0,-1.0,-1.0,1.0,-1.0,1.0,-1.0,-1.0,0.4268,1.0,1.0,1.0,-0.9365,0.013,0.006,0.013,0.019,0.013,0.006,0.013,0.045,0.026,0.0,0.006,0.019,0.033,0.175,0.111,0.0,0.039,0.033,0.158,-1.0446,0.1273,-0.1979,-1.6168,0.115,-0.4571,-1.152,0.7701,-0.6121,-0.7378,0.0399,0.0015,-0.3375,0.6351,0.609,-0.7961,0.4648,0.1165,0.0935,-0.3109,0.3112,-0.2623,0.3108,-0.3052,-0.3006,0.3077,0.0002,0.0736,-0.3071,0.3023,-0.0383,0.2731,0.0002,0.1417,0.2909,1.0644,0.5694,0.0649,0.0075,-0.0086,0.9182,-0.0728,-0.8794,1.0,1.0,1.0,-1.0,-1.0,1.0,-1.0,-0.1047,-1.0,-0.0874,0.7137,1.0,1.0,1.0,0.2335,0.0,0.0,0.0,0.0,0.0,0.0,0.0,0.0,0.0,-0.3333,0.0,-0.3333,0.0,3
4.6,run,13.14,6.42,21.66,6.77,-5.06,0.0,-0.05,0.0,0.539,12.04,-37.18,83.14,-8.61,-76.99,88.86,-29.09,-49.48,126.47,-34.89,-27.6,78.4,2.9,1.58,118.92,34.98,-25.58,108.28,23.0,-32.01,74.58,-2.0,-69.75,100.45,-35.0,-61.66,139.63,-35.0,-28.57,66.22,6.0,5.65,124.8,35.0,-13.44,111.93,1.0,-1.0,0.1164,1.0,0.1798,1.0,-1.0,-1.0,1.0,-1.0,1.0,-0.8047,-1.0,0.2158,1.0,1.0,1.0,-1.0,0.013,0.019,0.013,0.019,0.0,0.013,0.013,0.039,0.026,0.0,0.013,0.013,0.026,0.214,0.111,0.0,0.084,0.052,0.1856,-1.0216,0.1012,-0.1733,-1.626,0.1411,-0.4817,-1.1766,0.7931,-0.6121,-0.7501,0.0153,0.0261,-0.3206,0.6581,0.6105,-0.7747,0.4893,0.1847,0.1514,-0.315,0.3095,-0.218,0.315,-0.3053,-0.3021,0.3013,0.0001,0.0057,-0.3066,0.3033,0.0362,0.2771,0.0059,0.1794,0.2953,1.1086,0.586,0.2308,0.0776,-0.0654,1.0,-1.0,-0.6459,1.0,1.0,1.0,-1.0,-1.0,1.0,-1.0,1.0,-1.0,-1.0,0.4268,1.0,1.0,1.0,-0.9365,0.0,0.0,0.0,0.0,0.0,0.0,0.0,0.0,0.0,-0.3333,0.0,-0.3333,0.0,3
4.64,run,13.9,6.27,20.09,-5.77,-2.35,0.0,-0.05,0.0,0.539,13.36,-36.39,82.09,-7.21,-76.9,90.35,-30.5,-50.89,127.88,-34.89,-28.56,76.9,4.22,3.16,120.5,34.98,-24.26,109.42,24.5,-33.51,73.08,-0.5,-71.25,101.95,-35.0,-63.16,141.13,-33.5,-27.07,64.72,4.5,4.15,126.3,35.0,-11.94,110.43,1.0,-1.0,-0.1649,1.0,-0.8963,1.0,-1.0,-1.0,1.0,-0.6389,1.0,-0.4825,-1.0,0.3143,1.0,1.0,1.0,-1.0,0.013,0.019,0.013,0.019,0.0,0.013,0.013,0.039,0.026,0.0,0.013,0.013,0.026,0.214,0.111,0.0,0.084,0.052,0.2102,-0.9971,0.069,-0.1488,-1.6291,0.1641,-0.5062,-1.2011,0.8176,-0.6121,-0.7685,-0.0092,0.0506,-0.3007,0.6826,0.6105,-0.7547,0.5123,0.2219,0.1986,-0.3421,0.3093,-0.1641,0.3073,-0.3063,-0.304,0.3035,0.0001,-0.0655,-0.3072,0.3049,0.1006,0.2866,0.0041,0.2008,0.2935,1.1792,0.608,0.3781,0.1181,-0.0883,1.0,-1.0,0.1164,1.0,0.1798,1.0,-1.0,-1.0,1.0,-1.0,1.0,-0.8047,-1.0,0.2158,1.0,1.0,1.0,-1.0,0.0,0.0,0.0,0.0,0.0,0.0,0.0,0.0,0.0,-0.3333,0.0,-0.3333,0.0,3
4.68,run,14.65,6.03,18.99,-8.71,-6.48,0.0,-0.05,0.0,0.539,14.68,-34.72,80.6,-5.8,-76.55,91.76,-31.82,-52.29,129.29,-34.89,-29.27,75.5,5.27,4.31,121.99,34.98,-22.94,110.39,26.0,-35.01,71.58,1.0,-72.75,103.45,-35.0,-64.66,142.63,-32.0,-25.57,63.22,3.0,2.65,127.8,35.0,-10.44,108.93,1.0,-1.0,-0.4723,1.0,-1.0,1.0,-1.0,-1.0,1.0,-0.5604,1.0,-1.0,-1.0,-0.0047,1.0,1.0,1.0,-1.0,0.013,0.019,0.013,0.019,0.0,0.013,0.013,0.039,0.026,0.0,0.013,0.013,0.026,0.214,0.111,0.0,0.084,0.052,0.2332,-0.9833,0.0506,-0.1243,-1.6276,0.1902,-0.5308,-1.2257,0.8422,-0.6121,-0.7854,-0.0353,0.0736,-0.273,0.7102,0.6105,-0.7317,0.5323,0.2414,0.1907,-0.3083,0.3083,-0.1092,0.3127,-0.3063,-0.3047,0.3043,0.0001,-0.109,-0.3126,0.2995,0.1738,0.3039,0.0029,0.2267,0.2801,1.2449,0.5947,0.3507,-0.1007,-0.041,1.0,-1.0,-0.1649,1.0,-0.8963,1.0,-1.0,-1.0,1.0,-0.6389,1.0,-0.4825,-1.0,0.3143,1.0,1.0,1.0,-1.0,0.0,0.0,0.0,0.0,0.0,0.0,0.0,0.0,0.0,-0.3333,0.0,-0.3333,0.0,3
4.72,run,15.15,6.05,12.1,-2.63,-13.31,0.0,-0.05,0.0,0.539,16.08,-33.66,79.28,-4.39,-75.59,93.16,-32.96,-53.7,130.43,-34.72,-29.62,74.18,5.98,5.1,123.4,34.98,-21.62,111.18,27.5,-36.51,70.08,2.5,-74.25,104.95,-35.0,-66.16,144.13,-30.5,-24.07,61.72,1.5,1.15,129.3,35.0,-8.94,107.43,1.0,-1.0,-0.3897,1.0,-1.0,1.0,-1.0,-1.0,1.0,-0.6095,1.0,-1.0,-1.0,-0.1073,1.0,1.0,1.0,-1.0,0.006,0.006,0.0,0.026,0.006,0.006,0.006,0.033,0.071,0.019,0.0,0.013,0.013,0.123,0.104,0.0,0.13,0.052,0.2562,-0.9541,0.0245,-0.0997,-1.6214,0.2148,-0.5538,-1.2502,0.8667,-0.6121,-0.7977,-0.0598,0.092,-0.2531,0.7363,0.6105,-0.7087,0.5492,0.2551,0.2425,-0.3134,0.3076,-0.0535,0.3107,-0.3005,-0.3051,0.3048,0.0,-0.1222,-0.3107,0.2785,0.1962,0.3103,0.002,0.2448,0.2592,1.3108,0.5739,0.3314,-0.1519,-0.1131,1.0,-1.0,-0.4723,1.0,-1.0,1.0,-1.0,-1.0,1.0,-0.5604,1.0,-1.0,-1.0,-0.0047,1.0,1.0,1.0,-1.0,0.0,0.0,0.0,0.0,0.0,0.0,0.0,0.0,0.0,-0.3333,0.0,-0.3333,0.0,3
4.76,run,15.86,5.28,14.08,-17.14,-9.12,0.0,-0.05,0.0,0.539,17.84,-32.87,77.52,-2.64,-74.36,94.92,-33.93,-55.46,131.75,-33.22,-29.62,72.33,6.59,5.54,125.16,34.98,-20.04,111.71,29.0,-38.01,71.58,4.0,-75.75,106.45,-35.0,-67.66,145.63,-29.0,-22.57,60.22,-0.0,-0.35,130.8,35.0,-7.44,105.93,1.0,-1.0,0.5748,1.0,-1.0,1.0,-1.0,-1.0,1.0,0.0392,1.0,-0.5861,-1.0,-0.5151,1.0,1.0,1.0,-1.0,0.006,0.006,0.0,0.026,0.006,0.006,0.006,0.033,0.071,0.019,0.0,0.013,0.013,0.123,0.104,0.0,0.13,0.052,0.2807,-0.9357,0.0015,-0.0752,-1.6045,0.2393,-0.5737,-1.2747,0.8866,-0.609,-0.8038,-0.0828,0.1043,-0.2393,0.7609,0.6105,-0.6857,0.563,0.2706,0.2388,-0.3057,0.3074,0.0259,0.3095,-0.2851,-0.3056,0.2882,0.0115,-0.1085,-0.3038,0.241,0.1891,0.3093,0.0014,0.2576,0.2332,1.3541,0.5755,0.2112,-0.0459,-0.2323,1.0,-1.0,-0.3897,1.0,-1.0,1.0,-1.0,-1.0,1.0,-0.6095,1.0,-1.0,-1.0,-0.1073,1.0,1.0,1.0,-1.0,0.0,0.0,0.0,0.0,0.0,0.0,0.0,0.0,0.0,-0.3333,0.0,-0.3333,0.0,3
4.8,run,15.72,4.66,-3.27,-18.29,-12.8,0.0,-0.05,0.0,0.539,19.25,-32.26,76.11,-1.23,-73.56,96.42,-34.45,-56.87,132.89,-32.34,-29.27,70.93,6.5,5.71,126.83,34.89,-18.72,111.71,30.5,-39.51,73.08,5.5,-77.25,107.95,-35.0,-69.16,147.13,-27.5,-21.07,58.72,-1.5,-1.85,132.3,35.0,-5.94,104.43,1.0,-1.0,1.0,1.0,-1.0,1.0,-1.0,-0.8666,1.0,-0.1642,1.0,-0.2564,-1.0,-0.4736,1.0,1.0,0.8513,-1.0,0.006,0.006,0.0,0.026,0.006,0.006,0.006,0.033,0.071,0.019,0.0,0.013,0.013,0.123,0.104,0.0,0.13,0.052,0.3114,-0.9219,-0.0291,-0.0445,-1.5831,0.27,-0.5906,-1.3054,0.9097,-0.5829,-0.8038,-0.115,0.115,-0.2316,0.7915,0.6105,-0.6581,0.5722,0.2841,0.2097,-0.3086,0.3098,0.0844,0.3113,-0.2516,-0.3086,0.2727,0.0885,-0.076,-0.312,0.2018,0.1561,0.3111,0.001,0.2655,0.1916,1.416,0.5082,0.2457,-0.2992,-0.1592,1.0,-1.0,0.5748,1.0,-1.0,1.0,-1.0,-1.0,1.0,0.0392,1.0,-0.5861,-1.0,-0.5151,1.0,1.0,1.0,-1.0,0.0,0.0,0.0,0.0,0.0,0.0,0.0,0.0,0.0,-0.3333,0.0,-0.3333,0.0,3
4.84,run,15.61,4.39,-4.96,-8.74,-8.31,0.0,-0.05,0.0,0.539,20.74,-31.9,74.79,0.18,-73.21,97.82,-34.54,-58.36,133.95,-30.94,-28.3,69.61,6.15,5.62,128.32,34.8,-17.31,111.71,32.0,-41.01,74.58,7.0,-78.75,109.45,-35.0,-67.66,148.63,-26.0,-19.57,60.22,-3.0,-3.35,130.8,35.0,-7.44,102.93,1.0,-1.0,1.0,1.0,-1.0,1.0,-1.0,-0.3074,1.0,0.3424,1.0,0.0548,-1.0,-1.0,0.6122,1.0,-0.0909,-1.0,0.006,0.013,0.0,0.019,0.0,0.006,0.013,0.039,0.175,0.013,0.006,0.013,0.006,0.0,0.026,0.006,0.149,0.006,0.3359,-0.9112,-0.0537,-0.0199,-1.5693,0.2961,-0.5998,-1.33,0.9296,-0.5676,-0.7977,-0.1396,0.1135,-0.2286,0.8207,0.609,-0.6351,0.5722,0.2901,0.1867,-0.3073,0.3081,0.1104,0.3149,-0.2104,-0.3073,0.265,0.119,-0.0304,-0.3097,0.1356,0.1206,0.3262,-0.005,0.2714,0.1341,1.4041,0.4541,-0.0571,-0.3193,-0.2234,1.0,-1.0,1.0,1.0,-1.0,1.0,-1.0,-0.8666,1.0,-0.1642,1.0,-0.2564,-1.0,-0.4736,1.0,1.0,0.8513,-1.0,0.0,0.0,0.0,0.0,0.0,0.0,0.0,0.0,0.0,-0.3333,0.0,-0.3333,0.0,3
4.88,run,15.21,3.62,-8.04,-16.04,-1.69,0.0,-0.05,0.0,0.539,22.5,-32.7,73.92,1.85,-73.12,99.58,-34.54,-60.12,135.0,-29.18,-26.98,67.85,4.75,4.57,129.9,34.8,-15.64,111.01,33.5,-42.51,76.08,8.5,-80.0,110.95,-35.0,-69.16,150.0,-24.5,-18.07,61.72,-4.5,-4.85,132.3,35.0,-5.94,101.43,1.0,-1.0,1.0,1.0,-1.0,0.9193,-1.0,-0.9665,1.0,0.6992,1.0,0.7839,-1.0,-0.9916,0.8755,1.0,1.0,-1.0,0.006,0.013,0.0,0.019,0.0,0.006,0.013,0.039,0.175,0.013,0.006,0.013,0.006,0.0,0.026,0.006,0.149,0.006,0.362,-0.905,-0.0767,0.0046,-1.5631,0.3206,-0.6013,-1.356,0.948,-0.543,-0.7808,-0.1626,0.1074,-0.2301,0.8468,0.6075,-0.6105,0.5722,0.3009,0.1537,-0.3014,0.3077,0.1003,0.3125,-0.153,-0.3129,0.2546,0.1753,0.042,-0.3031,0.0719,0.0787,0.3261,-0.0093,0.282,0.0939,1.3942,0.4306,-0.0866,-0.1525,-0.145,1.0,-1.0,1.0,1.0,-1.0,1.0,-1.0,-0.3074,1.0,0.3424,1.0,0.0548,-1.0,-1.0,0.6122,1.0,-0.0909,-1.0,0.0,0.0,0.0,0.0,0.0,0.0,0.0,0.0,0.0,-0.3333,0.0,-0.3333,0.0,3
4.92,run,14.56,3.01,-15.97,-17.64,0.22,0.0,-0.05,0.0,0.539,23.99,-33.57,73.12,3.34,-73.21,100.9,-34.54,-61.61,135.7,-27.86,-25.49,66.36,3.96,3.52,130.87,34.8,-14.24,109.95,35.0,-44.01,77.58,10.0,-78.5,109.45,-35.0,-70.03,150.0,-23.0,-16.57,63.22,-6.0,-6.35,130.8,35.0,-7.44,99.93,1.0,-1.0,1.0,0.3506,-0.8682,0.4812,-1.0,-0.8187,1.0,0.8589,1.0,1.0,-1.0,-1.0,-0.2857,1.0,-0.731,-1.0,0.006,0.013,0.0,0.019,0.0,0.006,0.013,0.039,0.175,0.013,0.006,0.013,0.006,0.0,0.026,0.006,0.149,0.006,0.3927,-0.9189,-0.092,0.0337,-1.5616,0.3513,-0.6013,-1.3867,0.9664,-0.5123,-0.7578,-0.1933,0.0828,-0.2485,0.8744,0.6075,-0.5814,0.5599,0.3042,0.0655,-0.2577,0.3043,0.0749,0.3123,-0.1071,-0.3126,0.2343,0.2163,0.0996,-0.3057,-0.0245,-0.001,0.3125,-0.0065,0.2863,0.0283,1.3592,0.3633,-0.1403,-0.28,-0.0295,1.0,-1.0,1.0,1.0,-1.0,0.9193,-1.0,-0.9665,1.0,0.6992,1.0,0.7839,-1.0,-0.9916,0.8755,1.0,1.0,-1.0,0.0,0.0,0.0,0.0,0.0,0.0,0.0,0.0,0.0,-0.3333,0.0,-0.3333,0.0,3
4.96,run,13.84,2.21,-18.12,-21.43,0.7,0.0,-0.05,0.0,0.78,25.58,-34.72,72.42,4.75,-74.0,102.39,-34.54,-63.02,136.32,-26.46,-24.17,65.04,2.11,2.02,131.66,34.8,-12.83,108.72,35.0,-45.51,79.08,8.5,-77.0,107.95,-35.0,-71.53,148.5,-21.5,-15.07,64.72,-7.5,-7.85,129.3,35.0,-8.94,98.43,1.0,-1.0,1.0,-0.3452,1.0,0.4061,-1.0,-1.0,0.7272,1.0,1.0,1.0,-1.0,-1.0,-0.3811,1.0,-0.5128,-1.0,0.0,0.033,0.0,0.013,0.019,0.013,0.006,0.026,0.78,0.013,0.013,0.006,0.006,0.0,0.0,0.006,0.175,0.0,0.4188,-0.9342,-0.1058,0.0598,-1.5631,0.3743,-0.6013,-1.4128,0.9787,-0.4893,-0.7317,-0.2194,0.069,-0.2669,0.8912,0.6075,-0.5568,0.5415,0.3097,-0.0111,-0.2317,0.3098,0.0467,0.304,-0.075,-0.3156,0.2096,0.2368,0.1665,-0.3108,-0.0684,-0.069,0.2813,-0.0045,0.2915,-0.0485,1.3033,0.31,-0.2787,-0.308,0.0038,1.0,-1.0,1.0,0.3506,-0.8682,0.4812,-1.0,-0.8187,1.0,0.8589,1.0,1.0,-1.0,-1.0,-0.2857,1.0,-0.731,-1.0,0.0,0.0,0.0,0.0,0.0,0.0,0.0,0.0,0.0,-0.3333,0.0,-0.3333,0.0,3
5.0,run,13.01,1.19,-20.49,-26.81,-0.1,0.0,-0.05,0.0,0.78,26.72,-36.21,72.33,6.06,-74.97,103.89,-34.54,-64.34,136.93,-25.05,-22.68,64.07,1.23,0.7,132.19,34.8,-11.51,107.31,35.0,-47.01,80.58,7.0,-75.5,106.45,-35.0,-73.03,147.0,-20.0,-13.57,66.22,-9.0,-9.35,127.8,35.0,-10.44,96.93,1.0,-1.0,1.0,-1.0,1.0,-0.9142,-1.0,-1.0,-0.3596,1.0,1.0,1.0,-1.0,-1.0,-1.0,1.0,-1.0,-1.0,0.0,0.033,0.0,0.013,0.019,0.013,0.006,0.026,0.78,0.013,0.013,0.006,0.006,0.0,0.0,0.006,0.175,0.0,0.4464,-0.9541,-0.1181,0.0844,-1.5769,0.4004,-0.6013,-1.4373,0.9894,-0.4648,-0.7087,-0.2424,0.0368,-0.293,0.905,0.6075,-0.5323,0.52,0.3202,-0.0825,-0.2081,0.3088,-0.019,0.3105,-0.0525,-0.3129,0.1869,0.2577,0.2027,-0.3037,-0.1686,-0.146,0.2487,-0.0032,0.296,-0.1144,1.2396,0.2408,-0.3163,-0.374,0.0122,1.0,-1.0,1.0,-0.3452,1.0,0.4061,-1.0,-1.0,0.7272,1.0,1.0,1.0,-1.0,-1.0,-0.3811,1.0,-0.5128,-1.0,0.0,0.0,0.0,0.0,0.0,0.0,0.0,0.0,0.0,-0.3333,0.0,-0.3333,0.0,3
5.04,run,12.38,0.27,-13.23,-24.83,2.75,0.0,-0.048,0.0,0.78,28.21,-37.53,72.6,7.12,-75.76,105.21,-34.54,-65.83,137.37,-23.73,-21.27,63.37,-0.62,-0.79,132.28,34.8,-10.46,106.0,35.0,-48.51,82.08,5.5,-74.0,104.95,-35.0,-74.53,145.5,-21.5,-12.07,67.72,-10.5,-10.85,126.3,35.0,-11.94,95.43,1.0,-1.0,1.0,-1.0,1.0,-0.389,-1.0,-1.0,-1.0,-0.6738,1.0,1.0,-1.0,-1.0,-1.0,1.0,-1.0,-1.0,0.0,0.033,0.0,0.013,0.019,0.013,0.006,0.026,0.78,0.013,0.013,0.006,0.006,0.0,0.0,0.006,0.175,0.0,0.4663,-0.9802,-0.1197,0.1074,-1.5938,0.4264,-0.6013,-1.4603,1.0002,-0.4403,-0.6826,-0.2592,0.0215,-0.316,0.9143,0.6075,-0.5093,0.4955,0.299,-0.1556,-0.1515,0.3025,-0.0766,0.3152,-0.0367,-0.3054,0.1711,0.2725,0.2398,-0.2759,-0.1756,-0.1886,0.2086,-0.0022,0.2936,-0.1722,1.1676,0.1518,-0.3576,-0.4678,-0.0018,1.0,-1.0,1.0,-1.0,1.0,-0.9142,-1.0,-1.0,-0.3596,1.0,1.0,1.0,-1.0,-1.0,-1.0,1.0,-1.0,-1.0,0.0,0.0,0.0,0.0,0.0,0.0,0.0,0.0,0.0,-0.32,0.0,-0.32,0.0,3
5.08,run,11.91,-0.38,-10.18,-17.19,7.06,0.0,-0.046,0.0,1.865,29.62,-38.85,73.21,8.0,-76.38,106.35,-34.54,-67.24,137.37,-22.41,-19.86,62.93,-1.85,-2.11,131.84,34.8,-9.58,104.59,35.0,-50.01,83.58,4.0,-72.5,103.45,-35.0,-76.03,144.0,-23.0,-10.57,69.22,-12.0,-12.35,124.8,35.0,-13.44,93.93,1.0,-1.0,1.0,-1.0,1.0,-0.4841,-1.0,-1.0,-1.0,-1.0,1.0,1.0,-1.0,-1.0,-1.0,1.0,-1.0,-1.0,0.013,0.039,0.019,0.0,0.0,0.0,0.006,0.033,1.865,0.006,0.0,0.0,0.019,0.006,0.039,0.006,0.052,0.0,0.4924,-1.0032,-0.115,0.1258,-1.6076,0.4495,-0.6013,-1.4864,1.0078,-0.4172,-0.6581,-0.2715,-0.0107,-0.3421,0.9158,0.6075,-0.4909,0.4725,0.3069,-0.195,-0.0888,0.2806,-0.1053,0.3067,-0.0257,-0.3113,0.1485,0.2768,0.2597,-0.2391,-0.2434,-0.2296,0.1518,-0.0016,0.2744,-0.2066,1.1125,0.0717,-0.2309,-0.4333,0.048,1.0,-1.0,1.0,-1.0,1.0,-0.389,-1.0,-1.0,-1.0,-0.6738,1.0,1.0,-1.0,-1.0,-1.0,1.0,-1.0,-1.0,0.0,0.0,0.0,0.0,0.0,0.0,0.0,0.0,0.0,-0.3067,0.0,-0.3067,0.0,3
