t_s,phase,roll_deg,pitch_deg,gyro_x_dps,gyro_y_dps,gyro_z_dps,height_ref_mm,vx_ref_mps,vy_ref_mps,max_cur_a,q0_deg,q1_deg,q2_deg,q3_deg,q4_deg,q5_deg,q6_deg,q7_deg,q8_deg,q9_deg,q10_deg,q11_deg,q12_deg,q13_deg,q14_deg,q15_deg,q16_deg,q17_deg,cmd0_deg,cmd1_deg,cmd2_deg,cmd3_deg,cmd4_deg,cmd5_deg,cmd6_deg,cmd7_deg,cmd8_deg,cmd9_deg,cmd10_deg,cmd11_deg,cmd12_deg,cmd13_deg,cmd14_deg,cmd15_deg,cmd16_deg,cmd17_deg,act0,act1,act2,act3,act4,act5,act6,act7,act8,act9,act10,act11,act12,act13,act14,act15,act16,act17,cur0_a,cur1_a,cur2_a,cur3_a,cur4_a,cur5_a,cur6_a,cur7_a,cur8_a,cur9_a,cur10_a,cur11_a,cur12_a,cur13_a,cur14_a,cur15_a,cur16_a,cur17_a,obs0,obs1,obs2,obs3,obs4,obs5,obs6,obs7,obs8,obs9,obs10,obs11,obs12,obs13,obs14,obs15,obs16,obs17,obs18,obs19,obs20,obs21,obs22,obs23,obs24,obs25,obs26,obs27,obs28,obs29,obs30,obs31,obs32,obs33,obs34,obs35,obs36,obs37,obs38,obs39,obs40,obs41,obs42,obs43,obs44,obs45,obs46,obs47,obs48,obs49,obs50,obs51,obs52,obs53,obs54,obs55,obs56,obs57,obs58,obs59,obs60,obs61,obs62,obs63,obs64,obs65,obs66,obs67,obs68,obs69,obs70,obs71,rot60_k
0.0,run,-0.22,-0.83,-0.83,-1.83,3.21,0.0,0.0,0.0,0.026,-3.34,6.5,92.72,2.55,16.52,79.54,-3.16,6.59,92.2,3.34,15.82,78.57,-3.25,6.59,92.64,3.43,16.88,79.37,-4.84,5.0,91.22,1.22,15.46,80.87,-1.66,5.09,93.7,4.84,14.76,80.25,-4.75,5.09,91.14,1.93,15.64,80.87,-0.9766,-1.0,-0.3504,-1.0,-1.0,1.0,1.0,-1.0,1.0,1.0,-1.0,1.0,-0.1656,-1.0,-0.4972,-1.0,-1.0,1.0,0.013,0.006,0.006,0.0,0.0,0.006,0.0,0.019,0.006,0.006,0.006,0.026,0.013,0.0,0.013,0.013,0.0,0.006,0.0,0.0,0.0,-0.0015,0.0,0.0031,0.0,0.0,0.0,0.0,0.0,-0.0031,0.0,0.0,0.0,0.0,0.0,0.0,0.0,0.0,0.0,-0.0038,0.0,0.0076,0.0,0.0,0.0,0.0,0.0,-0.0064,0.0,0.0,0.0,0.0,0.0,0.0,0.0,0.0,-0.0081,-0.0086,-0.0061,0.0,0.0,0.0,0.0,0.0,0.0,0.0,0.0,0.0,0.0,0.0,0.0,0.0,0.0,0.0,0.0,0.0,0.0,0.0,0.0,0.0,0.0,0.0,0.0,0.0,0.0,0.0,0.0,0.0,0.0,0.0,0
0.04,run,-0.29,-0.78,-1.25,1.19,-0.41,0.0,0.0,0.0,0.026,-3.69,6.5,92.72,2.46,16.35,79.8,-3.16,6.33,92.2,3.34,15.38,78.75,-3.43,6.42,92.46,3.16,16.52,79.54,-6.34,6.5,92.72,-0.28,13.96,82.37,-3.16,3.59,92.2,6.34,13.26,81.75,-6.25,3.59,92.64,0.43,14.14,82.37,-1.0,0.6434,1.0,-1.0,-1.0,1.0,-1.0,-1.0,-1.0,1.0,-1.0,1.0,-1.0,0.247,1.0,-1.0,-1.0,1.0,0.013,0.006,0.006,0.0,0.0,0.006,0.0,0.019,0.006,0.006,0.006,0.026,0.013,0.0,0.013,0.013,0.0,0.006,0.0,0.0,0.0,-0.0031,-0.0077,0.0031,0.0,0.0,0.0,0.0,-0.0077,-0.0031,0.0,0.0,0.0,0.0,-0.0046,0.0,0.0,0.0,0.0,-0.0052,-0.0126,0.0053,0.0,0.0,0.0,0.0,-0.0126,-0.0045,0.0,0.0,0.0,0.0,-0.0076,0.0,-0.0077,-0.0141,-0.0145,-0.0319,0.056,-0.9766,-1.0,-0.3504,-1.0,-1.0,1.0,1.0,-1.0,1.0,1.0,-1.0,1.0,-0.1656,-1.0,-0.4972,-1.0,-1.0,1.0,0.0,0.0,0.0,0.0,0.0,0.0,0.0,0.0,0.0,0.0,0.0,0.0,0.0,0
0.08,run,-0.42,-0.95,-2.24,-4.48,0.41,0.0,0.0,0.0,0.026,-4.48,5.98,92.2,1.85,15.73,80.51,-2.99,5.62,92.46,4.31,14.77,79.54,-4.31,5.62,91.58,2.46,16.08,80.16,-4.84,8.0,94.22,-1.78,12.46,83.87,-4.66,5.09,93.7,7.84,11.76,83.25,-7.75,5.09,94.14,-1.07,12.64,83.87,0.0468,0.6046,0.4542,-1.0,-1.0,1.0,-1.0,1.0,1.0,1.0,-1.0,1.0,-1.0,1.0,1.0,-1.0,-1.0,1.0,0.013,0.006,0.006,0.0,0.0,0.006,0.0,0.019,0.006,0.006,0.006,0.026,0.013,0.0,0.013,0.013,0.0,0.006,-0.0061,0.0,0.0,-0.0046,-0.0107,0.0077,0.0,-0.0046,0.0,0.0,-0.0153,0.0,-0.0031,-0.0031,-0.0031,-0.0046,-0.0107,0.0031,-0.0222,0.0,0.0,-0.0092,-0.02,0.0204,0.0,-0.0167,0.0,0.0,-0.0366,0.008,-0.0111,-0.0111,-0.0111,-0.0167,-0.0276,0.0111,-0.0135,-0.0098,-0.0218,0.0209,-0.0071,-1.0,0.6434,1.0,-1.0,-1.0,1.0,-1.0,-1.0,-1.0,1.0,-1.0,1.0,-1.0,0.247,1.0,-1.0,-1.0,1.0,0.0,0.0,0.0,0.0,0.0,0.0,0.0,0.0,0.0,0.0,0.0,0.0,0.0,0
0.12,run,-0.71,-0.85,-7.36,1.2,-0.07,0.0,0.0,0.0,0.045,-5.36,5.62,91.67,1.05,14.77,81.47,-2.2,5.1,92.9,5.1,13.97,80.42,-5.19,4.92,91.23,1.49,15.21,81.04,-6.34,9.5,95.72,-3.28,10.96,85.37,-6.16,6.59,95.2,9.34,10.26,84.75,-6.25,3.59,92.64,-2.57,11.14,85.37,-1.0,0.7857,0.3772,-1.0,-1.0,1.0,-1.0,1.0,1.0,1.0,-1.0,1.0,0.5471,0.3471,-1.0,-1.0,-1.0,1.0,0.0,0.006,0.0,0.013,0.0,0.006,0.006,0.013,0.013,0.045,0.0,0.033,0.013,0.006,0.006,0.019,0.0,0.013,-0.0199,-0.0092,-0.0092,-0.0153,-0.0215,0.0199,0.0031,-0.0169,0.0046,0.0169,-0.0261,0.0138,-0.0184,-0.0169,-0.0184,-0.0169,-0.0184,0.0138,-0.067,-0.0343,-0.0343,-0.0465,-0.054,0.06,0.0114,-0.0574,0.0172,0.0629,-0.0657,0.0571,-0.065,-0.0593,-0.065,-0.0574,-0.0479,0.0478,-0.0249,-0.0246,-0.0392,-0.0783,0.0071,0.0468,0.6046,0.4542,-1.0,-1.0,1.0,-1.0,1.0,1.0,1.0,-1.0,1.0,-1.0,1.0,1.0,-1.0,-1.0,1.0,0.0,0.0,0.0,0.0,0.0,0.0,0.0,0.0,0.0,0.0,0.0,0.0,0.0,0
0.16,run,-0.75,-0.75,0.39,0.26,-4.87,0.0,0.0,0.0,0.045,-5.36,5.54,91.58,0.0,13.71,82.79,-2.11,4.66,93.34,6.15,12.66,81.56,-6.15,4.22,91.41,0.35,14.06,82.09,-7.84,11.0,94.22,-4.78,9.46,86.87,-7.66,8.09,93.7,10.84,8.76,86.25,-5.16,2.09,94.14,-4.07,9.64,86.87,-1.0,1.0,0.2547,-1.0,-0.01,1.0,-0.4393,0.6198,0.0394,1.0,-1.0,1.0,-0.1473,0.2448,1.0,-1.0,-1.0,1.0,0.0,0.006,0.0,0.013,0.0,0.006,0.006,0.013,0.013,0.045,0.0,0.033,0.013,0.006,0.006,0.019,0.0,0.013,-0.0353,-0.0153,-0.0184,-0.0291,-0.0383,0.0368,0.0169,-0.0261,0.0123,0.0307,-0.0399,0.0291,-0.0337,-0.0291,-0.0245,-0.0337,-0.0337,0.0291,-0.1045,-0.0471,-0.0586,-0.0844,-0.1012,0.1054,0.0599,-0.0748,0.0408,0.0959,-0.0978,0.0975,-0.1031,-0.0876,-0.0685,-0.1036,-0.0911,0.0911,-0.0505,-0.0157,-0.1284,0.021,-0.0013,-1.0,0.7857,0.3772,-1.0,-1.0,1.0,-1.0,1.0,1.0,1.0,-1.0,1.0,0.5471,0.3471,-1.0,-1.0,-1.0,1.0,0.0,0.0,0.0,0.0,0.0,0.0,0.0,0.0,0.0,0.0,0.0,0.0,0.0,0
0.2,run,-0.92,-0.51,-3.76,4.71,-16.75,0.0,0.0,0.0,0.045,-6.42,5.62,91.58,-1.32,12.39,84.11,-2.11,4.75,93.87,7.38,11.43,82.79,-6.86,3.25,92.11,-0.97,12.83,83.14,-9.34,12.5,95.72,-6.28,7.96,88.37,-9.16,9.59,95.2,12.34,7.26,87.75,-4.96,3.59,95.64,-5.57,8.14,88.37,-1.0,0.998,0.8715,-1.0,-1.0,0.9287,-1.0,0.6935,1.0,1.0,-1.0,1.0,-0.1417,1.0,1.0,-1.0,-1.0,1.0,0.0,0.006,0.0,0.013,0.0,0.006,0.006,0.013,0.013,0.045,0.0,0.033,0.013,0.006,0.006,0.019,0.0,0.013,-0.0353,-0.0169,-0.0199,-0.0476,-0.0568,0.0598,0.0184,-0.0337,0.0199,0.0491,-0.0629,0.0491,-0.0506,-0.0414,-0.0215,-0.0537,-0.0537,0.0476,-0.0732,-0.0387,-0.0468,-0.1285,-0.1402,0.1605,0.0477,-0.0813,0.0575,0.1365,-0.1552,0.1435,-0.1358,-0.1076,-0.0364,-0.1477,-0.139,0.1332,-0.0538,-0.0071,0.0068,0.0046,-0.085,-1.0,1.0,0.2547,-1.0,-0.01,1.0,-0.4393,0.6198,0.0394,1.0,-1.0,1.0,-0.1473,0.2448,1.0,-1.0,-1.0,1.0,0.0,0.0,0.0,0.0,0.0,0.0,0.0,0.0,0.0,0.0,0.0,0.0,0.0,0
0.24,run,-1.07,-0.33,-3.9,3.65,-9.01,0.0,0.0,0.0,0.052,-7.29,6.33,92.2,-2.64,11.07,85.52,-2.64,5.19,94.39,8.61,10.11,84.11,-7.12,2.9,92.9,-2.29,11.43,84.29,-10.84,14.0,94.22,-7.78,6.46,89.87,-10.66,11.09,96.7,13.84,5.76,89.25,-3.46,2.09,94.14,-7.07,6.64,89.87,-1.0,1.0,0.1631,-1.0,-0.3218,1.0,-1.0,1.0,1.0,1.0,-1.0,1.0,-0.0342,-0.0685,-0.6644,-1.0,-1.0,1.0,0.019,0.013,0.006,0.006,0.0,0.0,0.013,0.013,0.013,0.052,0.0,0.039,0.006,0.006,0.006,0.026,0.0,0.006,-0.0537,-0.0153,-0.0199,-0.0706,-0.0798,0.0828,0.0184,-0.0322,0.0291,0.0706,-0.0844,0.0706,-0.0629,-0.0583,-0.0092,-0.0767,-0.0752,0.066,-0.1198,-0.0214,-0.0328,-0.1757,-0.1839,0.1981,0.0334,-0.0512,0.0745,0.1756,-0.1887,0.1805,-0.1408,-0.1382,0.0202,-0.1891,-0.1773,0.1618,-0.069,0.0143,-0.0655,0.0823,-0.2923,-1.0,0.998,0.8715,-1.0,-1.0,0.9287,-1.0,0.6935,1.0,1.0,-1.0,1.0,-0.1417,1.0,1.0,-1.0,-1.0,1.0,0.0,0.0,0.0,0.0,0.0,0.0,0.0,0.0,0.0,0.0,0.0,0.0,0.0,0
0.28,run,-1.25,-0.53,-4.21,-5.29,-3.59,0.0,0.0,0.0,0.052,-8.35,6.68,93.16,-4.04,9.76,87.01,-3.96,5.89,94.83,9.84,8.7,85.52,-7.12,2.29,93.6,-3.6,10.11,85.87,-12.34,15.5,95.72,-9.28,6.79,91.37,-12.16,9.59,95.2,15.34,4.26,90.75,-4.96,3.14,95.64,-8.57,5.14,91.37,-1.0,1.0,0.5039,-1.0,0.5779,1.0,-1.0,-1.0,-0.7872,1.0,-1.0,1.0,-1.0,0.5116,1.0,-1.0,-1.0,1.0,0.019,0.013,0.006,0.006,0.0,0.0,0.013,0.013,0.013,0.052,0.0,0.039,0.006,0.006,0.006,0.026,0.0,0.006,-0.069,-0.0031,-0.0092,-0.0936,-0.1028,0.1074,0.0092,-0.0245,0.0383,0.092,-0.1074,0.0936,-0.0675,-0.0644,0.0046,-0.0997,-0.0997,0.0859,-0.1415,0.0311,0.0174,-0.2093,-0.2151,0.2308,-0.0112,-0.007,0.0867,0.2035,-0.2185,0.2127,-0.1158,-0.1198,0.066,-0.2188,-0.2162,0.1881,-0.082,0.0292,-0.0681,0.0636,-0.1572,-1.0,1.0,0.1631,-1.0,-0.3218,1.0,-1.0,1.0,1.0,1.0,-1.0,1.0,-0.0342,-0.0685,-0.6644,-1.0,-1.0,1.0,0.0,0.0,0.0,0.0,0.0,0.0,0.0,0.0,0.0,0.0,0.0,0.0,0.0,0
0.32,run,-1.31,-0.53,-2.43,-0.32,4.61,0.0,0.0,0.0,0.052,-9.67,8.26,93.87,-5.36,8.53,88.33,-5.19,7.12,95.54,11.16,7.38,86.92,-6.42,2.11,94.22,-5.01,8.79,87.19,-13.84,14.0,94.22,-10.78,5.29,89.87,-13.66,11.09,96.7,16.84,2.76,92.25,-6.46,1.64,97.14,-10.07,3.64,92.87,-0.4853,-1.0,-0.5309,-1.0,-0.6369,-1.0,-1.0,1.0,1.0,1.0,-1.0,1.0,-1.0,0.0966,1.0,-1.0,-1.0,1.0,0.019,0.013,0.006,0.006,0.0,0.0,0.013,0.013,0.013,0.052,0.0,0.039,0.006,0.006,0.006,0.026,0.0,0.006,-0.0874,0.0031,0.0077,-0.1181,-0.1258,0.1335,-0.0138,-0.0123,0.046,0.1135,-0.1319,0.1181,-0.0675,-0.0752,0.0169,-0.1227,-0.1227,0.1135,-0.1684,0.0449,0.0758,-0.239,-0.2373,0.2599,-0.0945,0.0413,0.0896,0.2234,-0.2454,0.2414,-0.0811,-0.1243,0.0924,-0.2399,-0.2381,0.2357,-0.0976,0.0123,-0.0734,-0.0924,-0.0627,-1.0,1.0,0.5039,-1.0,0.5779,1.0,-1.0,-1.0,-0.7872,1.0,-1.0,1.0,-1.0,0.5116,1.0,-1.0,-1.0,1.0,0.0,0.0,0.0,0.0,0.0,0.0,0.0,0.0,0.0,0.0,0.0,0.0,0.0,0
0.36,run,-1.58,-0.97,-7.8,-9.7,-2.11,0.0,0.0,0.0,0.065,-10.9,9.32,94.66,-6.77,7.38,89.56,-6.68,8.44,96.06,12.66,5.98,88.33,-5.98,1.67,95.1,-6.42,7.47,88.42,-15.34,12.5,95.72,-12.28,3.79,91.37,-15.16,9.59,98.2,18.34,1.26,93.75,-7.96,3.14,95.64,-11.57,2.14,94.37,-1.0,-0.6402,0.7188,-1.0,0.0368,1.0,-1.0,-1.0,1.0,1.0,-1.0,1.0,-1.0,0.6047,-0.0894,-1.0,-1.0,1.0,0.019,0.052,0.006,0.013,0.0,0.0,0.013,0.0,0.006,0.058,0.0,0.065,0.0,0.013,0.013,0.026,0.013,0.033,-0.1104,0.0307,0.0199,-0.1411,-0.1473,0.1565,-0.0353,0.0092,0.0583,0.1365,-0.1549,0.1427,-0.0552,-0.0782,0.0276,-0.1473,-0.1457,0.1365,-0.2036,0.1343,0.0987,-0.253,-0.2461,0.2676,-0.1462,0.1089,0.1084,0.2421,-0.2575,0.2604,-0.011,-0.0984,0.1047,-0.2593,-0.2524,0.2507,-0.1027,0.0123,-0.0424,-0.0055,0.0805,-0.4853,-1.0,-0.5309,-1.0,-0.6369,-1.0,-1.0,1.0,1.0,1.0,-1.0,1.0,-1.0,0.0966,1.0,-1.0,-1.0,1.0,0.0,0.0,0.0,0.0,0.0,0.0,0.0,0.0,0.0,0.0,0.0,0.0,0.0,0
0.4,run,-1.68,-1.53,-3.82,-13.01,-2.05,0.0,0.0,0.0,0.065,-12.22,10.37,95.1,-8.09,6.33,90.53,-8.0,9.49,96.5,13.89,4.57,89.74,-5.89,1.32,95.89,-8.0,6.24,89.82,-16.84,11.0,94.22,-13.78,5.29,89.87,-16.66,8.09,96.7,19.84,-0.24,95.25,-9.46,1.64,97.14,-13.07,0.64,95.87,-1.0,-1.0,-1.0,-1.0,1.0,-0.9549,-1.0,0.121,0.1864,1.0,-1.0,1.0,-1.0,-0.6364,1.0,-1.0,-1.0,0.9207,0.019,0.052,0.006,0.013,0.0,0.0,0.013,0.0,0.006,0.058,0.0,0.065,0.0,0.013,0.013,0.026,0.013,0.033,-0.1319,0.0491,0.0337,-0.1657,-0.1672,0.1779,-0.0614,0.0322,0.0675,0.1626,-0.1795,0.1672,-0.0476,-0.0859,0.043,-0.1718,-0.1687,0.158,-0.2231,0.1631,0.121,-0.2693,-0.2471,0.268,-0.2002,0.1626,0.1105,0.2674,-0.2724,0.2744,0.0211,-0.0977,0.1309,-0.2737,-0.2631,0.2561,-0.126,-0.0262,-0.1362,-0.1693,-0.0369,-1.0,-0.6402,0.7188,-1.0,0.0368,1.0,-1.0,-1.0,1.0,1.0,-1.0,1.0,-1.0,0.6047,-0.0894,-1.0,-1.0,1.0,0.0,0.0,0.0,0.0,0.0,0.0,0.0,0.0,0.0,0.0,0.0,0.0,0.0,0
0.44,run,-1.71,-2.0,-2.14,-11.62,2.13,0.0,0.0,0.0,0.065,-13.54,11.16,95.1,-9.49,5.27,90.97,-9.4,10.28,97.12,15.12,3.08,91.05,-5.89,1.32,96.42,-9.4,5.01,91.23,-18.34,9.5,95.72,-15.28,6.79,88.37,-18.16,6.59,98.2,21.34,-1.74,96.75,-10.96,0.14,98.64,-14.57,-0.86,97.37,-1.0,-1.0,0.4998,-1.0,0.6544,-1.0,-1.0,-0.8255,0.4998,1.0,-1.0,1.0,-1.0,0.0238,1.0,-1.0,-1.0,1.0,0.019,0.052,0.006,0.013,0.0,0.0,0.013,0.0,0.006,0.058,0.0,0.065,0.0,0.013,0.013,0.026,0.013,0.033,-0.1549,0.0675,0.0414,-0.1887,-0.1856,0.1948,-0.0844,0.0506,0.0752,0.1841,-0.204,0.1917,-0.046,-0.092,0.0568,-0.1994,-0.1902,0.1825,-0.2423,0.1831,0.1134,-0.2746,-0.2419,0.2507,-0.2263,0.1827,0.106,0.2675,-0.2825,0.2839,0.0205,-0.0914,0.1433,-0.2949,-0.2645,0.2712,-0.1353,-0.0748,-0.0667,-0.2271,-0.0358,-1.0,-1.0,-1.0,-1.0,1.0,-0.9549,-1.0,0.121,0.1864,1.0,-1.0,1.0,-1.0,-0.6364,1.0,-1.0,-1.0,0.9207,0.0,0.0,0.0,0.0,0.0,0.0,0.0,0.0,0.0,0.0,0.0,0.0,0.0,0
0.48,run,-1.67,-2.5,-0.63,-14.1,5.3,0.0,0.0,0.0,0.091,-14.94,11.87,95.1,-10.37,4.39,91.41,-10.81,10.81,97.56,16.52,1.67,92.37,-6.42,1.23,96.77,-10.9,3.96,92.72,-19.84,8.0,94.22,-16.78,8.29,86.87,-19.66,8.09,99.7,22.84,-3.24,98.25,-12.46,-1.36,100.14,-16.07,-2.36,95.87,-1.0,-1.0,-0.2039,-1.0,1.0,-1.0,-1.0,0.6079,0.8424,1.0,0.0356,1.0,-1.0,-0.3174,1.0,-1.0,-1.0,-0.1675,0.013,0.058,0.0,0.026,0.0,0.006,0.013,0.006,0.006,0.078,0.0,0.091,0.045,0.0,0.045,0.013,0.019,0.013,-0.1779,0.0813,0.0414,-0.2132,-0.204,0.2025,-0.1089,0.0644,0.0859,0.2056,-0.2301,0.2148,-0.046,-0.092,0.066,-0.224,-0.2117,0.2071,-0.2557,0.1798,0.0794,-0.284,-0.2382,0.2042,-0.2502,0.1796,0.1144,0.2676,-0.2953,0.2848,0.0143,-0.0639,0.1347,-0.2983,-0.2655,0.2816,-0.1378,-0.1158,-0.0374,-0.2028,0.0372,-1.0,-1.0,0.4998,-1.0,0.6544,-1.0,-1.0,-0.8255,0.4998,1.0,-1.0,1.0,-1.0,0.0238,1.0,-1.0,-1.0,1.0,0.0,0.0,0.0,0.0,0.0,0.0,0.0,0.0,0.0,0.0,0.0,0.0,0.0,0
0.52,run,-1.49,-2.57,4.78,-4.79,-7.79,0.0,0.0,0.0,0.091,-16.35,12.39,95.1,-12.04,3.87,91.49,-12.22,10.81,98.09,18.02,0.26,93.78,-7.21,0.7,97.65,-12.39,2.29,94.22,-21.34,6.5,92.72,-18.28,6.79,85.37,-21.16,6.59,101.2,24.34,-1.74,99.75,-13.96,-2.86,101.64,-14.57,-3.86,94.37,-1.0,-1.0,-0.5128,-1.0,0.4218,-1.0,-1.0,-1.0,1.0,1.0,1.0,1.0,-1.0,0.1176,1.0,1.0,-1.0,-1.0,0.013,0.058,0.0,0.026,0.0,0.006,0.013,0.006,0.006,0.078,0.0,0.091,0.045,0.0,0.045,0.013,0.019,0.013,-0.2025,0.0936,0.0414,-0.2286,-0.2194,0.2102,-0.1335,0.0736,0.0936,0.2301,-0.2546,0.2378,-0.0552,-0.0936,0.0721,-0.25,-0.2301,0.2332,-0.2707,0.1717,0.0556,-0.2562,-0.2241,0.1716,-0.2669,0.1601,0.1087,0.2791,-0.2985,0.2854,-0.0244,-0.0505,0.1173,-0.3063,-0.2547,0.2946,-0.1343,-0.1598,-0.011,-0.2461,0.0925,-1.0,-1.0,-0.2039,-1.0,1.0,-1.0,-1.0,0.6079,0.8424,1.0,0.0356,1.0,-1.0,-0.3174,1.0,-1.0,-1.0,-0.1675,0.0,0.0,0.0,0.0,0.0,0.0,0.0,0.0,0.0,0.0,0.0,0.0,0.0,0
0.56,run,-1.05,-2.94,12.01,-10.1,-21.16,0.0,0.0,0.0,0.091,-17.67,12.48,94.83,-13.8,3.78,91.05,-13.71,10.63,98.7,19.34,-1.05,95.27,-8.35,-0.26,98.7,-13.8,0.97,95.36,-21.6,5.0,94.22,-19.78,5.29,83.87,-22.66,5.09,102.7,25.84,-0.24,98.25,-15.46,-1.36,103.14,-13.07,-5.36,92.87,-0.6172,-1.0,0.6352,-1.0,-0.4625,-1.0,-1.0,0.1115,1.0,1.0,1.0,0.0487,-1.0,1.0,1.0,1.0,-1.0,-1.0,0.013,0.058,0.0,0.026,0.0,0.006,0.013,0.006,0.006,0.078,0.0,0.091,0.045,0.0,0.045,0.013,0.019,0.013,-0.227,0.1028,0.0414,-0.2577,-0.2286,0.2117,-0.158,0.0736,0.1028,0.2562,-0.2792,0.2623,-0.069,-0.1028,0.0874,-0.2761,-0.2592,0.2592,-0.2822,0.155,0.0389,-0.2894,-0.1916,0.1259,-0.2796,0.1121,0.1109,0.2939,-0.3017,0.2925,-0.0692,-0.0701,0.14,-0.3129,-0.2884,0.3048,-0.1189,-0.166,0.0834,-0.0836,-0.136,-1.0,-1.0,-0.5128,-1.0,0.4218,-1.0,-1.0,-1.0,1.0,1.0,1.0,1.0,-1.0,0.1176,1.0,1.0,-1.0,-1.0,0.0,0.0,0.0,0.0,0.0,0.0,0.0,0.0,0.0,0.0,0.0,0.0,0.0,0
0.6,run,-0.86,-3.62,2.1,-16.65,-26.29,0.0,0.0,0.0,0.091,-19.07,12.48,94.31,-15.82,3.78,90.35,-15.03,9.76,99.58,20.92,-2.2,96.5,-9.84,-1.14,100.02,-14.68,-0.44,96.42,-20.1,3.5,92.72,-21.28,3.79,82.37,-24.16,6.59,104.2,27.34,1.26,96.75,-16.96,0.14,104.64,-11.57,-6.86,91.37,1.0,-1.0,0.2334,-1.0,-1.0,-0.119,-1.0,1.0,1.0,1.0,1.0,-0.4353,-1.0,1.0,0.4988,1.0,-1.0,-1.0,0.006,0.006,0.0,0.0,0.026,0.058,0.013,0.006,0.019,0.078,0.006,0.039,0.091,0.0,0.045,0.0,0.026,0.0,-0.25,0.1043,0.0368,-0.2884,-0.2301,0.204,-0.1841,0.0706,0.1135,0.2792,-0.3022,0.2884,-0.089,-0.1197,0.1058,-0.3007,-0.2823,0.2792,-0.2834,0.1142,0.0101,-0.3171,-0.1399,0.0595,-0.293,0.067,0.1177,0.2916,-0.297,0.302,-0.1228,-0.112,0.1667,-0.3106,-0.2877,0.2877,-0.0804,-0.1983,0.2096,-0.1762,-0.3693,-0.6172,-1.0,0.6352,-1.0,-0.4625,-1.0,-1.0,0.1115,1.0,1.0,1.0,0.0487,-1.0,1.0,1.0,1.0,-1.0,-1.0,0.0,0.0,0.0,0.0,0.0,0.0,0.0,0.0,0.0,0.0,0.0,0.0,0.0,0
0.64,run,-0.36,-5.02,13.5,-34.53,-14.84,0.0,0.0,0.0,0.091,-20.04,12.04,93.96,-16.79,3.78,89.03,-16.44,8.88,100.81,22.41,-2.72,97.65,-11.34,-1.76,101.51,-15.56,-1.85,96.77,-18.6,2.0,94.22,-22.78,2.29,83.87,-25.66,8.09,105.7,28.84,2.76,95.25,-15.46,1.64,103.14,-10.07,-8.36,89.87,0.6279,-1.0,0.7454,-1.0,-0.9841,1.0,-1.0,1.0,1.0,1.0,1.0,-1.0,-0.1854,1.0,-1.0,1.0,-1.0,-1.0,0.006,0.006,0.0,0.0,0.026,0.058,0.013,0.006,0.019,0.078,0.006,0.039,0.091,0.0,0.045,0.0,0.026,0.0,-0.2746,0.1043,0.0276,-0.3237,-0.2301,0.1917,-0.2071,0.0552,0.1289,0.3068,-0.3221,0.3099,-0.115,-0.135,0.1289,-0.316,-0.3068,0.2976,-0.291,0.0799,-0.0277,-0.355,-0.0979,-0.0046,-0.2919,-0.011,0.1402,0.3083,-0.2831,0.2924,-0.1844,-0.1363,0.2035,-0.2753,-0.294,0.2709,-0.064,-0.2577,0.0366,-0.2906,-0.4588,1.0,-1.0,0.2334,-1.0,-1.0,-0.119,-1.0,1.0,1.0,1.0,1.0,-0.4353,-1.0,1.0,0.4988,1.0,-1.0,-1.0,0.0,0.0,0.0,0.0,0.0,0.0,0.0,0.0,0.0,0.0,0.0,0.0,0.0,0
0.68,run,2.55,-5.91,65.63,-20.22,-7.9,0.0,0.0,0.0,0.091,-20.92,11.25,93.25,-18.11,3.87,86.92,-17.84,7.91,102.22,23.91,-3.43,98.35,-12.74,-2.02,102.83,-15.91,-3.25,96.42,-20.1,0.5,92.72,-24.28,0.79,82.37,-27.16,9.59,107.2,30.34,4.26,93.75,-13.96,3.14,101.64,-8.57,-9.86,88.37,-1.0,-1.0,-0.1514,-1.0,-1.0,-0.8587,-1.0,1.0,1.0,1.0,1.0,-1.0,0.9154,1.0,-1.0,1.0,-1.0,-1.0,0.006,0.006,0.0,0.0,0.026,0.058,0.013,0.006,0.019,0.078,0.006,0.039,0.091,0.0,0.045,0.0,0.026,0.0,-0.2915,0.0966,0.0215,-0.3405,-0.2301,0.1687,-0.2316,0.0399,0.1503,0.3329,-0.3313,0.3298,-0.1411,-0.1457,0.1549,-0.3313,-0.3313,0.3037,-0.2673,0.0271,-0.0425,-0.3121,-0.0685,-0.09,-0.2968,-0.0655,0.1791,0.3141,-0.2329,0.2799,-0.2274,-0.1359,0.2407,-0.2505,-0.2983,0.2127,-0.0195,-0.3793,0.2357,-0.6027,-0.2591,0.6279,-1.0,0.7454,-1.0,-0.9841,1.0,-1.0,1.0,1.0,1.0,1.0,-1.0,-0.1854,1.0,-1.0,1.0,-1.0,-1.0,0.0,0.0,0.0,0.0,0.0,0.0,0.0,0.0,0.0,0.0,0.0,0.0,0.0,0
0.72,run,3.31,-7.43,18.11,-40.46,-11.48,0.0,0.0,0.0,0.175,-21.36,10.02,92.9,-19.6,3.78,85.96,-19.16,7.21,103.89,25.4,-3.69,98.79,-14.06,-1.93,103.8,-16.0,-4.66,96.68,-18.6,-1.0,94.22,-25.78,-0.71,83.87,-28.66,11.09,105.7,31.84,5.76,95.25,-15.46,4.64,103.14,-7.07,-11.36,86.87,1.0,-1.0,1.0,-1.0,-1.0,0.5505,-1.0,1.0,-1.0,1.0,1.0,1.0,-1.0,1.0,1.0,1.0,-1.0,-1.0,0.0,0.0,0.0,0.006,0.013,0.026,0.026,0.0,0.006,0.0,0.175,0.019,0.006,0.013,0.0,0.0,0.006,0.0,-0.3068,0.0828,0.0092,-0.3636,-0.2286,0.1319,-0.2562,0.023,0.1749,0.359,-0.3436,0.3421,-0.1657,-0.1503,0.1779,-0.3375,-0.3559,0.2976,-0.2443,-0.0325,-0.0755,-0.3043,-0.0423,-0.2003,-0.2993,-0.1088,0.2169,0.3171,-0.2088,0.2417,-0.2507,-0.1123,0.2543,-0.1982,-0.3003,0.126,0.2341,-0.4569,1.1454,-0.3529,-0.1378,-1.0,-1.0,-0.1514,-1.0,-1.0,-0.8587,-1.0,1.0,1.0,1.0,1.0,-1.0,0.9154,1.0,-1.0,1.0,-1.0,-1.0,0.0,0.0,0.0,0.0,0.0,0.0,0.0,0.0,0.0,0.0,0.0,0.0,0.0,0
0.76,run,2.8,-7.2,-0.41,0.19,1.6,0.0,0.0,0.0,0.175,-18.72,-0.97,94.39,-26.02,-1.32,83.23,-27.77,10.99,106.0,31.9,3.34,94.83,-15.29,4.31,103.1,-7.12,-10.9,87.01,-17.1,-2.5,95.72,-27.28,-2.21,82.37,-30.16,12.59,107.2,33.34,7.26,93.75,-13.96,6.14,101.64,-5.57,-12.86,85.37,1.0,-1.0,1.0,-1.0,-1.0,-1.0,-1.0,1.0,0.9163,1.0,1.0,-1.0,1.0,1.0,0.2614,1.0,-1.0,-1.0,0.0,0.0,0.0,0.006,0.013,0.026,0.026,0.0,0.0,0.0,0.149,0.019,0.006,0.019,0.0,0.0,0.013,0.006,-0.3145,0.0614,0.0031,-0.3896,-0.2301,0.115,-0.2792,0.0107,0.204,0.385,-0.3482,0.3497,-0.1887,-0.1488,0.1948,-0.339,-0.3804,0.3022,-0.1991,-0.1014,-0.0753,-0.3084,-0.0352,-0.2019,-0.2937,-0.121,0.2585,0.3174,-0.163,0.1972,-0.2597,-0.073,0.2398,-0.1444,-0.3,0.1051,0.3003,-0.5903,0.316,-0.7062,-0.2003,1.0,-1.0,1.0,-1.0,-1.0,0.5505,-1.0,1.0,-1.0,1.0,1.0,1.0,-1.0,1.0,1.0,1.0,-1.0,-1.0,0.0,0.0,0.0,0.0,0.0,0.0,0.0,0.0,0.0,0.0,0.0,0.0,0.0,0
0.8,run,2.92,-7.23,-0.17,0.33,0.4,0.0,0.0,0.0,0.175,-18.63,-0.97,94.39,-26.02,-1.32,83.23,-27.77,11.07,106.0,31.9,3.34,94.83,-15.29,4.31,103.1,-7.12,-10.9,87.01,-18.6,-4.0,97.22,-28.78,-3.71,83.87,-28.66,14.09,108.7,34.84,8.76,92.25,-12.46,4.64,100.14,-4.07,-11.36,83.87,-1.0,-1.0,1.0,-1.0,-1.0,1.0,1.0,1.0,1.0,1.0,1.0,-0.4939,1.0,-0.0032,-1.0,1.0,0.4317,-1.0,0.0,0.0,0.0,0.006,0.013,0.026,0.026,0.0,0.0,0.0,0.149,0.019,0.006,0.019,0.0,0.0,0.013,0.006,-0.2684,-0.1304,0.0291,-0.5016,-0.3191,0.0675,-0.4295,0.0767,0.2408,0.4985,-0.2255,0.2807,-0.2102,-0.0399,0.1825,-0.1841,-0.4893,0.1335,-0.1991,-0.1014,-0.0753,-0.3084,-0.0352,-0.2019,-0.2937,-0.121,0.2585,0.3174,-0.163,0.1972,-0.2597,-0.073,0.2398,-0.1444,-0.3,0.1051,0.2559,-0.5698,-0.0072,0.0033,0.0279,1.0,-1.0,1.0,-1.0,-1.0,-1.0,-1.0,1.0,0.9163,1.0,1.0,-1.0,1.0,1.0,0.2614,1.0,-1.0,-1.0,0.0,0.0,0.0,0.0,0.0,0.0,0.0,0.0,0.0,0.0,0.0,0.0,0.0,0
0.84,run,3.17,-7.13,3.08,2.26,1.85,0.0,0.0,0.0,0.175,-18.19,-1.23,94.39,-26.37,-1.76,82.97,-28.04,11.69,105.91,31.99,3.34,94.13,-14.94,4.48,102.66,-6.59,-11.16,86.48,-20.1,-5.5,98.72,-30.28,-5.21,82.37,-27.16,15.59,110.2,33.34,10.26,93.75,-12.82,3.14,98.64,-2.57,-9.86,82.37,-1.0,-1.0,1.0,-1.0,-1.0,-1.0,-0.2592,1.0,1.0,0.8432,1.0,1.0,-0.3664,-0.8562,-0.8219,1.0,1.0,-1.0,0.0,0.0,0.0,0.006,0.013,0.026,0.026,0.0,0.0,0.0,0.149,0.019,0.006,0.019,0.0,0.0,0.013,0.006,-0.2669,-0.1304,0.0291,-0.5016,-0.3191,0.0675,-0.4295,0.0782,0.2408,0.4985,-0.2255,0.2807,-0.2102,-0.0399,0.1825,-0.1841,-0.4893,0.1335,-0.1329,-0.071,-0.0527,-0.2159,-0.0246,-0.1413,-0.2056,-0.0783,0.1809,0.2222,-0.1141,0.1381,-0.1818,-0.0511,0.1678,-0.1011,-0.21,0.0735,0.2664,-0.5725,-0.0029,0.0058,0.007,-1.0,-1.0,1.0,-1.0,-1.0,1.0,1.0,1.0,1.0,1.0,1.0,-0.4939,1.0,-0.0032,-1.0,1.0,0.4317,-1.0,0.0,0.0,0.0,0.0,0.0,0.0,0.0,0.0,0.0,0.0,0.0,0.0,0.0,0
0.88,run,3.47,-6.72,7.45,8.71,2.74,0.0,0.0,0.0,0.26,-18.28,-2.02,95.1,-26.98,-2.46,82.79,-28.21,12.39,106.17,32.87,4.31,93.6,-14.15,4.66,101.78,-5.54,-11.34,85.87,-21.6,-7.0,100.22,-31.78,-6.71,83.87,-28.66,14.09,111.7,34.84,11.76,92.25,-14.32,1.64,100.14,-1.07,-8.36,80.87,-1.0,-1.0,1.0,-1.0,-1.0,1.0,-1.0,0.4925,1.0,1.0,1.0,-1.0,-1.0,0.3181,1.0,1.0,1.0,-1.0,0.006,0.006,0.013,0.006,0.0,0.0,0.013,0.006,0.019,0.006,0.26,0.019,0.0,0.006,0.013,0.013,0.006,0.006,-0.2592,-0.135,0.0291,-0.5077,-0.3267,0.0629,-0.4341,0.089,0.2393,0.5001,-0.2255,0.2684,-0.204,-0.0368,0.1749,-0.1749,-0.4939,0.1243,-0.0643,-0.0669,-0.0369,-0.1741,-0.046,-0.1162,-0.1611,-0.0146,0.1209,0.1613,-0.0799,0.0507,-0.1043,-0.0243,0.0888,-0.0363,-0.1643,0.017,0.2885,-0.5638,0.0537,0.0395,0.0323,-1.0,-1.0,1.0,-1.0,-1.0,-1.0,-0.2592,1.0,1.0,0.8432,1.0,1.0,-0.3664,-0.8562,-0.8219,1.0,1.0,-1.0,0.0,0.0,0.0,0.0,0.0,0.0,0.0,0.0,0.0,0.0,0.0,0.0,0.0,0
0.92,run,3.74,-6.44,0.96,9.55,-0.57,0.0,0.0,0.0,0.26,-18.9,-2.99,95.98,-28.04,-3.34,82.35,-28.21,13.36,107.14,33.4,5.36,92.99,-13.36,4.13,101.07,-4.92,-11.25,84.9,-20.1,-8.5,101.72,-33.28,-8.21,85.37,-27.16,12.59,113.2,34.5,13.26,90.75,-15.82,3.14,100.68,0.43,-6.86,79.37,1.0,-1.0,1.0,-1.0,-1.0,1.0,-0.3096,-1.0,1.0,0.9857,1.0,-1.0,-1.0,1.0,0.4198,1.0,1.0,-1.0,0.006,0.006,0.013,0.006,0.0,0.0,0.013,0.006,0.019,0.006,0.26,0.019,0.0,0.006,0.013,0.013,0.006,0.006,-0.2608,-0.1488,0.0414,-0.5185,-0.339,0.0598,-0.4372,0.1012,0.2439,0.5154,-0.2086,0.2592,-0.1902,-0.0337,0.1595,-0.1565,-0.497,0.1135,-0.0508,-0.0987,0.0203,-0.1622,-0.0783,-0.0929,-0.1243,0.0359,0.1019,0.1705,0.0075,0.0009,-0.0211,-0.0055,0.0045,0.0438,-0.1265,-0.0284,0.3145,-0.5281,0.13,0.1521,0.0479,-1.0,-1.0,1.0,-1.0,-1.0,1.0,-1.0,0.4925,1.0,1.0,1.0,-1.0,-1.0,0.3181,1.0,1.0,1.0,-1.0,0.0,0.0,0.0,0.0,0.0,0.0,0.0,0.0,0.0,0.0,0.0,0.0,0.0,0
0.96,run,4.24,-6.27,11.22,5.6,-4.39,0.0,0.0,0.0,0.26,-19.6,-4.13,96.94,-29.09,-4.66,82.27,-28.21,13.8,108.11,34.1,6.59,92.2,-13.1,3.69,100.46,-3.16,-10.63,83.76,-18.6,-10.0,103.22,-34.78,-9.71,83.87,-25.66,11.09,114.7,33.0,14.76,89.25,-17.32,4.64,99.18,1.93,-5.36,77.87,1.0,-1.0,1.0,-1.0,-1.0,-0.614,0.8102,-1.0,1.0,0.3121,1.0,-1.0,-1.0,1.0,-1.0,1.0,1.0,-1.0,0.006,0.006,0.013,0.006,0.0,0.0,0.013,0.006,0.019,0.006,0.26,0.019,0.0,0.006,0.013,0.013,0.006,0.006,-0.2715,-0.1657,0.0568,-0.5369,-0.3543,0.0522,-0.4372,0.1181,0.2608,0.5246,-0.1902,0.2485,-0.1764,-0.043,0.1473,-0.1457,-0.4955,0.0966,-0.0757,-0.1322,0.0716,-0.1824,-0.1122,-0.0937,-0.087,0.0882,0.1344,0.1538,0.0741,-0.0395,0.0369,-0.0382,-0.0427,0.0708,-0.0828,-0.083,0.3377,-0.5038,0.0168,0.1666,-0.0099,1.0,-1.0,1.0,-1.0,-1.0,1.0,-0.3096,-1.0,1.0,0.9857,1.0,-1.0,-1.0,1.0,0.4198,1.0,1.0,-1.0,0.0,0.0,0.0,0.0,0.0,0.0,0.0,0.0,0.0,0.0,0.0,0.0,0.0,0
1.0,run,4.47,-5.81,0.66,14.58,-11.07,0.0,0.0,0.0,0.26,-19.95,-5.54,98.44,-30.5,-5.98,82.71,-27.95,14.24,109.25,34.45,7.91,91.05,-13.01,3.34,99.93,-1.93,-9.93,82.35,-17.1,-11.5,104.72,-35.0,-11.21,82.37,-24.16,9.59,116.2,31.5,16.26,90.75,-18.82,6.14,97.68,3.43,-3.86,76.37,1.0,-1.0,1.0,-1.0,-1.0,-0.5622,-0.4293,-1.0,1.0,-1.0,1.0,1.0,-1.0,1.0,-0.6792,1.0,1.0,-1.0,0.006,0.006,0.0,0.0,0.0,0.033,0.006,0.026,0.078,0.006,0.26,0.0,0.013,0.006,0.013,0.013,0.019,0.013,-0.2838,-0.1856,0.0736,-0.5553,-0.3774,0.0506,-0.4372,0.1258,0.2777,0.5369,-0.1687,0.2347,-0.1718,-0.0506,0.1365,-0.115,-0.4847,0.0767,-0.099,-0.1674,0.1134,-0.1967,-0.1649,-0.0713,-0.0609,0.0905,0.1574,0.1537,0.1325,-0.0795,0.0431,-0.0555,-0.0702,0.1647,-0.0177,-0.1329,0.3812,-0.4888,0.1959,0.0977,-0.0766,1.0,-1.0,1.0,-1.0,-1.0,-0.614,0.8102,-1.0,1.0,0.3121,1.0,-1.0,-1.0,1.0,-1.0,1.0,1.0,-1.0,0.0,0.0,0.0,0.0,0.0,0.0,0.0,0.0,0.0,0.0,0.0,0.0,0.0,0
1.04,run,4.47,-3.39,-2.5,31.61,-12.09,0.0,0.002,0.0,0.26,-19.42,-8.44,101.34,-32.87,-8.7,83.32,-26.72,13.89,111.8,34.1,10.72,89.3,-14.24,3.69,98.26,0.97,-7.29,79.63,-15.6,-13.0,106.22,-35.0,-9.71,83.87,-25.66,8.09,117.7,30.0,17.76,89.25,-20.32,7.64,99.18,4.93,-2.36,74.87,0.7342,-1.0,1.0,-1.0,1.0,1.0,-0.9756,-1.0,1.0,-1.0,0.8335,-0.439,-1.0,1.0,0.4823,1.0,1.0,-1.0,0.006,0.006,0.0,0.0,0.0,0.033,0.006,0.026,0.078,0.006,0.26,0.0,0.013,0.006,0.013,0.013,0.019,0.013,-0.2899,-0.2102,0.0997,-0.5798,-0.4004,0.0583,-0.4326,0.1335,0.2976,0.543,-0.1457,0.2148,-0.1703,-0.0568,0.1273,-0.0936,-0.4725,0.0522,-0.0924,-0.2093,0.1773,-0.2299,-0.2018,-0.0211,-0.0254,0.0922,0.1851,0.1306,0.1791,-0.1305,0.0359,-0.0619,-0.0837,0.1959,0.0337,-0.1852,0.4012,-0.4483,0.0116,0.2545,-0.1931,1.0,-1.0,1.0,-1.0,-1.0,-0.5622,-0.4293,-1.0,1.0,-1.0,1.0,1.0,-1.0,1.0,-0.6792,1.0,1.0,-1.0,0.0,0.0,0.0,0.0,0.0,0.0,0.0,0.0,0.0,0.0133,0.0,0.0133,0.0,0
1.08,run,4.84,-2.87,11.23,25.21,-13.18,0.0,0.004,0.0,0.26,-19.16,-9.23,102.13,-33.4,-9.32,83.32,-26.28,13.45,112.5,33.84,11.43,89.03,-14.59,3.87,98.26,1.67,-6.42,78.49,-14.1,-14.5,107.72,-35.0,-8.21,85.37,-24.16,6.59,119.2,28.5,16.26,87.75,-21.82,9.14,100.68,6.43,-0.86,73.37,1.0,-0.8975,1.0,-1.0,1.0,1.0,1.0,-1.0,1.0,-1.0,-1.0,-1.0,-1.0,1.0,1.0,0.4852,1.0,0.0669,0.006,0.006,0.0,0.0,0.0,0.033,0.006,0.026,0.078,0.006,0.26,0.0,0.013,0.006,0.013,0.013,0.019,0.013,-0.2807,-0.2608,0.1503,-0.6213,-0.4479,0.069,-0.4111,0.1273,0.3421,0.5369,-0.0966,0.1841,-0.1917,-0.0506,0.0982,-0.043,-0.4264,0.0046,-0.047,-0.2438,0.2214,-0.2405,-0.2326,0.0058,0.0235,0.0527,0.215,0.0797,0.2197,-0.1503,-0.0161,-0.0316,-0.1146,0.2344,0.112,-0.221,0.4014,-0.2377,-0.0437,0.5518,-0.211,0.7342,-1.0,1.0,-1.0,1.0,1.0,-0.9756,-1.0,1.0,-1.0,0.8335,-0.439,-1.0,1.0,0.4823,1.0,1.0,-1.0,0.0,0.0,0.0,0.0,0.0,0.0,0.0,0.0,0.0,0.0267,0.0,0.0267,0.0,0
1.12,run,5.53,-2.44,14.53,11.83,-17.96,0.0,0.006,0.0,0.26,-18.54,-10.63,103.45,-34.28,-10.28,83.32,-25.58,12.48,113.73,32.78,12.66,88.59,-15.73,5.01,97.65,2.9,-5.01,77.7,-12.6,-16.0,109.22,-35.0,-6.71,86.87,-22.66,5.09,120.7,27.0,14.76,89.25,-23.32,10.64,102.18,7.93,0.64,74.87,1.0,-0.8595,1.0,-1.0,1.0,0.3266,1.0,-1.0,1.0,-1.0,-1.0,1.0,-1.0,1.0,1.0,0.5077,1.0,1.0,0.013,0.0,0.013,0.0,0.0,0.078,0.006,0.149,0.091,0.019,0.195,0.019,0.019,0.013,0.006,0.0,0.019,0.013,-0.2761,-0.2746,0.1641,-0.6305,-0.4587,0.069,-0.4034,0.1197,0.3543,0.5323,-0.0844,0.1795,-0.1979,-0.0476,0.0982,-0.0307,-0.4111,-0.0153,-0.0006,-0.2674,0.2517,-0.2328,-0.2381,0.0041,0.0702,-0.0168,0.2365,0.0235,0.2398,-0.1375,-0.0543,-0.0006,-0.0802,0.2501,0.1859,-0.2944,0.4342,-0.1923,0.196,0.44,-0.23,1.0,-0.8975,1.0,-1.0,1.0,1.0,1.0,-1.0,1.0,-1.0,-1.0,-1.0,-1.0,1.0,1.0,0.4852,1.0,0.0669,0.0,0.0,0.0,0.0,0.0,0.0,0.0,0.0,0.0,0.04,0.0,0.04,0.0,0
1.16,run,6.37,-2.38,16.37,3.38,-12.93,0.0,0.008,0.0,0.26,-17.14,-11.87,104.77,-34.72,-10.81,83.67,-24.79,11.25,115.05,31.73,13.62,88.33,-17.23,6.15,97.65,4.48,-3.87,76.2,-11.1,-17.5,110.72,-35.0,-5.21,85.37,-21.16,3.59,122.2,25.5,13.26,90.75,-24.82,12.14,103.68,6.43,2.14,76.37,1.0,-1.0,1.0,-1.0,1.0,-0.6894,-0.1548,-1.0,1.0,-1.0,-1.0,1.0,-1.0,1.0,1.0,-1.0,1.0,1.0,0.013,0.0,0.013,0.0,0.0,0.078,0.006,0.149,0.091,0.019,0.195,0.019,0.019,0.013,0.006,0.0,0.019,0.013,-0.2654,-0.2991,0.1871,-0.6458,-0.4755,0.069,-0.3912,0.1028,0.3758,0.5139,-0.0629,0.1718,-0.2178,-0.0276,0.0874,-0.0092,-0.3866,-0.0291,0.0393,-0.278,0.2613,-0.2197,-0.2291,0.0029,0.0945,-0.0742,0.245,-0.0517,0.2473,-0.1246,-0.1118,0.0734,-0.0959,0.2545,0.2209,-0.2572,0.4944,-0.1548,0.2535,0.2064,-0.3134,1.0,-0.8595,1.0,-1.0,1.0,0.3266,1.0,-1.0,1.0,-1.0,-1.0,1.0,-1.0,1.0,1.0,0.5077,1.0,1.0,0.0,0.0,0.0,0.0,0.0,0.0,0.0,0.0,0.0,0.0533,0.0,0.0533,0.0,0
1.2,run,7.08,-2.09,12.65,10.16,-1.92,0.0,0.01,0.0,0.26,-15.82,-13.18,106.17,-34.89,-11.25,84.38,-23.91,9.76,116.37,30.41,14.5,88.33,-18.63,7.47,98.44,5.62,-2.2,75.15,-9.6,-19.0,112.22,-35.0,-3.71,86.87,-19.66,2.09,123.7,24.0,11.76,92.25,-26.32,13.64,102.18,4.93,3.64,77.87,1.0,-1.0,1.0,-1.0,1.0,1.0,-0.0195,-1.0,1.0,-1.0,0.4433,1.0,-1.0,1.0,-1.0,-1.0,1.0,1.0,0.013,0.0,0.013,0.0,0.0,0.078,0.006,0.149,0.091,0.019,0.195,0.019,0.019,0.013,0.006,0.0,0.019,0.013,-0.2408,-0.3206,0.2102,-0.6535,-0.4847,0.0752,-0.3774,0.0813,0.3988,0.4955,-0.046,0.1672,-0.2439,-0.0077,0.0874,0.0184,-0.3666,-0.0552,0.1202,-0.2757,0.2698,-0.1828,-0.1951,0.0252,0.1183,-0.1331,0.2584,-0.1057,0.2368,-0.1046,-0.1767,0.1267,-0.0671,0.2824,0.23,-0.2785,0.5672,-0.149,0.2858,0.059,-0.2256,1.0,-1.0,1.0,-1.0,1.0,-0.6894,-0.1548,-1.0,1.0,-1.0,-1.0,1.0,-1.0,1.0,1.0,-1.0,1.0,1.0,0.0,0.0,0.0,0.0,0.0,0.0,0.0,0.0,0.0,0.0667,0.0,0.0667,0.0,0
1.24,run,7.52,-1.7,7.43,12.36,-4.88,0.0,0.012,0.0,0.26,-14.41,-14.68,107.67,-34.89,-11.43,84.81,-22.85,8.35,117.69,28.92,15.03,88.33,-20.04,8.79,99.23,6.86,-0.88,74.36,-8.1,-20.5,113.72,-35.0,-2.21,88.37,-18.16,0.59,122.2,22.5,13.26,90.75,-27.82,15.14,100.68,3.43,5.14,79.37,1.0,-1.0,1.0,-1.0,1.0,1.0,1.0,-1.0,0.5438,-1.0,0.7228,0.1568,-1.0,1.0,-0.5382,-1.0,1.0,0.8455,0.019,0.006,0.006,0.0,0.039,0.091,0.013,0.13,0.117,0.019,0.13,0.24,0.006,0.033,0.013,0.0,0.013,0.0,-0.2178,-0.3436,0.2347,-0.6565,-0.4924,0.0874,-0.362,0.0552,0.4218,0.4725,-0.0307,0.1672,-0.2684,0.0153,0.1012,0.0383,-0.3375,-0.0736,0.17,-0.2789,0.2805,-0.1394,-0.1652,0.0634,0.1401,-0.1905,0.2668,-0.1599,0.223,-0.0732,-0.2153,0.1746,0.0045,0.2721,0.2698,-0.2637,0.629,-0.1244,0.2208,0.1774,-0.0335,1.0,-1.0,1.0,-1.0,1.0,1.0,-0.0195,-1.0,1.0,-1.0,0.4433,1.0,-1.0,1.0,-1.0,-1.0,1.0,1.0,0.0,0.0,0.0,0.0,0.0,0.0,0.0,0.0,0.0,0.08,0.0,0.08,0.0,0
1.28,run,7.72,-1.31,1.35,10.83,-9.93,0.0,0.014,0.0,0.26,-13.1,-16.08,109.07,-34.89,-11.43,85.61,-21.71,6.68,119.09,27.6,15.12,88.95,-21.45,10.11,100.11,7.03,0.53,73.83,-6.6,-22.0,115.22,-35.0,-3.71,89.87,-16.66,-0.91,123.7,21.0,11.76,92.25,-29.32,13.64,99.18,1.93,6.64,80.87,1.0,-1.0,1.0,-1.0,0.2797,1.0,1.0,-1.0,1.0,-1.0,0.1219,0.4442,-1.0,-1.0,-0.8786,-1.0,1.0,0.524,0.019,0.006,0.006,0.0,0.039,0.091,0.013,0.13,0.117,0.019,0.13,0.24,0.006,0.033,0.013,0.0,0.013,0.0,-0.1933,-0.3697,0.2608,-0.6565,-0.4955,0.0951,-0.3436,0.0307,0.4449,0.4464,-0.0215,0.1672,-0.293,0.0383,0.115,0.0598,-0.3145,-0.0874,0.2115,-0.2935,0.2946,-0.0976,-0.1272,0.0733,0.1674,-0.2258,0.2735,-0.2102,0.1908,-0.0513,-0.2432,0.2089,0.0552,0.2714,0.2755,-0.2366,0.668,-0.0895,0.1296,0.2156,-0.0851,1.0,-1.0,1.0,-1.0,1.0,1.0,1.0,-1.0,0.5438,-1.0,0.7228,0.1568,-1.0,1.0,-0.5382,-1.0,1.0,0.8455,0.0,0.0,0.0,0.0,0.0,0.0,0.0,0.0,0.0,0.0933,0.0,0.0933,0.0,0
1.32,run,7.98,-0.77,3.16,14.93,-7.72,0.0,0.016,0.0,0.26,-11.69,-17.49,110.48,-34.8,-11.43,86.57,-20.39,4.92,120.32,26.19,15.21,89.65,-22.76,11.16,100.72,8.0,2.02,73.65,-5.1,-23.5,116.72,-35.0,-5.21,91.37,-15.16,-2.41,122.2,19.5,10.26,90.75,-30.82,12.14,97.68,0.43,8.14,82.37,1.0,-1.0,1.0,-1.0,0.2976,1.0,1.0,-1.0,0.2183,-1.0,-0.1925,-0.0917,-1.0,-1.0,-0.072,-1.0,1.0,0.5525,0.019,0.006,0.006,0.0,0.039,0.091,0.013,0.13,0.117,0.019,0.13,0.24,0.006,0.033,0.013,0.0,0.013,0.0,-0.1703,-0.3942,0.2853,-0.6565,-0.4955,0.1089,-0.3237,0.0015,0.4694,0.4234,-0.0199,0.1779,-0.3175,0.0614,0.1304,0.0629,-0.2899,-0.0966,0.2343,-0.2974,0.2982,-0.0683,-0.089,0.1031,0.1919,-0.2673,0.2834,-0.2334,0.1393,0.0044,-0.2623,0.2325,0.0961,0.2015,0.2849,-0.2001,0.6851,-0.0562,0.0236,0.189,-0.1733,1.0,-1.0,1.0,-1.0,0.2797,1.0,1.0,-1.0,1.0,-1.0,0.1219,0.4442,-1.0,-1.0,-0.8786,-1.0,1.0,0.524,0.0,0.0,0.0,0.0,0.0,0.0,0.0,0.0,0.0,0.1067,0.0,0.1067,0.0,0
1.36,run,8.01,-0.25,-1.3,11.49,-15.07,0.0,0.018,0.0,0.26,-10.28,-18.98,111.88,-34.63,-10.9,87.63,-18.81,3.25,121.29,24.7,15.21,90.26,-24.17,12.13,101.16,7.73,3.43,73.83,-3.6,-25.0,118.22,-35.0,-6.71,92.87,-13.66,-3.91,123.7,18.0,8.76,92.25,-32.32,10.64,96.18,-1.07,9.64,83.87,1.0,-1.0,1.0,-1.0,-0.8494,1.0,1.0,-1.0,0.9692,-1.0,-0.5477,0.6863,-1.0,-1.0,0.0374,-1.0,1.0,0.9489,0.026,0.006,0.013,0.013,0.247,0.143,0.013,0.013,0.039,0.019,0.0,0.071,0.019,0.065,0.006,0.0,0.013,0.019,-0.1457,-0.4188,0.3099,-0.655,-0.4955,0.1258,-0.3007,-0.0291,0.4909,0.3988,-0.0184,0.1902,-0.3405,0.0798,0.1411,0.0798,-0.2638,-0.0997,0.2561,-0.3003,0.3008,-0.0421,-0.0623,0.1354,0.2207,-0.3022,0.2789,-0.2554,0.1033,0.0491,-0.2699,0.2318,0.1076,0.2043,0.2972,-0.1516,0.7079,-0.0084,0.0552,0.2605,-0.1348,1.0,-1.0,1.0,-1.0,0.2976,1.0,1.0,-1.0,0.2183,-1.0,-0.1925,-0.0917,-1.0,-1.0,-0.072,-1.0,1.0,0.5525,0.0,0.0,0.0,0.0,0.0,0.0,0.0,0.0,0.0,0.12,0.0,0.12,0.0,0
1.4,run,8.48,0.02,10.21,5.2,-3.59,0.0,0.02,0.0,0.26,-8.7,-20.57,113.55,-34.54,-9.93,89.12,-17.05,1.32,122.17,22.94,14.33,90.88,-25.84,12.92,101.07,7.21,5.1,74.71,-2.1,-26.5,119.72,-33.5,-8.21,94.37,-12.16,-5.41,125.2,16.5,7.26,90.75,-33.82,9.14,94.68,-2.57,11.14,85.37,1.0,-0.2964,1.0,0.2766,-1.0,1.0,1.0,-1.0,1.0,-1.0,-1.0,-0.0147,-1.0,-1.0,-0.2521,-1.0,1.0,1.0,0.026,0.006,0.013,0.013,0.247,0.143,0.013,0.013,0.039,0.019,0.0,0.071,0.019,0.065,0.006,0.0,0.013,0.019,-0.1212,-0.4449,0.3344,-0.6519,-0.4863,0.1442,-0.273,-0.0583,0.5077,0.3728,-0.0184,0.201,-0.3651,0.0966,0.1488,0.0752,-0.2393,-0.0966,0.2708,-0.3074,0.3021,-0.018,-0.0093,0.1634,0.2574,-0.3202,0.2582,-0.276,0.0723,0.0744,-0.2804,0.2252,0.1039,0.1259,0.2996,-0.0947,0.7107,0.0366,-0.0228,0.2005,-0.2631,1.0,-1.0,1.0,-1.0,-0.8494,1.0,1.0,-1.0,0.9692,-1.0,-0.5477,0.6863,-1.0,-1.0,0.0374,-1.0,1.0,0.9489,0.0,0.0,0.0,0.0,0.0,0.0,0.0,0.0,0.0,0.1333,0.0,0.1333,0.0,0
1.44,run,8.65,-0.29,3.61,-7.29,-4.35,0.0,0.022,0.0,0.26,-7.29,-21.88,114.96,-34.54,-9.32,90.0,-16.26,0.0,122.52,21.53,13.18,91.23,-27.16,13.27,100.37,6.06,6.33,75.41,-0.6,-28.0,121.22,-32.0,-9.71,95.87,-10.66,-6.91,126.7,15.0,5.76,89.25,-35.0,7.64,93.18,-4.07,12.64,86.87,1.0,-1.0,0.7396,1.0,-1.0,1.0,1.0,-1.0,1.0,-1.0,0.0528,-0.009,-1.0,-1.0,-1.0,-1.0,1.0,1.0,0.026,0.006,0.013,0.013,0.247,0.143,0.013,0.013,0.039,0.019,0.0,0.071,0.019,0.065,0.006,0.0,0.013,0.019,-0.0936,-0.4725,0.3636,-0.6504,-0.4694,0.1703,-0.2424,-0.092,0.5231,0.3421,-0.0337,0.2117,-0.3942,0.1104,0.1473,0.066,-0.2102,-0.0813,0.2763,-0.302,0.3031,-0.0078,0.0465,0.1964,0.2766,-0.3302,0.229,-0.2897,0.0024,0.0858,-0.2879,0.201,0.0679,0.0592,0.3013,-0.018,0.7519,0.0605,0.1781,0.0908,-0.0627,1.0,-0.2964,1.0,0.2766,-1.0,1.0,1.0,-1.0,1.0,-1.0,-1.0,-0.0147,-1.0,-1.0,-0.2521,-1.0,1.0,1.0,0.0,0.0,0.0,0.0,0.0,0.0,0.0,0.0,0.0,0.1467,0.0,0.1467,0.0,0
1.48,run,8.65,-1.12,1.02,-19.4,-9.78,0.0,0.024,0.0,0.292,-5.71,-23.29,116.37,-34.54,-8.88,91.05,-14.94,-1.32,122.96,20.13,11.87,91.23,-28.65,13.36,99.58,5.01,7.56,76.9,-2.1,-29.5,119.72,-30.5,-11.21,97.37,-9.16,-8.41,128.2,13.5,7.26,87.75,-35.0,6.14,91.68,-5.57,14.14,88.37,-0.1398,-1.0,0.1636,1.0,-1.0,1.0,1.0,-1.0,1.0,-1.0,1.0,-1.0,-1.0,-1.0,-1.0,-1.0,1.0,1.0,0.0,0.013,0.019,0.013,0.292,0.273,0.013,0.026,0.052,0.013,0.0,0.0,0.026,0.0,0.039,0.013,0.026,0.013,-0.069,-0.4955,0.3881,-0.6504,-0.4587,0.1856,-0.2286,-0.115,0.5292,0.3175,-0.0537,0.2178,-0.4172,0.1166,0.135,0.046,-0.1887,-0.069,0.2846,-0.2968,0.3033,-0.0054,0.0724,0.1944,0.2449,-0.3166,0.183,-0.2939,-0.0724,0.0829,-0.287,0.1635,0.002,-0.0326,0.2907,0.0329,0.766,0.0334,0.063,-0.1272,-0.0759,1.0,-1.0,0.7396,1.0,-1.0,1.0,1.0,-1.0,1.0,-1.0,0.0528,-0.009,-1.0,-1.0,-1.0,-1.0,1.0,1.0,0.0,0.0,0.0,0.0,0.0,0.0,0.0,0.0,0.0,0.16,0.0,0.16,0.0,0
1.52,run,8.84,-1.42,2.19,-6.37,-18.55,0.0,0.026,0.0,0.292,-4.22,-24.79,117.77,-34.63,-8.79,92.46,-13.45,-2.64,123.66,18.54,10.46,90.7,-30.32,13.27,98.35,3.52,9.14,78.31,-3.6,-31.0,118.22,-29.0,-12.71,98.87,-7.66,-9.91,129.7,12.0,8.76,86.25,-35.0,4.64,90.18,-7.07,15.64,89.87,-1.0,-1.0,-0.2138,1.0,-1.0,1.0,1.0,-1.0,1.0,-1.0,1.0,-0.4951,-1.0,-1.0,-1.0,-1.0,1.0,1.0,0.0,0.013,0.019,0.013,0.292,0.273,0.013,0.026,0.052,0.013,0.0,0.0,0.026,0.0,0.039,0.013,0.026,0.013,-0.0414,-0.52,0.4126,-0.6504,-0.451,0.204,-0.2056,-0.1381,0.5369,0.293,-0.0767,0.2178,-0.4433,0.1181,0.1212,0.0276,-0.1672,-0.043,0.3026,-0.2997,0.3042,-0.0038,0.0794,0.205,0.2576,-0.3078,0.1568,-0.2976,-0.1368,0.058,-0.2985,0.1202,-0.0503,-0.0917,0.2839,0.1207,0.7668,-0.0397,0.0179,-0.3386,-0.1708,-0.1398,-1.0,0.1636,1.0,-1.0,1.0,1.0,-1.0,1.0,-1.0,1.0,-1.0,-1.0,-1.0,-1.0,-1.0,1.0,1.0,0.0,0.0,0.0,0.0,0.0,0.0,0.0,0.0,0.0,0.1733,0.0,0.1733,0.0,0
1.56,run,9.03,-1.79,0.19,-5.21,-3.69,0.0,0.028,0.0,0.292,-3.16,-25.75,118.92,-33.75,-8.79,93.69,-12.22,-3.69,124.54,17.14,9.32,89.91,-31.82,12.66,96.94,2.11,10.55,79.63,-5.1,-32.5,116.72,-27.5,-14.21,100.37,-6.16,-11.41,131.2,10.5,10.26,84.75,-35.0,3.14,88.68,-8.57,17.14,91.37,-1.0,-1.0,-0.4009,1.0,-1.0,1.0,1.0,-1.0,1.0,-1.0,1.0,0.0636,-1.0,-1.0,-0.8716,-1.0,0.9441,1.0,0.0,0.013,0.019,0.013,0.292,0.273,0.013,0.026,0.052,0.013,0.0,0.0,0.026,0.0,0.039,0.013,0.026,0.013,-0.0153,-0.5461,0.4372,-0.6519,-0.4495,0.2286,-0.1795,-0.1611,0.5492,0.2654,-0.1012,0.2086,-0.4725,0.1166,0.0997,0.0015,-0.1396,-0.0184,0.3056,-0.3035,0.3012,-0.0082,0.0611,0.2318,0.2741,-0.2982,0.1539,-0.3076,-0.184,0.0075,-0.3138,0.0786,-0.1124,-0.158,0.298,0.1727,0.7827,-0.0659,0.0382,-0.1112,-0.3237,-1.0,-1.0,-0.2138,1.0,-1.0,1.0,1.0,-1.0,1.0,-1.0,1.0,-0.4951,-1.0,-1.0,-1.0,-1.0,1.0,1.0,0.0,0.0,0.0,0.0,0.0,0.0,0.0,0.0,0.0,0.1867,0.0,0.1867,0.0,0
1.6,run,8.4,-2.21,-16.53,-8.84,12.59,0.0,0.03,0.0,0.331,-2.37,-27.33,119.71,-32.78,-8.79,95.01,-10.9,-5.19,125.77,15.82,8.35,88.77,-33.13,11.69,95.71,0.7,11.87,81.04,-6.6,-34.0,115.22,-26.0,-15.71,101.87,-4.66,-12.91,132.7,9.0,11.76,83.25,-35.0,1.64,87.18,-10.07,15.64,92.87,-1.0,-1.0,-0.7435,1.0,-1.0,1.0,1.0,-1.0,1.0,-1.0,1.0,0.0171,-1.0,-1.0,-0.5698,-1.0,-0.5,1.0,0.006,0.019,0.0,0.071,0.039,0.331,0.026,0.052,0.058,0.019,0.0,0.0,0.006,0.006,0.084,0.019,0.026,0.019,0.0031,-0.563,0.4571,-0.6366,-0.4495,0.25,-0.158,-0.1795,0.5645,0.2408,-0.1212,0.1948,-0.4985,0.1058,0.0752,-0.023,-0.115,0.0046,0.2825,-0.2754,0.2851,0.0514,0.0428,0.2423,0.2719,-0.2773,0.1649,-0.3068,-0.2031,-0.0462,-0.3168,0.015,-0.1702,-0.2021,0.3001,0.2067,0.7992,-0.098,0.0033,-0.0909,-0.0644,-1.0,-1.0,-0.4009,1.0,-1.0,1.0,1.0,-1.0,1.0,-1.0,1.0,0.0636,-1.0,-1.0,-0.8716,-1.0,0.9441,1.0,0.0,0.0,0.0,0.0,0.0,0.0,0.0,0.0,0.0,0.2,0.0,0.2,0.0,0
1.64,run,7.12,-2.49,-38.0,-8.67,12.55,0.0,0.032,0.0,0.331,-2.37,-28.74,120.23,-31.46,-8.79,96.5,-9.32,-6.94,127.18,14.59,7.65,87.36,-33.93,10.28,93.6,-0.7,13.01,82.44,-8.1,-35.5,113.72,-24.5,-17.21,103.37,-3.16,-14.41,134.2,7.5,13.26,84.75,-35.0,0.14,88.68,-11.57,14.14,94.37,-1.0,-1.0,-0.8788,1.0,-1.0,1.0,1.0,-1.0,1.0,-1.0,1.0,1.0,-1.0,-1.0,0.3889,-1.0,-1.0,1.0,0.006,0.019,0.0,0.071,0.039,0.331,0.026,0.052,0.058,0.019,0.0,0.0,0.006,0.006,0.084,0.019,0.026,0.019,0.0169,-0.5906,0.4709,-0.6197,-0.4495,0.273,-0.135,-0.2056,0.586,0.2178,-0.1381,0.1749,-0.5216,0.089,0.0537,-0.0476,-0.092,0.0291,0.2499,-0.297,0.2517,0.0997,0.0299,0.2564,0.2772,-0.2926,0.1965,-0.3016,-0.2059,-0.1076,-0.3086,-0.0532,-0.2002,-0.2341,0.2969,0.2373,0.7444,-0.1348,-0.2884,-0.1542,0.2197,-1.0,-1.0,-0.7435,1.0,-1.0,1.0,1.0,-1.0,1.0,-1.0,1.0,0.0171,-1.0,-1.0,-0.5698,-1.0,-0.5,1.0,0.0,0.0,0.0,0.0,0.0,0.0,0.0,0.0,0.0,0.2133,0.0,0.2133,0.0,0
1.68,run,6.54,-2.84,-11.81,-11.93,5.41,0.0,0.034,0.0,0.331,-2.02,-30.32,120.76,-30.15,-9.67,98.0,-7.91,-8.44,128.58,13.36,7.38,85.96,-34.45,8.88,92.55,-2.11,13.97,83.85,-9.6,-37.0,112.22,-23.0,-18.71,104.87,-1.66,-15.91,135.7,6.0,11.76,86.25,-35.0,-1.36,90.18,-13.07,12.64,95.87,-1.0,-0.415,-0.4905,1.0,-1.0,1.0,1.0,-1.0,1.0,-1.0,-0.2389,0.9397,-1.0,-1.0,1.0,-1.0,-1.0,1.0,0.006,0.019,0.0,0.071,0.039,0.331,0.026,0.052,0.058,0.019,0.0,0.0,0.006,0.006,0.084,0.019,0.026,0.019,0.0169,-0.6151,0.4801,-0.5967,-0.4495,0.2991,-0.1074,-0.2362,0.6105,0.1963,-0.1503,0.1503,-0.5354,0.0644,0.0169,-0.0721,-0.0721,0.0537,0.1749,-0.2999,0.2107,0.1561,0.021,0.2773,0.2976,-0.3199,0.2296,-0.2917,-0.1901,-0.1674,-0.2678,-0.1293,-0.2782,-0.2559,0.2826,0.2582,0.6328,-0.1586,-0.6632,-0.1513,0.2191,-1.0,-1.0,-0.8788,1.0,-1.0,1.0,1.0,-1.0,1.0,-1.0,1.0,1.0,-1.0,-1.0,0.3889,-1.0,-1.0,1.0,0.0,0.0,0.0,0.0,0.0,0.0,0.0,0.0,0.0,0.2267,0.0,0.2267,0.0,0
1.72,run,6.14,-2.89,-15.68,-4.94,8.93,0.0,0.036,0.0,0.331,-2.72,-31.55,120.41,-28.92,-10.9,99.67,-6.33,-9.76,130.08,12.13,7.29,84.9,-34.89,7.47,91.05,-3.6,14.59,85.34,-11.1,-38.5,110.72,-21.5,-20.21,106.37,-0.16,-17.41,137.2,4.5,10.26,87.75,-33.5,-2.86,91.68,-14.57,11.14,97.37,-1.0,-0.3133,-1.0,1.0,-1.0,1.0,1.0,-1.0,1.0,-1.0,-0.01,1.0,-0.5602,-1.0,1.0,-1.0,-1.0,1.0,0.0,0.019,0.006,0.091,0.0,0.208,0.033,0.065,0.065,0.078,0.026,0.0,0.006,0.006,0.006,0.006,0.052,0.033,0.023,-0.6427,0.4893,-0.5737,-0.4648,0.3252,-0.0828,-0.2623,0.6351,0.1749,-0.1549,0.1258,-0.5446,0.0399,-0.0015,-0.0966,-0.0552,0.0782,0.1453,-0.313,0.1818,0.1951,-0.0426,0.2914,0.2999,-0.3212,0.2523,-0.2843,-0.1503,-0.2087,-0.2218,-0.1821,-0.2634,-0.2707,0.2608,0.2723,0.5826,-0.1896,-0.2061,-0.2082,0.0944,-1.0,-0.415,-0.4905,1.0,-1.0,1.0,1.0,-1.0,1.0,-1.0,-0.2389,0.9397,-1.0,-1.0,1.0,-1.0,-1.0,1.0,0.0,0.0,0.0,0.0,0.0,0.0,0.0,0.0,0.0,0.24,0.0,0.24,0.0,0
1.76,run,6.12,-3.01,-8.28,-5.17,1.03,0.0,0.038,0.0,0.331,-3.43,-33.05,119.62,-27.6,-12.04,101.34,-5.19,-10.9,131.48,10.81,7.21,84.2,-34.89,6.42,89.91,-5.01,14.94,86.57,-12.6,-37.0,109.22,-20.0,-21.71,107.87,1.34,-18.91,138.7,3.0,8.76,89.25,-32.0,-4.36,93.18,-16.07,9.64,98.87,-1.0,0.24,-1.0,1.0,-1.0,1.0,1.0,-1.0,1.0,-1.0,-1.0,1.0,0.3233,-1.0,1.0,-1.0,-1.0,1.0,0.0,0.019,0.006,0.091,0.0,0.208,0.033,0.065,0.065,0.078,0.026,0.0,0.006,0.006,0.006,0.006,0.052,0.033,0.0107,-0.6642,0.4832,-0.5522,-0.4863,0.3543,-0.0552,-0.2853,0.6611,0.1534,-0.1565,0.1074,-0.5522,0.0153,-0.0276,-0.1227,-0.0445,0.1043,0.0557,-0.2996,0.1043,0.2171,-0.1103,0.3133,0.3134,-0.3111,0.2744,-0.2795,-0.1109,-0.2151,-0.184,-0.2195,-0.2822,-0.2873,0.2228,0.2884,0.547,-0.1935,-0.2736,-0.0863,0.1558,-1.0,-0.3133,-1.0,1.0,-1.0,1.0,1.0,-1.0,1.0,-1.0,-0.01,1.0,-0.5602,-1.0,1.0,-1.0,-1.0,1.0,0.0,0.0,0.0,0.0,0.0,0.0,0.0,0.0,0.0,0.2533,0.0,0.2533,0.0,0
1.8,run,6.2,-2.45,-1.53,8.94,-11.7,0.0,0.04,0.0,0.331,-4.57,-34.45,118.65,-26.37,-13.36,102.83,-3.87,-11.95,132.71,9.58,7.38,83.67,-34.28,4.83,89.21,-6.33,15.03,87.98,-14.1,-35.5,107.72,-18.5,-23.21,109.37,2.84,-20.41,140.2,1.5,7.26,90.75,-30.5,-5.86,94.68,-17.57,8.14,100.37,-1.0,0.8654,-1.0,1.0,-1.0,1.0,1.0,-1.0,1.0,-1.0,-0.8864,1.0,1.0,-1.0,1.0,-1.0,-1.0,1.0,0.0,0.019,0.006,0.091,0.0,0.208,0.033,0.065,0.065,0.078,0.026,0.0,0.006,0.006,0.006,0.006,0.052,0.033,-0.0015,-0.6903,0.4694,-0.5292,-0.5062,0.3835,-0.0353,-0.3053,0.6857,0.1304,-0.158,0.0951,-0.5522,-0.0031,-0.0476,-0.1473,-0.0383,0.1258,-0.0072,-0.3078,0.0211,0.2385,-0.1522,0.3289,0.2944,-0.2928,0.2844,-0.2822,-0.0834,-0.1968,-0.1288,-0.2229,-0.2725,-0.2934,0.1791,0.2827,0.5452,-0.2038,-0.1445,-0.0903,0.0179,-1.0,0.24,-1.0,1.0,-1.0,1.0,1.0,-1.0,1.0,-1.0,-1.0,1.0,0.3233,-1.0,1.0,-1.0,-1.0,1.0,0.0,0.0,0.0,0.0,0.0,0.0,0.0,0.0,0.0,0.2667,0.0,0.2667,0.0,0
1.84,run,6.08,-2.46,-3.17,0.1,-13.09,0.0,0.042,0.0,0.331,-5.98,-35.6,117.42,-25.14,-14.77,104.24,-2.29,-13.18,133.77,8.26,7.73,83.41,-33.49,3.52,88.86,-7.82,14.94,89.38,-15.6,-34.0,106.22,-17.0,-24.71,110.87,4.34,-21.91,141.7,-0.0,5.76,92.25,-29.0,-7.36,96.18,-19.07,6.64,101.87,-1.0,1.0,-1.0,1.0,-1.0,1.0,1.0,-1.0,1.0,-1.0,-1.0,1.0,1.0,-1.0,1.0,-1.0,-1.0,1.0,0.013,0.019,0.013,0.175,0.0,0.156,0.026,0.214,0.143,0.111,0.058,0.045,0.019,0.019,0.006,0.019,0.0,0.039,-0.0215,-0.7148,0.4525,-0.5077,-0.5292,0.4096,-0.0123,-0.3237,0.7072,0.1089,-0.1549,0.0859,-0.5415,-0.0307,-0.0598,-0.1703,-0.0368,0.1503,-0.0794,-0.307,-0.0482,0.2471,-0.1924,0.3275,0.2919,-0.2736,0.2792,-0.2777,-0.047,-0.1721,-0.0501,-0.259,-0.2365,-0.2912,0.1311,0.2894,0.5522,-0.1555,-0.0266,0.1561,-0.2042,-1.0,0.8654,-1.0,1.0,-1.0,1.0,1.0,-1.0,1.0,-1.0,-0.8864,1.0,1.0,-1.0,1.0,-1.0,-1.0,1.0,0.0,0.0,0.0,0.0,0.0,0.0,0.0,0.0,0.0,0.28,0.0,0.28,0.0,0
1.88,run,6.29,-2.77,1.37,-5.11,-22.13,0.0,0.044,0.0,0.331,-7.47,-36.47,116.02,-23.55,-16.17,105.73,-0.79,-14.41,134.65,6.94,7.82,83.58,-32.34,2.2,88.86,-9.23,14.68,90.62,-17.1,-32.5,104.72,-15.5,-26.21,112.37,5.84,-23.41,143.2,-1.5,4.26,93.75,-27.5,-8.86,97.68,-20.57,5.14,103.37,-1.0,1.0,-1.0,1.0,-1.0,1.0,1.0,-1.0,1.0,-1.0,-1.0,1.0,1.0,-0.8072,1.0,-1.0,-1.0,1.0,0.013,0.019,0.013,0.175,0.0,0.156,0.026,0.214,0.143,0.111,0.058,0.045,0.019,0.019,0.006,0.019,0.0,0.039,-0.046,-0.7348,0.431,-0.4863,-0.5538,0.4341,0.0153,-0.3451,0.7256,0.0859,-0.1488,0.0813,-0.5277,-0.0537,-0.066,-0.1963,-0.0383,0.1749,-0.1477,-0.2898,-0.1143,0.2535,-0.2268,0.3214,0.308,-0.2721,0.2645,-0.2807,-0.0098,-0.1377,0.0167,-0.2677,-0.1886,-0.3017,0.086,0.2947,0.5423,-0.1563,-0.0554,0.0017,-0.2284,-1.0,1.0,-1.0,1.0,-1.0,1.0,1.0,-1.0,1.0,-1.0,-1.0,1.0,1.0,-1.0,1.0,-1.0,-1.0,1.0,0.0,0.0,0.0,0.0,0.0,0.0,0.0,0.0,0.0,0.2933,0.0,0.2933,0.0,0
1.92,run,7.46,-3.2,28.23,-13.72,-13.36,0.0,0.046,0.0,0.331,-8.7,-37.18,114.7,-21.97,-17.67,107.31,0.62,-16.79,135.35,5.36,7.82,84.2,-31.11,0.79,89.38,-10.9,13.89,92.02,-18.6,-31.0,103.22,-14.0,-27.71,113.87,7.34,-24.91,141.7,-3.0,2.76,95.25,-26.0,-8.49,99.18,-22.07,3.64,104.87,-1.0,1.0,-1.0,1.0,-1.0,1.0,1.0,-1.0,0.4503,-1.0,-1.0,1.0,1.0,0.3002,1.0,-1.0,-1.0,1.0,0.013,0.019,0.013,0.175,0.0,0.156,0.026,0.214,0.143,0.111,0.058,0.045,0.019,0.019,0.006,0.019,0.0,0.039,-0.0721,-0.7501,0.4065,-0.4587,-0.5783,0.4602,0.0414,-0.3666,0.7409,0.0629,-0.1473,0.0844,-0.5077,-0.0767,-0.066,-0.2209,-0.043,0.1963,-0.2018,-0.2607,-0.1726,0.2817,-0.2514,0.3234,0.314,-0.2715,0.243,-0.2833,-0.0011,-0.0848,0.087,-0.2742,-0.132,-0.3038,0.0428,0.2873,0.5601,-0.1832,0.024,-0.0892,-0.3862,-1.0,1.0,-1.0,1.0,-1.0,1.0,1.0,-1.0,1.0,-1.0,-1.0,1.0,1.0,-0.8072,1.0,-1.0,-1.0,1.0,0.0,0.0,0.0,0.0,0.0,0.0,0.0,0.0,0.0,0.3067,0.0,0.3067,0.0,0
1.96,run,7.61,-3.62,2.89,-7.87,-4.72,0.0,0.048,0.0,0.52,-10.37,-37.35,113.12,-20.65,-18.98,108.63,2.2,-18.72,135.97,3.78,7.56,85.08,-29.53,-0.7,90.26,-12.13,12.57,93.78,-17.1,-29.5,101.72,-12.5,-29.21,115.37,8.84,-26.41,140.2,-4.5,1.26,96.75,-24.5,-6.99,100.68,-23.57,2.14,106.37,0.7518,1.0,-1.0,1.0,-1.0,0.843,1.0,-0.1263,-1.0,-1.0,-0.9191,1.0,1.0,1.0,1.0,-1.0,-1.0,1.0,0.0,0.006,0.006,0.117,0.0,0.189,0.006,0.0,0.52,0.084,0.0,0.143,0.019,0.019,0.019,0.013,0.0,0.026,-0.0936,-0.7624,0.3835,-0.431,-0.6044,0.4878,0.066,-0.408,0.7532,0.0353,-0.1473,0.0951,-0.4863,-0.1012,-0.0568,-0.25,-0.0568,0.2209,-0.2214,-0.2283,-0.2067,0.3002,-0.2733,0.3294,0.3114,-0.3446,0.2159,-0.3014,-0.0008,-0.0193,0.141,-0.2835,-0.0581,-0.3214,-0.0215,0.2927,0.6622,-0.2211,0.4927,-0.2395,-0.2332,-1.0,1.0,-1.0,1.0,-1.0,1.0,1.0,-1.0,0.4503,-1.0,-1.0,1.0,1.0,0.3002,1.0,-1.0,-1.0,1.0,0.0,0.0,0.0,0.0,0.0,0.0,0.0,0.0,0.0,0.32,0.0,0.32,0.0,0
2.0,run,6.95,-3.34,-18.08,2.59,7.31,0.0,0.05,0.0,0.52,-11.51,-37.35,111.71,-19.34,-20.39,110.04,3.43,-20.21,136.32,2.55,6.68,86.04,-28.12,-2.11,91.41,-13.54,11.25,95.19,-15.6,-28.0,100.22,-11.0,-30.71,116.87,10.34,-24.91,138.7,-6.0,-0.24,95.25,-23.0,-5.49,102.18,-25.07,0.64,107.87,1.0,1.0,-1.0,1.0,-1.0,1.0,1.0,1.0,-1.0,-1.0,-1.0,0.3316,1.0,1.0,1.0,-1.0,-1.0,1.0,0.0,0.006,0.006,0.117,0.0,0.189,0.006,0.0,0.52,0.084,0.0,0.143,0.019,0.019,0.019,0.013,0.0,0.026,-0.1227,-0.7655,0.3559,-0.408,-0.6274,0.5108,0.0936,-0.4418,0.7639,0.0077,-0.1519,0.1104,-0.4587,-0.1273,-0.0414,-0.2715,-0.0798,0.2516,-0.2641,-0.1713,-0.2481,0.2963,-0.2774,0.3167,0.3213,-0.3676,0.1913,-0.3143,-0.0178,0.0439,0.2021,-0.2961,0.0168,-0.3054,-0.1012,0.3197,0.6757,-0.2571,0.0505,-0.1374,-0.0824,0.7518,1.0,-1.0,1.0,-1.0,0.843,1.0,-0.1263,-1.0,-1.0,-0.9191,1.0,1.0,1.0,1.0,-1.0,-1.0,1.0,0.0,0.0,0.0,0.0,0.0,0.0,0.0,0.0,0.0,0.3333,0.0,0.3333,0.0,0
2.04,run,6.66,-2.43,-6.82,17.45,1.35,0.0,0.05,0.0,0.52,-13.01,-37.09,110.3,-17.93,-21.88,111.45,4.92,-21.45,136.58,1.32,5.45,87.36,-26.72,-3.43,92.72,-14.85,9.67,96.59,-14.1,-26.5,98.72,-9.5,-32.21,118.37,11.84,-23.41,137.2,-7.5,-1.74,93.75,-21.5,-3.99,100.68,-26.57,-0.86,109.37,1.0,1.0,-1.0,1.0,-1.0,1.0,1.0,1.0,-1.0,-1.0,-1.0,-0.4947,1.0,1.0,0.2892,-1.0,-1.0,1.0,0.0,0.006,0.006,0.117,0.0,0.189,0.006,0.0,0.52,0.084,0.0,0.143,0.019,0.019,0.019,0.013,0.0,0.026,-0.1427,-0.7655,0.3313,-0.385,-0.6519,0.5354,0.115,-0.4679,0.7701,-0.0138,-0.1672,0.1273,-0.4341,-0.1519,-0.0215,-0.2961,-0.1028,0.2761,-0.2598,-0.1199,-0.2658,0.2938,-0.2864,0.3139,0.3056,-0.3553,0.157,-0.3007,-0.0701,0.0941,0.2336,-0.2995,0.0866,-0.306,-0.1573,0.316,0.6177,-0.2333,-0.3155,0.0452,0.1275,1.0,1.0,-1.0,1.0,-1.0,1.0,1.0,1.0,-1.0,-1.0,-1.0,0.3316,1.0,1.0,1.0,-1.0,-1.0,1.0,0.0,0.0,0.0,0.0,0.0,0.0,0.0,0.0,0.0,0.3333,0.0,0.3333,0.0,0
2.08,run,6.71,-1.58,0.93,16.66,-6.6,0.0,0.05,0.0,0.78,-14.06,-36.04,108.9,-16.52,-23.29,112.85,6.33,-22.85,136.58,-0.18,3.96,88.95,-25.31,-4.48,94.22,-16.26,8.09,98.0,-12.6,-25.0,97.22,-8.0,-33.71,119.87,13.34,-21.91,135.7,-9.0,-3.24,92.25,-20.0,-2.49,102.18,-28.07,-2.36,110.87,1.0,1.0,-1.0,0.0565,-1.0,1.0,1.0,1.0,-1.0,-1.0,-1.0,0.2462,1.0,1.0,0.8646,-1.0,-0.4232,1.0,0.0,0.013,0.006,0.143,0.0,0.175,0.019,0.006,0.78,0.117,0.0,0.136,0.006,0.006,0.013,0.026,0.0,0.026,-0.1687,-0.7609,0.3068,-0.3605,-0.678,0.5599,0.1411,-0.4893,0.7747,-0.0353,-0.1887,0.1503,-0.4096,-0.1749,0.0015,-0.3191,-0.1304,0.3007,-0.2804,-0.0665,-0.2789,0.2985,-0.2991,0.3125,0.3125,-0.3299,0.1273,-0.2917,-0.1302,0.1529,0.2563,-0.2966,0.1476,-0.3012,-0.2145,0.314,0.5928,-0.154,-0.1191,0.3045,0.0235,1.0,1.0,-1.0,1.0,-1.0,1.0,1.0,1.0,-1.0,-1.0,-1.0,-0.4947,1.0,1.0,0.2892,-1.0,-1.0,1.0,0.0,0.0,0.0,0.0,0.0,0.0,0.0,0.0,0.0,0.3333,0.0,0.3333,0.0,0
2.12,run,6.29,-1.45,-11.34,3.89,-13.09,0.0,0.05,0.0,0.78,-14.85,-34.89,107.49,-15.12,-24.7,114.26,7.82,-23.73,136.58,-1.76,2.72,90.26,-23.91,-5.36,95.62,-17.67,6.77,99.23,-11.1,-23.5,95.72,-9.5,-35.21,121.37,14.84,-20.41,134.2,-10.5,-4.74,93.75,-18.5,-0.99,100.68,-29.57,-3.86,112.37,1.0,1.0,-0.715,-1.0,-1.0,1.0,1.0,0.3765,-1.0,-1.0,-1.0,0.6356,1.0,1.0,0.041,-1.0,0.1145,1.0,0.0,0.013,0.006,0.143,0.0,0.175,0.019,0.006,0.78,0.117,0.0,0.136,0.006,0.006,0.013,0.026,0.0,0.026,-0.1871,-0.7424,0.2823,-0.3359,-0.7026,0.5844,0.1657,-0.5139,0.7747,-0.0614,-0.2148,0.1779,-0.385,-0.1933,0.0276,-0.3436,-0.158,0.3252,-0.2648,0.0219,-0.2865,0.3002,-0.3006,0.3101,0.3101,-0.3222,0.0891,-0.3012,-0.1882,0.2097,0.2707,-0.2761,0.2004,-0.3021,-0.2529,0.3111,0.597,-0.0798,0.0163,0.2908,-0.1152,1.0,1.0,-1.0,0.0565,-1.0,1.0,1.0,1.0,-1.0,-1.0,-1.0,0.2462,1.0,1.0,0.8646,-1.0,-0.4232,1.0,0.0,0.0,0.0,0.0,0.0,0.0,0.0,0.0,0.0,0.3333,0.0,0.3333,0.0,0
2.16,run,6.05,-1.07,-10.5,11.41,-21.49,0.0,0.05,0.0,0.78,-15.47,-33.57,106.0,-13.71,-26.1,115.75,9.23,-24.43,136.58,-3.16,1.23,91.32,-22.5,-5.8,97.03,-19.07,5.27,100.63,-9.6,-22.0,94.22,-11.0,-36.71,122.87,16.34,-18.91,132.7,-12.0,-6.24,92.25,-17.0,0.51,99.18,-31.07,-5.36,113.87,1.0,1.0,0.2062,-1.0,-1.0,1.0,1.0,1.0,-1.0,-1.0,-1.0,0.1184,1.0,1.0,-1.0,-1.0,-0.6035,1.0,0.0,0.013,0.006,0.143,0.0,0.175,0.019,0.006,0.78,0.117,0.0,0.136,0.006,0.006,0.013,0.026,0.0,0.026,-0.201,-0.7225,0.2577,-0.3114,-0.7271,0.609,0.1917,-0.5292,0.7747,-0.089,-0.2362,0.201,-0.3605,-0.2086,0.0522,-0.3682,-0.181,0.3467,-0.2371,0.0901,-0.2925,0.3021,-0.3024,0.309,0.3148,-0.283,0.0624,-0.3143,-0.2122,0.233,0.2815,-0.2508,0.2322,-0.3035,-0.2632,0.2982,0.5601,-0.068,-0.198,0.0679,-0.2284,1.0,1.0,-0.715,-1.0,-1.0,1.0,1.0,0.3765,-1.0,-1.0,-1.0,0.6356,1.0,1.0,0.041,-1.0,0.1145,1.0,0.0,0.0,0.0,0.0,0.0,0.0,0.0,0.0,0.0,0.3333,0.0,0.3333,0.0,0
2.2,run,6.19,-0.74,0.57,7.85,-23.94,0.0,0.05,0.0,0.78,-15.47,-32.17,104.59,-12.3,-27.42,117.16,10.63,-24.79,136.58,-4.66,-0.09,92.11,-21.09,-5.98,98.26,-20.57,3.87,101.95,-8.1,-20.5,95.72,-12.5,-38.21,124.37,17.84,-20.41,131.2,-13.5,-7.74,93.75,-15.5,2.01,97.68,-32.57,-6.86,115.37,1.0,1.0,0.5367,-1.0,-1.0,1.0,1.0,-0.0229,-1.0,-1.0,-1.0,1.0,1.0,1.0,-1.0,-1.0,-0.4268,1.0,0.006,0.013,0.013,0.104,0.0,0.143,0.019,0.006,0.227,0.071,0.0,0.078,0.013,0.0,0.006,0.019,0.0,0.045,-0.2117,-0.6995,0.2316,-0.2869,-0.7517,0.6351,0.2163,-0.5415,0.7747,-0.1135,-0.2623,0.2194,-0.3359,-0.2163,0.0767,-0.3927,-0.2071,0.3712,-0.2063,0.1494,-0.3027,0.3036,-0.3038,0.3142,0.3125,-0.2442,0.0437,-0.3121,-0.2464,0.2322,0.2892,-0.2043,0.2547,-0.3046,-0.2822,0.3009,0.539,-0.0348,-0.1832,0.1991,-0.375,1.0,1.0,0.2062,-1.0,-1.0,1.0,1.0,1.0,-1.0,-1.0,-1.0,0.1184,1.0,1.0,-1.0,-1.0,-0.6035,1.0,0.0,0.0,0.0,0.0,0.0,0.0,0.0,0.0,0.0,0.3333,0.0,0.3333,0.0,0
2.24,run,6.15,-0.37,-3.2,7.15,-16.67,0.0,0.05,0.0,0.78,-15.38,-31.29,103.27,-11.43,-28.83,118.65,12.04,-24.61,136.58,-6.24,-1.32,92.72,-19.69,-5.8,99.23,-21.97,2.37,103.36,-6.6,-19.0,97.22,-14.0,-39.71,125.87,19.34,-21.91,129.7,-12.0,-9.24,95.25,-14.0,3.51,96.18,-34.07,-8.36,113.87,1.0,1.0,1.0,-1.0,-1.0,1.0,1.0,-0.0795,-1.0,-0.2677,-1.0,1.0,1.0,1.0,-1.0,-1.0,-0.7388,-0.0335,0.006,0.013,0.013,0.104,0.0,0.143,0.019,0.006,0.227,0.071,0.0,0.078,0.013,0.0,0.006,0.019,0.0,0.045,-0.2117,-0.675,0.2071,-0.2623,-0.7747,0.6596,0.2408,-0.5476,0.7747,-0.1396,-0.2853,0.2332,-0.3114,-0.2194,0.0982,-0.4188,-0.2316,0.3942,-0.1444,0.1965,-0.3038,0.3045,-0.2989,0.3119,0.3107,-0.1939,0.0306,-0.3162,-0.2587,0.2143,0.2944,-0.1545,0.2587,-0.3109,-0.2895,0.2968,0.5518,-0.0058,0.0099,0.137,-0.4178,1.0,1.0,0.5367,-1.0,-1.0,1.0,1.0,-0.0229,-1.0,-1.0,-1.0,1.0,1.0,1.0,-1.0,-1.0,-0.4268,1.0,0.0,0.0,0.0,0.0,0.0,0.0,0.0,0.0,0.0,0.3333,0.0,0.3333,0.0,0
2.28,run,5.96,-0.18,-6.69,3.99,-11.38,0.0,0.05,0.0,0.78,-14.41,-29.71,101.87,-10.72,-30.23,120.15,13.45,-24.08,136.58,-7.65,-2.55,93.08,-18.28,-5.1,99.84,-23.38,1.05,104.59,-5.1,-17.5,98.72,-15.5,-41.21,124.37,20.84,-23.41,128.2,-10.5,-10.74,96.75,-12.5,5.01,94.68,-35.0,-9.86,112.37,1.0,1.0,1.0,-1.0,-1.0,-0.8909,1.0,-0.572,-1.0,1.0,-1.0,1.0,0.703,1.0,-1.0,-1.0,-1.0,-1.0,0.006,0.013,0.013,0.104,0.0,0.143,0.019,0.006,0.227,0.071,0.0,0.078,0.013,0.0,0.006,0.019,0.0,0.045,-0.2102,-0.6596,0.1841,-0.247,-0.7992,0.6857,0.2654,-0.5446,0.7747,-0.1672,-0.3068,0.2439,-0.2869,-0.2163,0.115,-0.4433,-0.2577,0.4188,-0.0953,0.1951,-0.2989,0.2706,-0.3012,0.316,0.3094,-0.1242,0.0214,-0.3248,-0.2616,0.1902,0.298,-0.0967,0.2443,-0.3096,-0.3003,0.2998,0.548,0.0258,-0.0558,0.1248,-0.2909,1.0,1.0,1.0,-1.0,-1.0,1.0,1.0,-0.0795,-1.0,-0.2677,-1.0,1.0,1.0,1.0,-1.0,-1.0,-0.7388,-0.0335,0.0,0.0,0.0,0.0,0.0,0.0,0.0,0.0,0.0,0.3333,0.0,0.3333,0.0,0
2.32,run,5.73,-0.08,-7.8,3.39,-12.17,0.0,0.05,0.0,0.78,-13.54,-28.3,100.55,-10.37,-31.64,121.38,14.85,-23.47,135.97,-8.96,-4.04,93.78,-17.05,-4.13,100.28,-24.79,-0.35,105.82,-3.6,-16.0,100.22,-17.0,-42.71,122.87,22.34,-24.91,126.7,-9.0,-12.24,98.25,-14.0,6.51,93.18,-35.0,-11.36,110.87,1.0,0.6375,1.0,-1.0,-1.0,-1.0,0.9736,-1.0,-1.0,1.0,-1.0,1.0,-1.0,1.0,-1.0,-1.0,-1.0,-1.0,0.019,0.033,0.013,0.019,0.0,0.097,0.026,0.006,0.0,0.026,0.0,0.058,0.019,0.045,0.006,0.033,0.0,0.065,-0.1933,-0.632,0.1595,-0.2347,-0.8237,0.7118,0.2899,-0.5354,0.7747,-0.1917,-0.3283,0.25,-0.2623,-0.204,0.1258,-0.4679,-0.2807,0.4403,-0.0034,0.2402,-0.3014,0.2355,-0.303,0.3191,0.3088,-0.0524,0.015,-0.3195,-0.2637,0.1562,0.3008,-0.0216,0.2114,-0.3089,-0.2966,0.2905,0.5315,0.0431,-0.1168,0.0696,-0.1986,1.0,1.0,1.0,-1.0,-1.0,-0.8909,1.0,-0.572,-1.0,1.0,-1.0,1.0,0.703,1.0,-1.0,-1.0,-1.0,-1.0,0.0,0.0,0.0,0.0,0.0,0.0,0.0,0.0,0.0,0.3333,0.0,0.3333,0.0,0
2.36,run,5.84,-0.23,1.54,-5.51,-5.07,0.0,0.05,0.0,0.78,-12.57,-26.98,99.49,-10.28,-32.96,122.52,16.26,-23.47,135.0,-10.02,-5.36,94.75,-15.82,-3.08,100.28,-26.19,-1.58,107.14,-2.1,-17.5,101.72,-18.5,-44.21,121.37,20.84,-26.41,125.2,-7.5,-13.74,99.75,-15.5,8.01,91.68,-33.5,-12.86,109.37,1.0,-0.6336,1.0,-1.0,-1.0,-1.0,-1.0,-1.0,-1.0,1.0,-1.0,1.0,-1.0,1.0,-1.0,-0.1999,-1.0,-1.0,0.019,0.033,0.013,0.019,0.0,0.097,0.026,0.006,0.0,0.026,0.0,0.058,0.019,0.045,0.006,0.033,0.0,0.065,-0.1779,-0.6075,0.1365,-0.2286,-0.8483,0.7332,0.3145,-0.5246,0.7639,-0.2148,-0.3543,0.2623,-0.2408,-0.1871,0.1335,-0.4924,-0.3053,0.4617,0.0551,0.2601,-0.2972,0.1878,-0.304,0.3039,0.3081,0.0035,-0.0297,-0.3099,-0.2823,0.1553,0.291,0.0481,0.1767,-0.3082,-0.2996,0.2838,0.5118,0.0518,-0.1362,0.0591,-0.2123,1.0,0.6375,1.0,-1.0,-1.0,-1.0,0.9736,-1.0,-1.0,1.0,-1.0,1.0,-1.0,1.0,-1.0,-1.0,-1.0,-1.0,0.0,0.0,0.0,0.0,0.0,0.0,0.0,0.0,0.0,0.3333,0.0,0.3333,0.0,0
2.4,run,6.16,-0.58,5.99,-9.32,7.65,0.0,0.05,0.0,0.78,-10.9,-25.58,98.7,-10.28,-34.28,123.22,17.58,-23.55,134.03,-10.81,-6.77,95.98,-14.85,-1.67,99.76,-27.6,-2.9,108.37,-0.6,-19.0,103.22,-20.0,-45.71,119.87,19.34,-24.91,123.7,-6.0,-15.24,101.25,-17.0,9.51,90.18,-32.0,-14.36,107.87,1.0,-1.0,1.0,-1.0,-1.0,-0.3319,-1.0,0.1601,-1.0,1.0,-1.0,1.0,-1.0,1.0,-0.8841,-0.8339,-1.0,-1.0,0.019,0.033,0.013,0.019,0.0,0.097,0.026,0.006,0.0,0.026,0.0,0.058,0.019,0.045,0.006,0.033,0.0,0.065,-0.1611,-0.5844,0.1181,-0.227,-0.8713,0.7532,0.339,-0.5246,0.747,-0.2332,-0.3774,0.2792,-0.2194,-0.1687,0.1335,-0.517,-0.3267,0.4847,0.1019,0.2684,-0.277,0.1372,-0.2991,0.2875,0.3077,0.0025,-0.0841,-0.2859,-0.2839,0.172,0.2842,0.1027,0.1237,-0.3078,-0.2902,0.2849,0.5209,0.0382,0.0269,-0.0961,-0.0884,1.0,-0.6336,1.0,-1.0,-1.0,-1.0,-1.0,-1.0,-1.0,1.0,-1.0,1.0,-1.0,1.0,-1.0,-0.1999,-1.0,-1.0,0.0,0.0,0.0,0.0,0.0,0.0,0.0,0.0,0.0,0.3333,0.0,0.3333,0.0,0
2.44,run,6.44,-0.74,5.67,-5.16,12.39,0.0,0.05,0.0,0.78,-9.49,-24.26,98.17,-10.99,-35.68,123.66,18.72,-24.35,132.89,-11.34,-8.17,97.47,-14.06,-0.35,99.14,-29.0,-4.22,109.34,0.9,-20.5,104.72,-21.5,-47.21,118.37,17.84,-26.41,122.2,-4.5,-16.74,102.75,-18.5,11.01,88.68,-30.5,-15.86,106.37,1.0,-1.0,1.0,-1.0,-1.0,-0.5152,-1.0,-0.6139,-1.0,1.0,-1.0,1.0,-1.0,1.0,-1.0,-0.6701,-1.0,-1.0,0.013,0.045,0.0,0.013,0.0,0.033,0.013,0.006,0.006,0.006,0.0,0.033,0.019,0.045,0.019,0.019,0.006,0.019,-0.1319,-0.5599,0.1043,-0.227,-0.8943,0.7655,0.362,-0.5262,0.7302,-0.247,-0.4019,0.3007,-0.2025,-0.1442,0.1243,-0.5415,-0.3497,0.5062,0.1801,0.2795,-0.2455,0.0961,-0.2953,0.2471,0.3013,-0.004,-0.1219,-0.2517,-0.2904,0.2006,0.262,0.1635,0.0522,-0.3071,-0.2891,0.2796,0.5492,0.0081,0.1045,-0.1627,0.1335,1.0,-1.0,1.0,-1.0,-1.0,-0.3319,-1.0,0.1601,-1.0,1.0,-1.0,1.0,-1.0,1.0,-0.8841,-0.8339,-1.0,-1.0,0.0,0.0,0.0,0.0,0.0,0.0,0.0,0.0,0.0,0.3333,0.0,0.3333,0.0,0
2.48,run,6.73,-0.95,6.73,-5.76,5.99,0.0,0.05,0.0,0.78,-8.17,-23.03,98.0,-11.95,-37.0,123.84,19.6,-24.96,131.84,-11.43,-9.49,98.88,-13.62,0.97,98.09,-30.23,-5.45,110.04,2.4,-22.0,106.22,-23.0,-48.71,116.87,16.34,-24.91,120.7,-3.0,-18.24,104.25,-20.0,12.51,87.18,-29.0,-17.36,104.87,1.0,-1.0,1.0,-1.0,-1.0,-0.6895,-1.0,0.2882,-1.0,1.0,-1.0,1.0,-1.0,1.0,-1.0,0.142,-1.0,-1.0,0.013,0.045,0.0,0.013,0.0,0.033,0.013,0.006,0.006,0.006,0.0,0.033,0.019,0.045,0.019,0.019,0.006,0.019,-0.1074,-0.5369,0.0951,-0.2393,-0.9189,0.7731,0.382,-0.54,0.7102,-0.2562,-0.4264,0.3267,-0.1887,-0.1212,0.1135,-0.566,-0.3728,0.5231,0.2182,0.282,-0.2064,0.0212,-0.2988,0.2017,0.2857,-0.0546,-0.1601,-0.2107,-0.2954,0.2383,0.2352,0.2008,-0.0037,-0.3071,-0.2887,0.2591,0.5735,-0.0065,0.099,-0.0901,0.2163,1.0,-1.0,1.0,-1.0,-1.0,-0.5152,-1.0,-0.6139,-1.0,1.0,-1.0,1.0,-1.0,1.0,-1.0,-0.6701,-1.0,-1.0,0.0,0.0,0.0,0.0,0.0,0.0,0.0,0.0,0.0,0.3333,0.0,0.3333,0.0,0
2.52,run,7.22,-1.24,11.44,-7.28,4.97,0.0,0.05,0.0,0.78,-6.86,-22.06,98.0,-12.66,-38.41,123.66,20.21,-25.66,130.78,-11.07,-10.81,100.28,-13.54,2.29,96.77,-31.11,-6.24,110.39,3.9,-23.5,107.72,-24.5,-50.21,115.37,14.84,-23.41,119.2,-1.5,-19.74,105.75,-21.5,14.01,85.68,-27.5,-18.86,103.37,1.0,-1.0,1.0,-1.0,-1.0,-1.0,-1.0,0.4672,-1.0,1.0,-1.0,1.0,-1.0,1.0,-1.0,1.0,-1.0,-1.0,0.013,0.045,0.0,0.013,0.0,0.033,0.013,0.006,0.006,0.006,0.0,0.033,0.019,0.045,0.019,0.019,0.006,0.019,-0.0844,-0.5154,0.092,-0.2562,-0.9419,0.7762,0.3973,-0.5507,0.6918,-0.2577,-0.4495,0.3513,-0.181,-0.0982,0.0951,-0.5875,-0.3942,0.5354,0.2395,0.2783,-0.156,-0.0488,-0.2959,0.1528,0.2578,-0.0787,-0.1815,-0.1533,-0.2935,0.2593,0.1935,0.2273,-0.072,-0.2959,-0.2831,0.2276,0.5987,-0.0247,0.1175,-0.1005,0.1045,1.0,-1.0,1.0,-1.0,-1.0,-0.6895,-1.0,0.2882,-1.0,1.0,-1.0,1.0,-1.0,1.0,-1.0,0.142,-1.0,-1.0,0.0,0.0,0.0,0.0,0.0,0.0,0.0,0.0,0.0,0.3333,0.0,0.3333,0.0,0
2.56,run,7.7,-1.38,10.27,-4.45,2.98,0.0,0.05,0.0,0.78,-5.45,-21.27,98.53,-14.33,-39.81,123.05,20.48,-26.02,129.46,-10.63,-12.22,101.78,-13.89,3.78,95.45,-31.64,-7.65,110.39,5.4,-25.0,109.22,-26.0,-51.71,113.87,13.34,-21.91,117.7,-0.0,-21.24,107.25,-23.0,15.51,84.18,-26.0,-20.36,101.87,1.0,-1.0,1.0,-1.0,-0.9909,-1.0,-1.0,1.0,-1.0,1.0,-1.0,1.0,-1.0,1.0,-1.0,1.0,-1.0,-1.0,0.019,0.033,0.013,0.026,0.0,0.013,0.0,0.013,0.019,0.026,0.006,0.026,0.019,0.045,0.033,0.0,0.019,0.019,-0.0614,-0.4985,0.092,-0.2684,-0.9664,0.7731,0.408,-0.563,0.6734,-0.2516,-0.4725,0.3758,-0.1795,-0.0752,0.0721,-0.6029,-0.408,0.5415,0.2535,0.2578,-0.1092,-0.0799,-0.2987,0.0955,0.2206,-0.1009,-0.1958,-0.0844,-0.2913,0.2731,0.1412,0.245,-0.1363,-0.2644,-0.2497,0.1822,0.6417,-0.0498,0.1996,-0.127,0.0868,1.0,-1.0,1.0,-1.0,-1.0,-1.0,-1.0,0.4672,-1.0,1.0,-1.0,1.0,-1.0,1.0,-1.0,1.0,-1.0,-1.0,0.0,0.0,0.0,0.0,0.0,0.0,0.0,0.0,0.0,0.3333,0.0,0.3333,0.0,0
2.6,run,8.05,-1.5,6.6,-3.86,1.38,0.0,0.05,0.0,0.78,-4.04,-20.74,99.49,-15.82,-41.13,122.08,20.48,-26.1,128.06,-9.4,-13.54,103.27,-14.68,5.1,94.04,-31.9,-9.14,110.3,3.9,-26.5,110.72,-27.5,-50.21,112.37,11.84,-20.41,116.2,1.5,-22.74,108.75,-24.5,17.01,82.68,-24.5,-21.86,100.37,0.0656,-1.0,1.0,-1.0,-0.2271,-1.0,-1.0,0.4265,-1.0,1.0,-1.0,1.0,-1.0,1.0,-1.0,1.0,-0.6768,-1.0,0.019,0.033,0.013,0.026,0.0,0.013,0.0,0.013,0.019,0.026,0.006,0.026,0.019,0.045,0.033,0.0,0.019,0.019,-0.0368,-0.4847,0.1012,-0.2976,-0.991,0.7624,0.4126,-0.5691,0.6504,-0.2439,-0.497,0.4019,-0.1856,-0.0491,0.0491,-0.6121,-0.4326,0.5415,0.2694,0.2322,-0.042,-0.1651,-0.301,0.0266,0.1716,-0.0936,-0.2232,-0.0304,-0.2959,0.2889,0.0759,0.2692,-0.1816,-0.2195,-0.2667,0.1276,0.6834,-0.0621,0.1792,-0.0776,0.052,1.0,-1.0,1.0,-1.0,-0.9909,-1.0,-1.0,1.0,-1.0,1.0,-1.0,1.0,-1.0,1.0,-1.0,1.0,-1.0,-1.0,0.0,0.0,0.0,0.0,0.0,0.0,0.0,0.0,0.0,0.3333,0.0,0.3333,0.0,0
2.64,run,8.41,-1.52,8.24,-1.43,2.27,0.0,0.05,0.0,0.78,-2.72,-20.57,100.37,-17.14,-42.54,120.94,20.13,-25.75,126.65,-8.0,-14.68,104.77,-15.73,6.5,92.72,-31.55,-10.46,109.07,2.4,-28.0,112.22,-29.0,-48.71,110.87,10.34,-18.91,114.7,3.0,-24.24,110.25,-26.0,18.51,81.18,-23.0,-22.21,98.87,-0.1287,-1.0,1.0,-1.0,0.4676,-1.0,-1.0,0.6212,-1.0,1.0,-1.0,1.0,-1.0,1.0,-1.0,1.0,0.0507,-1.0,0.019,0.033,0.013,0.026,0.0,0.013,0.0,0.013,0.019,0.026,0.006,0.026,0.019,0.045,0.033,0.0,0.019,0.019,-0.0123,-0.4755,0.1181,-0.3237,-1.014,0.7455,0.4126,-0.5706,0.6259,-0.2224,-0.52,0.428,-0.1994,-0.0261,0.0245,-0.6167,-0.4587,0.54,0.2806,0.1971,0.0339,-0.2134,-0.297,-0.0447,0.1201,-0.0713,-0.2483,0.0593,-0.2934,0.3,0.0013,0.2747,-0.2192,-0.1709,-0.2845,0.0835,0.7139,-0.0724,0.1153,-0.0673,0.0242,0.0656,-1.0,1.0,-1.0,-0.2271,-1.0,-1.0,0.4265,-1.0,1.0,-1.0,1.0,-1.0,1.0,-1.0,1.0,-0.6768,-1.0,0.0,0.0,0.0,0.0,0.0,0.0,0.0,0.0,0.0,0.3333,0.0,0.3333,0.0,0
2.68,run,9.48,-1.46,26.41,3.17,7.67,0.0,0.05,0.0,0.78,-1.41,-20.57,102.04,-18.63,-43.86,119.18,19.42,-25.05,125.33,-6.59,-16.08,106.35,-16.96,8.0,91.32,-30.94,-11.95,107.75,0.9,-29.5,113.72,-30.5,-47.21,109.37,8.84,-20.41,113.2,4.5,-25.74,111.75,-27.5,20.01,79.68,-21.5,-20.71,97.37,-0.3822,-1.0,1.0,-1.0,1.0,-1.0,-1.0,-0.3721,-1.0,1.0,-1.0,1.0,-1.0,1.0,-1.0,1.0,0.9355,-1.0,0.026,0.0,0.013,0.026,0.0,0.013,0.006,0.013,0.039,0.013,0.0,0.019,0.019,0.052,0.033,0.019,0.039,0.019,0.0107,-0.4725,0.1335,-0.3467,-1.0385,0.7256,0.4065,-0.5645,0.6013,-0.1979,-0.54,0.4541,-0.2178,-0.0015,0.0015,-0.6105,-0.4817,0.5185,0.2827,0.1494,0.0813,-0.2357,-0.3,-0.106,0.0611,-0.0269,-0.2658,0.1335,-0.2802,0.3078,-0.0681,0.2843,-0.2397,-0.0966,-0.2854,-0.0221,0.7454,-0.0741,0.1439,-0.025,0.0396,-0.1287,-1.0,1.0,-1.0,0.4676,-1.0,-1.0,0.6212,-1.0,1.0,-1.0,1.0,-1.0,1.0,-1.0,1.0,0.0507,-1.0,0.0,0.0,0.0,0.0,0.0,0.0,0.0,0.0,0.0,0.3333,0.0,0.3333,0.0,0
2.72,run,10.16,-1.31,15.7,1.87,2.39,0.0,0.05,0.0,0.78,-0.18,-20.92,103.36,-20.04,-45.09,118.04,17.58,-24.08,124.01,-5.19,-17.75,107.58,-18.37,9.49,89.82,-29.88,-13.36,106.35,2.4,-31.0,115.22,-32.0,-45.71,107.87,7.34,-21.91,111.7,6.0,-27.24,113.25,-29.0,21.51,78.18,-20.0,-19.21,95.87,1.0,-1.0,1.0,-1.0,0.4524,-1.0,-1.0,-1.0,-1.0,1.0,-0.8338,1.0,-1.0,1.0,-0.2708,1.0,1.0,-1.0,0.026,0.0,0.013,0.026,0.0,0.013,0.006,0.013,0.039,0.013,0.0,0.019,0.019,0.052,0.033,0.019,0.039,0.019,0.0337,-0.4725,0.1626,-0.3728,-1.0615,0.6949,0.3942,-0.5522,0.5783,-0.1733,-0.5645,0.4817,-0.2393,0.0245,-0.023,-0.5998,-0.5077,0.4955,0.2842,0.1046,0.1662,-0.2628,-0.2963,-0.1893,-0.0033,0.0272,-0.2724,0.1855,-0.2882,0.319,-0.1282,0.2969,-0.2599,-0.0274,-0.2976,-0.1017,0.8384,-0.0688,0.461,0.0554,0.1339,-0.3822,-1.0,1.0,-1.0,1.0,-1.0,-1.0,-0.3721,-1.0,1.0,-1.0,1.0,-1.0,1.0,-1.0,1.0,0.9355,-1.0,0.0,0.0,0.0,0.0,0.0,0.0,0.0,0.0,0.0,0.3333,0.0,0.3333,0.0,0
2.76,run,10.53,-1.16,9.94,5.49,-2.65,0.0,0.05,0.0,0.78,0.7,-21.71,104.77,-21.45,-46.05,116.54,16.7,-22.85,122.61,-3.78,-19.07,109.07,-19.69,10.9,88.24,-28.48,-14.77,105.03,3.9,-32.5,116.72,-33.5,-44.21,106.37,5.84,-23.41,110.2,7.5,-28.74,114.75,-30.5,23.01,76.68,-18.5,-17.71,94.37,1.0,-1.0,1.0,-1.0,0.6426,-1.0,-1.0,-1.0,-1.0,1.0,-0.23,1.0,-1.0,1.0,-0.8301,1.0,1.0,-1.0,0.026,0.0,0.013,0.026,0.0,0.013,0.006,0.013,0.039,0.013,0.0,0.019,0.019,0.052,0.033,0.019,0.039,0.019,0.0552,-0.4786,0.1856,-0.3973,-1.083,0.675,0.362,-0.5354,0.5553,-0.1488,-0.5937,0.5031,-0.2638,0.0506,-0.0491,-0.5814,-0.5323,0.4709,0.2799,0.0501,0.2031,-0.2765,-0.2884,-0.2077,-0.1238,0.0827,-0.2775,0.2224,-0.3116,0.3043,-0.1823,0.3061,-0.2802,0.0503,-0.3009,-0.1638,0.8983,-0.0561,0.2739,0.0327,0.0417,1.0,-1.0,1.0,-1.0,0.4524,-1.0,-1.0,-1.0,-1.0,1.0,-0.8338,1.0,-1.0,1.0,-0.2708,1.0,1.0,-1.0,0.0,0.0,0.0,0.0,0.0,0.0,0.0,0.0,0.0,0.3333,0.0,0.3333,0.0,0
2.8,run,11.6,0.37,8.09,14.2,-4.12,0.0,0.05,0.0,0.78,3.52,-25.49,108.81,-25.58,-47.29,112.41,12.57,-21.01,118.74,0.35,-23.03,113.2,-23.64,14.85,84.02,-24.52,-17.84,100.9,5.4,-34.0,118.22,-35.0,-42.71,104.87,4.34,-24.91,108.7,9.0,-27.24,116.25,-32.0,24.51,75.18,-17.0,-16.21,92.87,1.0,-1.0,1.0,-1.0,1.0,-1.0,-1.0,-1.0,-1.0,1.0,0.7645,1.0,-1.0,1.0,-0.7596,1.0,1.0,-1.0,0.019,0.0,0.026,0.026,0.0,0.013,0.0,0.0,0.039,0.013,0.019,0.006,0.039,0.104,0.019,0.019,0.019,0.013,0.0706,-0.4924,0.2102,-0.4218,-1.0999,0.6489,0.3467,-0.5139,0.5308,-0.1243,-0.6167,0.5292,-0.2869,0.0752,-0.0767,-0.5568,-0.5568,0.4479,0.2532,-0.0165,0.2338,-0.2852,-0.2649,-0.2428,-0.1439,0.1381,-0.2859,0.2473,-0.3041,0.3104,-0.2135,0.3059,-0.2993,0.1268,-0.3023,-0.2006,0.9306,-0.0432,0.1735,0.0959,-0.0462,1.0,-1.0,1.0,-1.0,0.6426,-1.0,-1.0,-1.0,-1.0,1.0,-0.23,1.0,-1.0,1.0,-0.8301,1.0,1.0,-1.0,0.0,0.0,0.0,0.0,0.0,0.0,0.0,0.0,0.0,0.3333,0.0,0.3333,0.0,0
2.84,run,12.03,0.64,10.3,9.98,0.6,0.0,0.05,0.0,0.78,4.04,-26.72,109.95,-26.81,-47.29,111.27,11.16,-21.01,117.6,1.41,-23.99,114.26,-24.7,15.82,82.79,-23.47,-18.28,99.76,6.9,-35.5,119.72,-35.0,-41.21,103.37,2.84,-26.41,107.2,10.5,-25.74,117.75,-33.5,26.01,73.68,-15.5,-14.71,91.37,1.0,-0.8501,1.0,-1.0,1.0,-1.0,-1.0,-1.0,-1.0,1.0,1.0,1.0,-1.0,1.0,-0.3059,1.0,1.0,-1.0,0.019,0.0,0.026,0.026,0.0,0.013,0.0,0.0,0.039,0.013,0.019,0.006,0.039,0.104,0.019,0.019,0.019,0.013,0.1197,-0.5584,0.2807,-0.4939,-1.1213,0.5768,0.2746,-0.4817,0.4633,-0.0522,-0.6857,0.6013,-0.3559,0.1442,-0.1503,-0.4878,-0.6105,0.3758,0.2418,-0.0983,0.2565,-0.2945,-0.2137,-0.2648,-0.1956,0.139,-0.2889,0.268,-0.3036,0.3121,-0.2403,0.3049,-0.3063,0.1796,-0.2822,-0.2352,1.024,0.0907,0.1412,0.2479,-0.0719,1.0,-1.0,1.0,-1.0,1.0,-1.0,-1.0,-1.0,-1.0,1.0,0.7645,1.0,-1.0,1.0,-0.7596,1.0,1.0,-1.0,0.0,0.0,0.0,0.0,0.0,0.0,0.0,0.0,0.0,0.3333,0.0,0.3333,0.0,0
2.88,run,12.29,1.24,5.17,14.84,-2.45,0.0,0.05,0.0,0.78,4.48,-28.12,111.36,-28.21,-47.11,109.86,10.55,-21.53,116.19,2.81,-25.22,115.22,-26.1,17.23,81.12,-21.8,-18.54,98.26,8.4,-37.0,121.22,-35.0,-39.71,101.87,1.34,-27.91,105.7,12.0,-24.24,119.25,-35.0,27.51,72.18,-14.0,-13.21,89.87,1.0,-0.703,1.0,-1.0,0.8216,-1.0,-1.0,-1.0,-1.0,1.0,1.0,1.0,-1.0,1.0,-0.3353,1.0,1.0,-1.0,0.019,0.0,0.026,0.026,0.0,0.013,0.0,0.0,0.039,0.013,0.019,0.006,0.039,0.104,0.019,0.019,0.019,0.013,0.1289,-0.5798,0.3007,-0.5154,-1.1213,0.5568,0.25,-0.4817,0.4433,-0.0337,-0.7026,0.6197,-0.3743,0.1611,-0.1718,-0.4694,-0.6182,0.3559,0.2123,-0.1692,0.2728,-0.3065,-0.1496,-0.2786,-0.2517,0.0973,-0.2955,0.2737,-0.2914,0.3045,-0.2543,0.2924,-0.3148,0.2118,-0.2334,-0.2579,1.0612,0.1141,0.1797,0.1742,0.0104,1.0,-0.8501,1.0,-1.0,1.0,-1.0,-1.0,-1.0,-1.0,1.0,1.0,1.0,-1.0,1.0,-0.3059,1.0,1.0,-1.0,0.0,0.0,0.0,0.0,0.0,0.0,0.0,0.0,0.0,0.3333,0.0,0.3333,0.0,0
2.92,run,12.51,1.61,4.01,8.45,-9.61,0.0,0.05,0.0,0.78,5.27,-29.53,112.76,-29.62,-46.32,108.46,8.79,-22.41,114.87,4.22,-26.1,116.37,-27.42,18.54,79.8,-20.65,-18.54,97.03,9.9,-35.5,122.72,-35.0,-38.21,100.37,-0.16,-29.41,104.2,13.5,-22.74,120.75,-35.0,29.01,70.68,-12.5,-11.71,88.37,1.0,0.4196,1.0,-1.0,0.8967,-1.0,-1.0,-1.0,-1.0,1.0,1.0,1.0,-1.0,1.0,-0.6598,1.0,1.0,-1.0,0.071,0.006,0.026,0.019,0.026,0.006,0.006,0.026,0.065,0.013,0.006,0.006,0.045,0.097,0.006,0.019,0.006,0.019,0.1365,-0.6044,0.3252,-0.54,-1.1183,0.5323,0.2393,-0.4909,0.4188,-0.0092,-0.724,0.6366,-0.3988,0.1856,-0.201,-0.4403,-0.6228,0.3298,0.1771,-0.2095,0.282,-0.3056,-0.0933,-0.286,-0.216,0.034,-0.2978,0.2826,-0.2837,0.2758,-0.269,0.2957,-0.3285,0.2563,-0.1804,-0.2772,1.0839,0.1663,0.0902,0.2589,-0.0427,1.0,-0.703,1.0,-1.0,0.8216,-1.0,-1.0,-1.0,-1.0,1.0,1.0,1.0,-1.0,1.0,-0.3353,1.0,1.0,-1.0,0.0,0.0,0.0,0.0,0.0,0.0,0.0,0.0,0.0,0.3333,0.0,0.3333,0.0,0
2.96,run,13.08,1.94,13.65,9.03,-5.91,0.0,0.05,0.0,0.78,6.24,-30.94,114.17,-31.03,-45.62,106.96,7.12,-23.12,113.55,5.62,-26.54,117.77,-28.74,19.95,78.4,-18.98,-18.19,95.45,11.4,-34.0,124.22,-35.0,-36.71,98.87,-1.66,-30.91,102.7,15.0,-21.24,122.25,-35.0,30.0,69.18,-11.0,-10.21,86.87,0.7748,0.6918,1.0,-1.0,0.6944,-1.0,-1.0,-1.0,-1.0,1.0,1.0,1.0,-1.0,1.0,-0.9641,1.0,1.0,-1.0,0.071,0.006,0.026,0.019,0.026,0.006,0.006,0.026,0.065,0.013,0.006,0.006,0.045,0.097,0.006,0.019,0.006,0.019,0.1503,-0.6289,0.3497,-0.5645,-1.1045,0.5077,0.2086,-0.5062,0.3958,0.0153,-0.7394,0.6565,-0.4218,0.2086,-0.224,-0.4203,-0.6228,0.3083,0.1756,-0.2385,0.2892,-0.3057,-0.0137,-0.292,-0.266,-0.0336,-0.2946,0.2896,-0.2559,0.2676,-0.2744,0.2931,-0.316,0.254,-0.1263,-0.2744,1.1035,0.1988,0.07,0.1474,-0.1677,1.0,0.4196,1.0,-1.0,0.8967,-1.0,-1.0,-1.0,-1.0,1.0,1.0,1.0,-1.0,1.0,-0.6598,1.0,1.0,-1.0,0.0,0.0,0.0,0.0,0.0,0.0,0.0,0.0,0.0,0.3333,0.0,0.3333,0.0,0
3.0,run,13.44,2.2,8.99,5.42,-9.82,0.0,0.05,0.0,0.78,7.38,-32.34,115.58,-32.26,-44.03,105.38,6.06,-24.35,112.24,7.03,-26.89,119.0,-30.23,21.36,76.9,-17.67,-17.49,94.04,12.9,-32.5,125.72,-35.0,-35.21,97.37,-3.16,-32.41,101.2,16.5,-19.74,123.75,-35.0,30.0,67.68,-9.5,-8.71,85.37,0.942,0.6229,1.0,-1.0,0.2595,-1.0,-1.0,-1.0,-1.0,1.0,1.0,0.9795,-1.0,1.0,-0.7974,1.0,1.0,-1.0,0.071,0.006,0.026,0.019,0.026,0.006,0.006,0.026,0.065,0.013,0.006,0.006,0.045,0.097,0.006,0.019,0.006,0.019,0.1672,-0.6535,0.3743,-0.589,-1.0922,0.4817,0.1795,-0.5185,0.3728,0.0399,-0.747,0.6811,-0.4449,0.2332,-0.2485,-0.3912,-0.6167,0.2807,0.1862,-0.259,0.2945,-0.3061,0.0365,-0.3022,-0.2955,-0.0695,-0.2925,0.2948,-0.2079,0.2794,-0.2784,0.2972,-0.3133,0.2871,-0.0654,-0.2957,1.1533,0.2274,0.2382,0.1577,-0.1031,0.7748,0.6918,1.0,-1.0,0.6944,-1.0,-1.0,-1.0,-1.0,1.0,1.0,1.0,-1.0,1.0,-0.9641,1.0,1.0,-1.0,0.0,0.0,0.0,0.0,0.0,0.0,0.0,0.0,0.0,0.3333,0.0,0.3333,0.0,0
3.04,run,13.66,2.21,6.08,-1.61,-19.67,0.0,0.05,0.0,0.78,8.79,-33.49,116.98,-33.31,-42.63,104.15,4.31,-25.75,110.83,8.44,-26.72,120.41,-31.73,22.68,75.5,-16.35,-16.7,92.64,14.4,-31.0,127.22,-35.0,-33.71,95.87,-4.66,-33.91,99.7,15.0,-18.24,122.25,-35.0,30.0,66.18,-8.0,-7.21,83.87,0.8958,1.0,1.0,-1.0,0.1454,-0.6769,-1.0,-1.0,0.0322,0.4046,1.0,0.2565,-1.0,1.0,-1.0,1.0,1.0,-1.0,0.052,0.0,0.026,0.006,0.033,0.0,0.0,0.052,0.078,0.006,0.013,0.006,0.039,0.163,0.006,0.0,0.026,0.013,0.1871,-0.678,0.3988,-0.6105,-1.0646,0.4541,0.1611,-0.54,0.3497,0.0644,-0.7532,0.7026,-0.4709,0.2577,-0.2746,-0.3682,-0.6044,0.2562,0.2051,-0.2732,0.2981,-0.2947,0.129,-0.315,-0.2758,-0.1291,-0.291,0.2983,-0.1685,0.276,-0.2926,0.3,-0.317,0.2872,0.0002,-0.2989,1.1841,0.2501,0.1568,0.0947,-0.1714,0.942,0.6229,1.0,-1.0,0.2595,-1.0,-1.0,-1.0,-1.0,1.0,1.0,0.9795,-1.0,1.0,-0.7974,1.0,1.0,-1.0,0.0,0.0,0.0,0.0,0.0,0.0,0.0,0.0,0.0,0.3333,0.0,0.3333,0.0,0
3.08,run,14.03,1.89,7.32,-6.66,-25.2,0.0,0.05,0.0,0.78,10.63,-34.54,118.65,-34.45,-40.96,102.3,2.99,-27.33,109.16,10.2,-26.1,121.9,-33.05,24.35,73.74,-14.5,-14.41,90.88,15.9,-29.5,128.72,-35.0,-32.21,97.37,-6.16,-35.41,101.2,13.5,-16.74,120.75,-35.0,30.0,64.68,-6.5,-5.71,82.37,1.0,1.0,1.0,-1.0,0.221,0.5554,-1.0,-1.0,0.9022,-0.9088,1.0,-1.0,-1.0,1.0,-1.0,1.0,1.0,-1.0,0.052,0.0,0.026,0.006,0.033,0.0,0.0,0.052,0.078,0.006,0.013,0.006,0.039,0.163,0.006,0.0,0.026,0.013,0.2117,-0.698,0.4234,-0.6289,-1.04,0.4326,0.1304,-0.5645,0.3252,0.089,-0.7501,0.7271,-0.497,0.2807,-0.2991,-0.3451,-0.5906,0.2316,0.2358,-0.2662,0.3009,-0.2755,0.1825,-0.3012,-0.3083,-0.1826,-0.2959,0.301,-0.1064,0.2855,-0.3028,0.2965,-0.3141,0.2875,0.052,-0.3015,1.2033,0.2515,0.1061,-0.0282,-0.3433,0.8958,1.0,1.0,-1.0,0.1454,-0.6769,-1.0,-1.0,0.0322,0.4046,1.0,0.2565,-1.0,1.0,-1.0,1.0,1.0,-1.0,0.0,0.0,0.0,0.0,0.0,0.0,0.0,0.0,0.0,0.3333,0.0,0.3333,0.0,0
3.12,run,14.15,1.63,-0.08,-6.89,-15.46,0.0,0.05,0.0,0.78,11.87,-35.07,119.97,-35.07,-39.55,100.9,1.49,-28.83,107.75,11.51,-25.05,122.78,-34.01,25.66,72.33,-13.18,-13.01,89.47,17.4,-28.0,130.22,-35.0,-30.71,98.87,-7.66,-36.91,102.7,12.0,-15.24,119.25,-35.0,30.0,63.18,-5.0,-4.21,80.87,1.0,1.0,1.0,-1.0,-0.059,1.0,-1.0,-1.0,0.8488,-1.0,1.0,-1.0,-1.0,1.0,-1.0,1.0,1.0,-1.0,0.052,0.0,0.026,0.006,0.033,0.0,0.0,0.052,0.078,0.006,0.013,0.006,0.039,0.163,0.006,0.0,0.026,0.013,0.2439,-0.7164,0.4525,-0.6489,-1.0109,0.4004,0.1074,-0.5921,0.2961,0.1197,-0.7394,0.7532,-0.52,0.3099,-0.3298,-0.3129,-0.5507,0.201,0.2645,-0.2432,0.3006,-0.2544,0.2177,-0.3103,-0.2869,-0.2131,-0.2971,0.3054,-0.0414,0.2803,-0.283,0.2975,-0.3146,0.3007,0.1595,-0.3057,1.2362,0.2236,0.1278,-0.1162,-0.4398,1.0,1.0,1.0,-1.0,0.221,0.5554,-1.0,-1.0,0.9022,-0.9088,1.0,-1.0,-1.0,1.0,-1.0,1.0,1.0,-1.0,0.0,0.0,0.0,0.0,0.0,0.0,0.0,0.0,0.0,0.3333,0.0,0.3333,0.0,0
3.16,run,14.54,1.37,8.53,-6.05,-5.22,0.0,0.05,0.0,0.78,13.18,-35.16,121.2,-35.16,-38.23,99.67,0.0,-30.15,106.52,12.74,-23.82,123.4,-34.54,26.89,70.84,-11.43,-11.95,88.15,18.9,-26.5,131.72,-35.0,-29.21,100.37,-9.16,-38.41,104.2,10.5,-13.74,117.75,-35.0,28.5,61.68,-3.5,-2.71,79.37,1.0,1.0,1.0,-1.0,0.0312,1.0,-1.0,-0.2542,1.0,-1.0,1.0,-1.0,-1.0,0.8615,-1.0,1.0,1.0,-1.0,0.104,0.019,0.052,0.0,0.045,0.0,0.019,0.052,0.084,0.006,0.006,0.0,0.013,0.123,0.006,0.013,0.013,0.013,0.2654,-0.7256,0.4755,-0.6596,-0.9863,0.3758,0.0813,-0.6182,0.2715,0.1427,-0.721,0.7685,-0.5369,0.3329,-0.3543,-0.2899,-0.5262,0.1764,0.265,-0.2044,0.296,-0.218,0.2437,-0.3085,-0.2978,-0.2461,-0.2992,0.2994,0.0395,0.2533,-0.2608,0.2938,-0.3115,0.296,0.2029,-0.3053,1.2462,0.2007,-0.0013,-0.1202,-0.2697,1.0,1.0,1.0,-1.0,-0.059,1.0,-1.0,-1.0,0.8488,-1.0,1.0,-1.0,-1.0,1.0,-1.0,1.0,1.0,-1.0,0.0,0.0,0.0,0.0,0.0,0.0,0.0,0.0,0.0,0.3333,0.0,0.3333,0.0,0
3.2,run,14.84,1.3,5.99,-3.28,8.12,0.0,0.05,0.0,0.78,14.5,-35.24,122.43,-35.16,-36.91,98.53,-1.41,-31.55,105.47,13.45,-22.41,123.57,-34.72,27.77,69.52,-10.55,-10.28,86.66,20.4,-25.0,133.22,-35.0,-30.71,101.87,-10.66,-39.91,105.7,9.0,-12.24,116.25,-35.0,30.0,60.18,-2.0,-1.21,77.87,1.0,0.3337,1.0,-1.0,-1.0,1.0,-1.0,-1.0,1.0,-1.0,1.0,-1.0,-1.0,1.0,-1.0,1.0,1.0,-1.0,0.104,0.019,0.052,0.0,0.045,0.0,0.019,0.052,0.084,0.006,0.006,0.0,0.013,0.123,0.006,0.013,0.013,0.013,0.2884,-0.7271,0.497,-0.6611,-0.9633,0.3543,0.0552,-0.6412,0.25,0.1641,-0.6995,0.7793,-0.5461,0.3543,-0.3804,-0.2592,-0.5077,0.1534,0.2718,-0.1489,0.2878,-0.1584,0.2569,-0.2965,-0.3063,-0.2586,-0.2901,0.2901,0.1082,0.2176,-0.2171,0.2863,-0.3159,0.3224,0.2111,-0.3,1.2801,0.1783,0.149,-0.1056,-0.0911,1.0,1.0,1.0,-1.0,0.0312,1.0,-1.0,-0.2542,1.0,-1.0,1.0,-1.0,-1.0,0.8615,-1.0,1.0,1.0,-1.0,0.0,0.0,0.0,0.0,0.0,0.0,0.0,0.0,0.0,0.3333,0.0,0.3333,0.0,0
3.24,run,14.73,1.06,-4.27,-6.78,9.1,0.0,0.05,0.0,0.78,15.91,-34.89,123.84,-34.63,-35.6,97.91,-2.81,-33.05,104.68,14.06,-21.01,123.4,-34.72,28.48,68.03,-8.44,-8.96,85.25,21.9,-23.5,134.72,-35.0,-32.21,103.37,-12.16,-41.41,107.2,7.5,-10.74,114.75,-35.0,30.0,58.68,-0.5,0.29,76.37,1.0,0.2333,1.0,-1.0,-1.0,1.0,-1.0,-0.6823,1.0,-1.0,1.0,-1.0,-1.0,1.0,-1.0,1.0,1.0,-1.0,0.104,0.019,0.052,0.0,0.045,0.0,0.019,0.052,0.084,0.006,0.006,0.0,0.013,0.123,0.006,0.013,0.013,0.013,0.3114,-0.7286,0.5185,-0.6611,-0.9403,0.3344,0.0307,-0.6657,0.2316,0.1764,-0.675,0.7823,-0.5492,0.3697,-0.4034,-0.2439,-0.4786,0.1273,0.2773,-0.11,0.2827,-0.1108,0.2669,-0.283,-0.3072,-0.2739,-0.2727,0.2495,0.1686,0.1639,-0.1636,0.2584,-0.3081,0.2837,0.258,-0.3086,1.3066,0.1715,0.1045,-0.0572,0.1418,1.0,0.3337,1.0,-1.0,-1.0,1.0,-1.0,-1.0,1.0,-1.0,1.0,-1.0,-1.0,1.0,-1.0,1.0,1.0,-1.0,0.0,0.0,0.0,0.0,0.0,0.0,0.0,0.0,0.0,0.3333,0.0,0.3333,0.0,0
3.28,run,14.13,0.42,-16.99,-17.02,3.45,0.0,0.05,0.0,0.78,17.4,-34.19,125.16,-34.63,-34.28,97.56,-4.22,-34.45,104.24,14.24,-19.6,122.78,-34.72,28.74,66.53,-7.91,-7.56,83.85,23.4,-25.0,136.22,-35.0,-33.71,104.87,-13.66,-39.91,108.7,6.0,-9.24,113.25,-35.0,28.5,57.18,1.0,1.79,74.87,1.0,-0.133,1.0,-1.0,-0.9631,1.0,-1.0,0.0092,1.0,-1.0,1.0,-1.0,-1.0,-0.1986,-1.0,1.0,1.0,-1.0,0.078,0.091,0.104,0.006,0.039,0.0,0.019,0.078,0.058,0.0,0.006,0.013,0.013,0.033,0.0,0.026,0.013,0.013,0.3359,-0.7225,0.543,-0.6519,-0.9173,0.3237,0.0061,-0.6918,0.2178,0.1871,-0.6504,0.7793,-0.5492,0.382,-0.4295,-0.2071,-0.4556,0.1028,0.2854,-0.0542,0.2892,-0.0433,0.2724,-0.238,-0.3064,-0.2887,-0.2422,0.2146,0.2093,0.1033,-0.1145,0.2265,-0.3127,0.3356,0.2662,-0.3074,1.2968,0.1514,-0.0746,-0.1184,0.1589,1.0,0.2333,1.0,-1.0,-1.0,1.0,-1.0,-0.6823,1.0,-1.0,1.0,-1.0,-1.0,1.0,-1.0,1.0,1.0,-1.0,0.0,0.0,0.0,0.0,0.0,0.0,0.0,0.0,0.0,0.3333,0.0,0.3333,0.0,0
3.32,run,13.73,0.1,-8.53,-7.31,3.37,0.0,0.05,0.0,0.78,18.98,-33.05,126.39,-34.54,-33.13,97.47,-5.71,-35.86,104.06,13.97,-18.11,121.82,-34.72,28.74,65.04,-5.45,-6.06,82.35,24.9,-26.5,137.72,-35.0,-35.21,106.37,-15.16,-38.41,110.2,4.5,-7.74,111.75,-35.0,27.0,55.68,2.5,3.29,73.37,1.0,-1.0,1.0,-1.0,-0.3584,1.0,-0.9322,0.8612,1.0,-1.0,1.0,-1.0,-1.0,-1.0,-1.0,1.0,1.0,-1.0,0.078,0.091,0.104,0.006,0.039,0.0,0.019,0.078,0.058,0.0,0.006,0.013,0.013,0.033,0.0,0.026,0.013,0.013,0.362,-0.7102,0.566,-0.6519,-0.8943,0.3175,-0.0184,-0.7164,0.2102,0.1902,-0.6259,0.7685,-0.5492,0.3866,-0.4556,-0.1979,-0.431,0.0782,0.2975,0.0081,0.2886,-0.0303,0.2769,-0.1896,-0.3064,-0.2941,-0.1983,0.1617,0.2385,0.0321,-0.0802,0.1758,-0.3166,0.2694,0.2783,-0.3071,1.2442,0.0951,-0.2966,-0.297,0.0603,1.0,-0.133,1.0,-1.0,-0.9631,1.0,-1.0,0.0092,1.0,-1.0,1.0,-1.0,-1.0,-0.1986,-1.0,1.0,1.0,-1.0,0.0,0.0,0.0,0.0,0.0,0.0,0.0,0.0,0.0,0.3333,0.0,0.3333,0.0,0
3.36,run,13.85,-0.11,2.57,-3.07,-0.28,0.0,0.05,0.0,0.78,20.3,-31.82,127.53,-34.54,-32.34,97.65,-7.03,-37.18,104.06,13.54,-17.05,120.67,-34.72,28.56,63.63,-4.92,-4.57,80.86,26.4,-28.0,139.22,-35.0,-36.71,107.87,-13.66,-39.91,111.7,3.0,-6.24,110.25,-35.0,25.5,54.18,4.0,4.79,71.87,1.0,-1.0,1.0,-1.0,-0.2689,1.0,0.1273,-1.0,1.0,-1.0,1.0,-1.0,-1.0,-1.0,-1.0,1.0,1.0,-1.0,0.078,0.091,0.104,0.006,0.039,0.0,0.019,0.078,0.058,0.0,0.006,0.013,0.013,0.033,0.0,0.026,0.013,0.013,0.3896,-0.6903,0.5875,-0.6504,-0.8744,0.316,-0.0445,-0.7409,0.2071,0.1856,-0.5998,0.7517,-0.5492,0.3866,-0.4817,-0.1549,-0.405,0.0522,0.3061,0.0763,0.2781,-0.0158,0.2645,-0.1382,-0.3069,-0.2928,-0.1497,0.0969,0.2593,-0.0373,-0.0561,0.1231,-0.314,0.3408,0.2872,-0.3074,1.2096,0.0669,-0.1488,-0.1276,0.0588,1.0,-1.0,1.0,-1.0,-0.3584,1.0,-0.9322,0.8612,1.0,-1.0,1.0,-1.0,-1.0,-1.0,-1.0,1.0,1.0,-1.0,0.0,0.0,0.0,0.0,0.0,0.0,0.0,0.0,0.0,0.3333,0.0,0.3333,0.0,0
3.4,run,13.41,-0.27,-13.48,-6.15,3.71,0.0,0.05,0.0,0.78,21.62,-30.59,128.58,-34.63,-31.9,98.44,-8.53,-38.14,104.15,12.3,-15.47,119.18,-34.8,27.69,62.23,-2.64,-3.34,79.45,27.9,-29.5,140.72,-33.5,-38.21,109.37,-12.16,-41.41,113.2,1.5,-4.74,108.75,-35.0,24.0,52.68,5.5,6.29,70.37,1.0,-1.0,1.0,-0.9234,-0.4402,1.0,0.047,-1.0,1.0,-1.0,1.0,-1.0,-1.0,-0.105,-1.0,1.0,1.0,-1.0,0.091,0.091,0.227,0.0,0.026,0.052,0.013,0.052,0.0,0.013,0.006,0.019,0.006,0.0,0.006,0.013,0.013,0.006,0.4126,-0.6688,0.6075,-0.6504,-0.8606,0.3191,-0.0675,-0.7639,0.2071,0.1779,-0.5814,0.7317,-0.5492,0.3835,-0.5062,-0.1457,-0.3789,0.0261,0.2995,0.1329,0.2686,-0.0111,0.2363,-0.0854,-0.3,-0.2902,-0.1048,0.0394,0.2497,-0.1,-0.0393,0.0748,-0.3107,0.2726,0.2976,-0.3117,1.2202,0.049,0.0449,-0.0536,-0.0049,1.0,-1.0,1.0,-1.0,-0.2689,1.0,0.1273,-1.0,1.0,-1.0,1.0,-1.0,-1.0,-1.0,-1.0,1.0,1.0,-1.0,0.0,0.0,0.0,0.0,0.0,0.0,0.0,0.0,0.0,0.3333,0.0,0.3333,0.0,0
3.44,run,12.64,-0.63,-26.1,-11.19,-0.59,0.0,0.05,0.0,0.78,23.03,-29.71,129.55,-34.63,-31.73,99.49,-9.76,-39.11,104.94,11.16,-14.06,117.77,-34.8,26.46,60.73,-1.93,-1.76,78.05,29.4,-31.0,142.22,-32.0,-36.71,110.87,-10.66,-42.91,114.7,-0.0,-3.24,107.25,-35.0,22.5,51.18,7.0,7.79,68.87,1.0,-1.0,1.0,-0.1929,0.3138,1.0,0.472,-0.7345,1.0,-1.0,1.0,-1.0,-1.0,-1.0,-1.0,1.0,1.0,-1.0,0.091,0.091,0.227,0.0,0.026,0.052,0.013,0.052,0.0,0.013,0.006,0.019,0.006,0.0,0.006,0.013,0.013,0.006,0.4357,-0.6473,0.6259,-0.6519,-0.8529,0.3329,-0.0936,-0.7808,0.2086,0.1565,-0.5538,0.7056,-0.5507,0.3682,-0.5308,-0.1058,-0.3574,0.0015,0.2958,0.1735,0.2569,-0.0135,0.1941,-0.0081,-0.3077,-0.2663,-0.0676,-0.0528,0.2782,-0.1676,-0.0332,-0.0051,-0.3094,0.3402,0.2888,-0.3101,1.1813,0.0345,-0.2353,-0.1073,0.0648,1.0,-1.0,1.0,-0.9234,-0.4402,1.0,0.047,-1.0,1.0,-1.0,1.0,-1.0,-1.0,-0.105,-1.0,1.0,1.0,-1.0,0.0,0.0,0.0,0.0,0.0,0.0,0.0,0.0,0.0,0.3333,0.0,0.3333,0.0,0
3.48,run,12.45,-0.27,-3.15,11.36,4.62,0.0,0.05,0.0,0.78,24.35,-28.92,130.61,-34.63,-31.73,100.9,-10.81,-40.17,106.08,9.93,-12.92,116.72,-34.8,25.31,59.33,0.0,-0.35,76.64,27.9,-32.5,140.72,-30.5,-35.21,112.37,-9.16,-44.41,116.2,-1.5,-1.74,105.75,-35.0,21.0,49.68,5.5,9.29,70.37,0.1291,-1.0,0.2815,1.0,0.971,1.0,1.0,-1.0,1.0,-1.0,1.0,-1.0,-1.0,-1.0,-0.7566,-0.1191,1.0,0.0829,0.091,0.091,0.227,0.0,0.026,0.052,0.013,0.052,0.0,0.013,0.006,0.019,0.006,0.0,0.006,0.013,0.013,0.006,0.4602,-0.632,0.6427,-0.6519,-0.8498,0.3513,-0.115,-0.7977,0.2224,0.1365,-0.5292,0.6811,-0.5507,0.3467,-0.5568,-0.0936,-0.3298,-0.023,0.2992,0.179,0.2432,-0.0094,0.1474,0.0635,-0.296,-0.2498,0.0045,-0.1118,0.2869,-0.2095,-0.0233,-0.0842,-0.3145,0.2842,0.3058,-0.3092,1.1142,0.0032,-0.4555,-0.1954,-0.0102,1.0,-1.0,1.0,-0.1929,0.3138,1.0,0.472,-0.7345,1.0,-1.0,1.0,-1.0,-1.0,-1.0,-1.0,1.0,1.0,-1.0,0.0,0.0,0.0,0.0,0.0,0.0,0.0,0.0,0.0,0.3333,0.0,0.3333,0.0,0
3.52,run,12.22,-0.75,-5.41,-5.22,12.38,0.0,0.05,0.0,0.78,25.58,-28.56,131.66,-33.66,-32.17,102.3,-11.6,-41.4,107.31,8.7,-11.78,115.58,-34.8,24.08,58.01,1.23,1.14,75.32,26.4,-34.0,139.22,-29.0,-36.71,110.87,-7.66,-45.91,117.7,-3.0,-0.24,104.25,-35.0,19.5,51.18,4.0,10.79,71.87,-1.0,-1.0,-1.0,1.0,-0.744,0.2312,1.0,-1.0,1.0,-1.0,1.0,-1.0,-1.0,-1.0,1.0,-1.0,1.0,1.0,0.091,0.104,0.468,0.006,0.0,0.039,0.019,0.039,0.006,0.078,0.071,0.078,0.006,0.013,0.006,0.052,0.006,0.006,0.4832,-0.6182,0.6611,-0.6519,-0.8498,0.3758,-0.1335,-0.8161,0.2424,0.115,-0.5093,0.6627,-0.5507,0.3267,-0.5814,-0.0598,-0.3053,-0.0476,0.2957,0.1771,0.2393,-0.0066,0.1032,0.1365,-0.2762,-0.2439,0.078,-0.1588,0.2756,-0.2157,-0.0163,-0.1337,-0.3122,0.3255,0.3061,-0.3085,1.0983,0.0352,-0.055,0.1983,0.0806,0.1291,-1.0,0.2815,1.0,0.971,1.0,1.0,-1.0,1.0,-1.0,1.0,-1.0,-1.0,-1.0,-0.7566,-0.1191,1.0,0.0829,0.0,0.0,0.0,0.0,0.0,0.0,0.0,0.0,0.0,0.3333,0.0,0.3333,0.0,0
3.56,run,12.13,-0.94,-1.01,-3.55,21.16,0.0,0.05,0.0,0.78,26.72,-28.48,132.45,-32.52,-33.22,103.8,-12.13,-42.8,108.63,7.47,-10.81,114.35,-34.8,22.94,56.78,2.46,2.46,73.92,24.9,-35.5,137.72,-27.5,-38.21,109.37,-6.16,-47.41,119.2,-4.5,1.26,102.75,-35.0,18.0,52.68,2.5,12.29,73.37,-1.0,-1.0,-0.8341,1.0,-1.0,0.179,1.0,-1.0,1.0,-1.0,1.0,-1.0,-1.0,-1.0,1.0,-1.0,1.0,1.0,0.091,0.104,0.468,0.006,0.0,0.039,0.019,0.039,0.006,0.078,0.071,0.078,0.006,0.013,0.006,0.052,0.006,0.006,0.5047,-0.6121,0.6796,-0.6351,-0.8575,0.4004,-0.1473,-0.8376,0.2638,0.0936,-0.4893,0.6427,-0.5507,0.3053,-0.6044,-0.0383,-0.2792,-0.0706,0.2875,0.147,0.2365,0.0586,0.0435,0.1875,-0.2451,-0.2512,0.135,-0.1916,0.2676,-0.2257,-0.0114,-0.1741,-0.3047,0.3083,0.312,-0.3022,1.0776,-0.0069,-0.0945,-0.0912,0.216,-1.0,-1.0,-1.0,1.0,-0.744,0.2312,1.0,-1.0,1.0,-1.0,1.0,-1.0,-1.0,-1.0,1.0,-1.0,1.0,1.0,0.0,0.0,0.0,0.0,0.0,0.0,0.0,0.0,0.0,0.3333,0.0,0.3333,0.0,0
3.6,run,11.47,-1.18,-14.79,-4.34,1.16,0.0,0.05,0.0,0.78,27.6,-28.48,132.8,-31.2,-34.45,105.29,-12.3,-44.12,110.04,6.24,-9.67,112.85,-34.8,21.53,55.28,3.52,3.87,72.86,23.4,-37.0,136.22,-26.0,-39.71,107.87,-4.66,-48.91,120.7,-6.0,2.76,101.25,-35.0,16.5,54.18,1.0,13.79,74.87,-1.0,-1.0,-0.98,1.0,-1.0,-0.1002,1.0,-1.0,1.0,-1.0,1.0,-1.0,-1.0,-1.0,1.0,-1.0,1.0,1.0,0.091,0.104,0.468,0.006,0.0,0.039,0.019,0.039,0.006,0.078,0.071,0.078,0.006,0.013,0.006,0.052,0.006,0.006,0.5246,-0.6105,0.6934,-0.6151,-0.8759,0.4264,-0.1565,-0.8621,0.2869,0.0721,-0.4725,0.6213,-0.5507,0.2853,-0.6259,-0.0169,-0.2562,-0.0951,0.2761,0.1086,0.2174,0.1159,-0.0387,0.2292,-0.2061,-0.268,0.1809,-0.2148,0.2507,-0.2386,-0.008,-0.1967,-0.294,0.2965,0.3048,-0.3037,1.07,-0.0238,-0.0176,-0.062,0.3694,-1.0,-1.0,-0.8341,1.0,-1.0,0.179,1.0,-1.0,1.0,-1.0,1.0,-1.0,-1.0,-1.0,1.0,-1.0,1.0,1.0,0.0,0.0,0.0,0.0,0.0,0.0,0.0,0.0,0.0,0.3333,0.0,0.3333,0.0,0
3.64,run,11.22,-1.63,-7.31,-8.76,-9.6,0.0,0.05,0.0,0.851,28.12,-28.48,133.15,-29.97,-35.68,106.7,-12.3,-45.53,111.36,4.92,-8.35,111.27,-34.8,20.13,54.14,4.04,5.27,71.72,21.9,-38.5,134.72,-24.5,-41.21,106.37,-3.16,-50.41,122.2,-7.5,4.26,99.75,-35.0,15.0,55.68,-0.5,15.29,76.37,-1.0,-1.0,-0.9658,1.0,-1.0,0.0784,1.0,-1.0,1.0,-1.0,1.0,-1.0,-1.0,-1.0,1.0,-1.0,1.0,1.0,0.019,0.0,0.851,0.019,0.0,0.013,0.013,0.039,0.019,0.091,0.117,0.033,0.006,0.026,0.006,0.0,0.019,0.0,0.54,-0.6105,0.6995,-0.5921,-0.8974,0.4525,-0.1595,-0.8851,0.3114,0.0506,-0.4525,0.5952,-0.5507,0.2608,-0.6519,0.0015,-0.2316,-0.1135,0.2508,0.076,0.1751,0.1673,-0.1076,0.2581,-0.1558,-0.2738,0.2186,-0.2308,0.2502,-0.2648,-0.0056,-0.2297,-0.3035,0.2765,0.3053,-0.2815,1.0125,-0.0445,-0.2582,-0.0757,0.0203,-1.0,-1.0,-0.98,1.0,-1.0,-0.1002,1.0,-1.0,1.0,-1.0,1.0,-1.0,-1.0,-1.0,1.0,-1.0,1.0,1.0,0.0,0.0,0.0,0.0,0.0,0.0,0.0,0.0,0.0,0.3333,0.0,0.3333,0.0,0
3.68,run,11.05,-2.05,-4.32,-8.96,-17.33,0.0,0.05,0.0,0.851,28.21,-29.27,133.24,-29.0,-37.0,107.93,-11.78,-46.93,112.15,3.43,-7.03,109.51,-34.8,18.81,53.35,4.66,6.15,71.37,20.4,-40.0,133.22,-23.0,-42.71,104.87,-1.66,-51.91,123.7,-9.0,5.76,98.25,-35.0,13.5,57.18,-2.0,16.79,77.87,-1.0,-1.0,-0.8797,1.0,-1.0,-0.6856,1.0,-1.0,1.0,-1.0,1.0,-1.0,-1.0,-1.0,1.0,-1.0,1.0,1.0,0.019,0.0,0.851,0.019,0.0,0.013,0.013,0.039,0.019,0.091,0.117,0.033,0.006,0.026,0.006,0.0,0.019,0.0,0.5492,-0.6105,0.7056,-0.5706,-0.9189,0.4771,-0.1595,-0.9097,0.3344,0.0276,-0.4295,0.5676,-0.5507,0.2362,-0.6719,0.0107,-0.2071,-0.1335,0.2101,0.0532,0.1456,0.1977,-0.1559,0.2728,-0.109,-0.2838,0.2394,-0.2479,0.2615,-0.289,-0.0039,-0.2529,-0.2873,0.2281,0.3058,-0.2719,0.9904,-0.084,-0.1276,-0.1529,-0.1676,-1.0,-1.0,-0.9658,1.0,-1.0,0.0784,1.0,-1.0,1.0,-1.0,1.0,-1.0,-1.0,-1.0,1.0,-1.0,1.0,1.0,0.0,0.0,0.0,0.0,0.0,0.0,0.0,0.0,0.0,0.3333,0.0,0.3333,0.0,0
3.72,run,10.93,-2.14,-4.24,-3.35,-18.42,0.0,0.05,0.0,0.851,27.95,-30.41,133.24,-27.69,-38.32,108.63,-10.81,-48.34,113.82,1.85,-5.71,107.75,-34.8,17.4,52.82,4.57,7.91,71.19,18.9,-41.5,131.72,-21.5,-44.21,103.37,-0.16,-53.41,125.2,-10.5,7.26,96.75,-35.0,12.0,58.68,-3.5,18.29,79.37,-1.0,-1.0,-0.7684,1.0,-1.0,-0.6242,1.0,-1.0,1.0,-1.0,1.0,-1.0,-1.0,-1.0,1.0,-1.0,1.0,1.0,0.019,0.0,0.851,0.019,0.0,0.013,0.013,0.039,0.019,0.091,0.117,0.033,0.006,0.026,0.006,0.0,0.019,0.0,0.5507,-0.6243,0.7072,-0.5538,-0.9419,0.4985,-0.1503,-0.9342,0.3482,0.0015,-0.4065,0.5369,-0.5507,0.2132,-0.6857,0.0215,-0.1917,-0.1396,0.1528,-0.0145,0.1077,0.2016,-0.1953,0.2714,-0.0418,-0.2906,0.2193,-0.2713,0.2693,-0.3172,-0.0027,-0.2632,-0.2528,0.1999,0.2716,-0.2133,0.9761,-0.1202,-0.0754,-0.1563,-0.3024,-1.0,-1.0,-0.8797,1.0,-1.0,-0.6856,1.0,-1.0,1.0,-1.0,1.0,-1.0,-1.0,-1.0,1.0,-1.0,1.0,1.0,0.0,0.0,0.0,0.0,0.0,0.0,0.0,0.0,0.0,0.3333,0.0,0.3333,0.0,0
3.76,run,10.5,-2.09,-11.51,-0.71,-13.56,0.0,0.05,0.0,0.851,27.25,-31.73,133.24,-26.02,-39.64,109.07,-9.67,-49.75,115.4,0.44,-4.48,106.08,-34.8,16.0,52.73,4.13,9.32,71.19,17.4,-43.0,130.22,-20.0,-45.71,101.87,1.34,-54.91,126.7,-12.0,8.76,95.25,-35.0,10.5,60.18,-5.0,19.79,80.87,-1.0,-1.0,-1.0,1.0,-1.0,-0.4521,1.0,-1.0,1.0,-1.0,0.8514,-1.0,-1.0,-1.0,1.0,-1.0,1.0,1.0,0.006,0.0,0.572,0.026,0.013,0.006,0.013,0.019,0.019,0.058,0.214,0.0,0.006,0.026,0.0,0.0,0.026,0.019,0.5461,-0.6443,0.7072,-0.5308,-0.9649,0.5108,-0.1335,-0.9587,0.3774,-0.0261,-0.3835,0.5062,-0.5507,0.1887,-0.6949,0.0199,-0.1611,-0.1427,0.0897,-0.0849,0.0754,0.2275,-0.223,0.236,0.034,-0.2955,0.2628,-0.2934,0.2748,-0.3371,-0.0019,-0.2763,-0.2115,0.1342,0.3052,-0.1608,0.965,-0.1286,-0.0741,-0.0585,-0.3214,-1.0,-1.0,-0.7684,1.0,-1.0,-0.6242,1.0,-1.0,1.0,-1.0,1.0,-1.0,-1.0,-1.0,1.0,-1.0,1.0,1.0,0.0,0.0,0.0,0.0,0.0,0.0,0.0,0.0,0.0,0.3333,0.0,0.3333,0.0,0
3.8,run,10.13,-1.97,-9.89,0.19,-13.39,0.0,0.05,0.0,0.851,26.28,-33.13,133.24,-24.61,-40.52,109.16,-8.44,-51.33,116.72,-0.97,-3.25,104.59,-34.8,14.59,52.91,3.16,10.63,71.89,15.9,-44.5,128.72,-18.5,-47.21,100.37,2.84,-56.41,128.2,-13.5,7.26,93.75,-35.0,9.0,61.68,-6.5,21.29,82.37,-1.0,-1.0,-1.0,1.0,-0.7831,0.135,1.0,-1.0,1.0,-1.0,-0.2925,-1.0,-1.0,-1.0,1.0,-1.0,1.0,1.0,0.006,0.0,0.572,0.026,0.013,0.006,0.013,0.019,0.019,0.058,0.214,0.0,0.006,0.026,0.0,0.0,0.026,0.019,0.5338,-0.6673,0.7072,-0.5016,-0.9879,0.5185,-0.1135,-0.9833,0.405,-0.0506,-0.362,0.4771,-0.5507,0.1641,-0.6964,0.0123,-0.1365,-0.1427,0.0167,-0.1458,0.0528,0.2686,-0.2425,0.194,0.0986,-0.2989,0.2876,-0.2975,0.273,-0.3454,-0.0013,-0.2855,-0.1538,0.0651,0.3057,-0.1126,0.9281,-0.1236,-0.2009,-0.0125,-0.2367,-1.0,-1.0,-1.0,1.0,-1.0,-0.4521,1.0,-1.0,1.0,-1.0,0.8514,-1.0,-1.0,-1.0,1.0,-1.0,1.0,1.0,0.0,0.0,0.0,0.0,0.0,0.0,0.0,0.0,0.0,0.3333,0.0,0.3333,0.0,0
3.84,run,10.24,-1.81,-0.43,1.25,-18.01,0.0,0.05,0.0,0.851,24.87,-34.54,133.24,-23.2,-42.19,108.72,-6.77,-52.73,118.04,-2.37,-2.02,103.01,-34.8,13.18,53.7,2.11,11.87,72.77,14.4,-46.0,127.22,-17.0,-48.71,98.87,4.34,-57.91,129.7,-15.0,5.76,92.25,-35.0,7.5,63.18,-8.0,19.79,83.87,-1.0,-1.0,-1.0,1.0,-0.8275,-0.4942,1.0,-1.0,1.0,-1.0,-1.0,-1.0,-1.0,-1.0,1.0,-1.0,0.3456,1.0,0.006,0.0,0.572,0.026,0.013,0.006,0.013,0.019,0.019,0.058,0.214,0.0,0.006,0.026,0.0,0.0,0.026,0.019,0.517,-0.6918,0.7072,-0.4771,-1.0032,0.52,-0.092,-1.0109,0.428,-0.0752,-0.3405,0.451,-0.5507,0.1396,-0.6934,-0.0046,-0.1135,-0.1304,-0.0516,-0.1941,0.0369,0.28,-0.2272,0.1416,0.1496,-0.3128,0.2876,-0.3003,0.2716,-0.3395,-0.0009,-0.2919,-0.0962,-0.0177,0.3003,-0.0328,0.8951,-0.113,-0.1727,0.0034,-0.2338,-1.0,-1.0,-1.0,1.0,-0.7831,0.135,1.0,-1.0,1.0,-1.0,-0.2925,-1.0,-1.0,-1.0,1.0,-1.0,1.0,1.0,0.0,0.0,0.0,0.0,0.0,0.0,0.0,0.0,0.0,0.3333,0.0,0.3333,0.0,0
3.88,run,10.98,-1.59,17.83,-0.82,-17.75,0.0,0.05,0.0,0.851,23.47,-35.86,133.24,-21.62,-43.59,107.75,-5.89,-54.14,119.44,-3.87,-0.62,101.51,-34.8,11.87,55.02,0.79,13.1,74.0,12.9,-47.5,125.72,-15.5,-50.21,97.37,5.84,-59.41,131.2,-16.5,4.26,90.75,-35.0,6.0,64.68,-9.5,18.29,85.37,-1.0,-1.0,-1.0,1.0,-0.8087,-0.1204,1.0,-1.0,1.0,-1.0,-1.0,-1.0,-1.0,0.0402,1.0,-1.0,0.5768,1.0,0.0,0.0,0.026,0.019,0.026,0.013,0.019,0.013,0.026,0.058,0.234,0.013,0.006,0.039,0.006,0.006,0.052,0.033,0.4924,-0.7164,0.7072,-0.4525,-1.0324,0.5123,-0.0629,-1.0354,0.451,-0.0997,-0.3191,0.4234,-0.5507,0.115,-0.6796,-0.023,-0.092,-0.115,-0.1281,-0.2279,0.0259,0.288,-0.2683,0.0703,0.2139,-0.311,0.2876,-0.3022,0.2706,-0.3412,-0.0007,-0.2963,-0.0156,-0.0814,0.2907,0.0345,0.9054,-0.0991,-0.0076,0.0218,-0.3142,-1.0,-1.0,-1.0,1.0,-0.8275,-0.4942,1.0,-1.0,1.0,-1.0,-1.0,-1.0,-1.0,-1.0,1.0,-1.0,0.3456,1.0,0.0,0.0,0.0,0.0,0.0,0.0,0.0,0.0,0.0,0.3333,0.0,0.3333,0.0,0
3.92,run,11.65,-1.33,15.25,3.72,-13.26,0.0,0.05,0.0,0.851,22.06,-37.18,132.89,-20.21,-45.0,106.7,-4.13,-55.55,120.85,-5.27,0.79,100.28,-34.8,10.37,55.9,-0.7,14.33,75.23,11.4,-49.0,124.22,-14.0,-51.71,95.87,7.34,-60.91,132.7,-18.0,2.76,89.25,-33.5,7.5,66.18,-11.0,19.79,86.87,-1.0,-1.0,-0.804,1.0,-1.0,-0.3884,1.0,-1.0,1.0,-1.0,-0.6847,-1.0,-0.8878,1.0,1.0,-1.0,1.0,1.0,0.0,0.0,0.026,0.019,0.026,0.013,0.019,0.013,0.026,0.058,0.234,0.013,0.006,0.039,0.006,0.006,0.052,0.033,0.4679,-0.7394,0.7072,-0.4249,-1.0569,0.4955,-0.0476,-1.06,0.4755,-0.1258,-0.2945,0.3973,-0.5507,0.092,-0.6565,-0.046,-0.0706,-0.0936,-0.1813,-0.2454,0.0181,0.3047,-0.2795,-0.0138,0.207,-0.3093,0.2929,-0.3089,0.2811,-0.3362,-0.0005,-0.2933,0.075,-0.1429,0.2837,0.1044,0.9696,-0.0807,0.3112,-0.0143,-0.3099,-1.0,-1.0,-1.0,1.0,-0.8087,-0.1204,1.0,-1.0,1.0,-1.0,-1.0,-1.0,-1.0,0.0402,1.0,-1.0,0.5768,1.0,0.0,0.0,0.0,0.0,0.0,0.0,0.0,0.0,0.0,0.3333,0.0,0.3333,0.0,0
3.96,run,12.14,-1.33,14.03,2.79,-5.17,0.0,0.05,0.0,0.851,20.57,-38.41,131.92,-18.37,-46.41,105.47,-2.72,-56.87,122.34,-6.59,1.85,98.88,-34.8,8.96,57.48,-1.76,15.38,76.46,9.9,-50.5,122.72,-12.5,-53.21,97.37,8.84,-59.41,134.2,-19.5,1.26,87.75,-32.0,9.0,67.68,-12.5,21.29,88.37,-1.0,-1.0,-0.8556,1.0,-1.0,1.0,1.0,-0.1147,1.0,-1.0,-0.7027,-1.0,-0.0307,1.0,1.0,-1.0,1.0,1.0,0.0,0.0,0.026,0.019,0.026,0.013,0.019,0.013,0.026,0.058,0.234,0.013,0.006,0.039,0.006,0.006,0.052,0.033,0.4433,-0.7624,0.701,-0.4004,-1.0815,0.4771,-0.0169,-1.0845,0.5001,-0.1503,-0.27,0.3758,-0.5507,0.066,-0.6412,-0.0721,-0.0491,-0.0721,-0.2193,-0.2584,-0.0104,0.3057,-0.288,-0.0789,0.2604,-0.3089,0.2975,-0.3086,0.2891,-0.3162,-0.0003,-0.3035,0.1103,-0.1982,0.2794,0.1539,1.0286,-0.0577,0.2662,0.065,-0.2314,-1.0,-1.0,-0.804,1.0,-1.0,-0.3884,1.0,-1.0,1.0,-1.0,-0.6847,-1.0,-0.8878,1.0,1.0,-1.0,1.0,1.0,0.0,0.0,0.0,0.0,0.0,0.0,0.0,0.0,0.0,0.3333,0.0,0.3333,0.0,0
4.0,run,13.02,-1.33,22.53,0.89,-1.15,0.0,0.05,0.0,0.851,19.16,-39.73,131.13,-17.05,-47.9,103.89,-1.23,-58.1,123.75,-7.82,2.64,97.47,-34.45,7.91,58.97,-3.43,16.52,77.78,8.4,-52.0,121.22,-11.0,-54.71,98.87,10.34,-57.91,135.7,-21.0,-0.24,86.25,-30.5,10.5,69.18,-14.0,19.79,89.87,-1.0,-1.0,-1.0,1.0,-1.0,1.0,1.0,0.1073,1.0,-1.0,-0.5754,-1.0,1.0,1.0,1.0,-1.0,0.7526,1.0,0.0,0.013,0.0,0.033,0.026,0.006,0.013,0.019,0.039,0.104,0.136,0.0,0.006,0.013,0.006,0.006,0.104,0.065,0.4172,-0.7839,0.6842,-0.3682,-1.106,0.4556,0.0077,-1.1075,0.5262,-0.1733,-0.2516,0.3513,-0.5507,0.0414,-0.6136,-0.0905,-0.0307,-0.0506,-0.2514,-0.2615,-0.0706,0.3349,-0.2937,-0.1359,0.2744,-0.3026,0.3061,-0.3024,0.2715,-0.3135,-0.0002,-0.3046,0.1808,-0.2078,0.2647,0.1883,1.0708,-0.0577,0.2449,0.0487,-0.0902,-1.0,-1.0,-0.8556,1.0,-1.0,1.0,1.0,-0.1147,1.0,-1.0,-0.7027,-1.0,-0.0307,1.0,1.0,-1.0,1.0,1.0,0.0,0.0,0.0,0.0,0.0,0.0,0.0,0.0,0.0,0.3333,0.0,0.3333,0.0,0
4.04,run,13.93,-1.37,21.5,-1.76,-4.91,0.0,0.05,0.0,0.851,17.84,-41.04,130.17,-16.44,-49.22,102.48,0.18,-59.15,125.07,-9.4,3.34,95.98,-33.57,7.12,60.29,-4.75,17.75,79.19,6.9,-53.5,119.72,-9.5,-56.21,100.37,11.84,-56.41,137.2,-22.5,-1.74,84.75,-29.0,12.0,70.68,-15.5,21.29,91.37,-1.0,-1.0,-1.0,1.0,-1.0,1.0,1.0,-0.0068,1.0,-1.0,0.1738,-1.0,1.0,1.0,1.0,-1.0,1.0,1.0,0.0,0.013,0.0,0.033,0.026,0.006,0.013,0.019,0.039,0.104,0.136,0.0,0.006,0.013,0.006,0.006,0.104,0.065,0.3927,-0.8069,0.6703,-0.3451,-1.1321,0.428,0.0337,-1.129,0.5507,-0.1948,-0.2378,0.3267,-0.5446,0.023,-0.5875,-0.1197,-0.0107,-0.0276,-0.268,-0.2693,-0.1012,0.3207,-0.3033,-0.1986,0.2898,-0.2923,0.3062,-0.2922,0.2418,-0.3114,0.0228,-0.2822,0.2243,-0.2547,0.26,0.2181,1.1479,-0.0579,0.3933,0.0155,-0.0201,-1.0,-1.0,-1.0,1.0,-1.0,1.0,1.0,0.1073,1.0,-1.0,-0.5754,-1.0,1.0,1.0,1.0,-1.0,0.7526,1.0,0.0,0.0,0.0,0.0,0.0,0.0,0.0,0.0,0.0,0.3333,0.0,0.3333,0.0,0
4.08,run,14.57,-1.46,14.53,-4.23,-13.2,0.0,0.05,0.0,0.851,16.35,-42.01,128.94,-14.5,-50.62,101.25,1.58,-59.85,126.47,-10.81,3.6,94.57,-32.61,6.59,61.79,-6.24,18.63,80.51,5.4,-55.0,118.22,-8.0,-57.71,101.87,13.34,-54.91,138.7,-24.0,-3.24,83.25,-27.5,13.5,72.18,-17.0,22.79,92.87,-1.0,-1.0,-1.0,1.0,-1.0,1.0,1.0,0.4392,1.0,-1.0,0.3612,-1.0,1.0,1.0,1.0,-1.0,0.897,1.0,0.0,0.013,0.0,0.033,0.026,0.006,0.013,0.019,0.039,0.104,0.136,0.0,0.006,0.013,0.006,0.006,0.104,0.065,0.3697,-0.8299,0.6535,-0.3344,-1.1551,0.4034,0.0583,-1.1474,0.5737,-0.2224,-0.2255,0.3007,-0.5292,0.0092,-0.5645,-0.1427,0.0107,-0.0031,-0.2739,-0.2748,-0.1341,0.2647,-0.2987,-0.2311,0.2949,-0.2737,0.3007,-0.3081,0.2153,-0.3158,0.0735,-0.2493,0.2433,-0.2646,0.2626,0.2447,1.2275,-0.0607,0.3752,-0.0307,-0.0858,-1.0,-1.0,-1.0,1.0,-1.0,1.0,1.0,-0.0068,1.0,-1.0,0.1738,-1.0,1.0,1.0,1.0,-1.0,1.0,1.0,0.0,0.0,0.0,0.0,0.0,0.0,0.0,0.0,0.0,0.3333,0.0,0.3333,0.0,0
4.12,run,14.85,-1.31,5.66,4.48,-14.66,0.0,0.05,0.0,0.851,14.94,-43.51,127.53,-13.27,-52.03,100.2,2.9,-60.29,127.97,-12.3,3.69,93.25,-31.29,6.42,63.19,-7.65,19.34,81.91,3.9,-56.5,116.72,-6.5,-59.21,103.37,14.84,-53.41,140.2,-25.5,-4.74,81.75,-26.0,15.0,73.68,-18.5,22.03,94.37,-1.0,-1.0,-1.0,1.0,-1.0,1.0,1.0,0.6697,1.0,-1.0,0.153,-1.0,1.0,1.0,0.6231,-1.0,0.8551,1.0,0.006,0.033,0.006,0.019,0.033,0.0,0.019,0.006,0.026,0.078,0.006,0.0,0.019,0.0,0.006,0.019,0.104,0.065,0.3436,-0.8468,0.632,-0.3007,-1.1796,0.382,0.0828,-1.1597,0.5983,-0.247,-0.2209,0.2761,-0.5123,0.0,-0.5384,-0.1687,0.0261,0.0199,-0.2895,-0.2556,-0.1744,0.3119,-0.3011,-0.2423,0.2985,-0.2376,0.3025,-0.3077,0.168,-0.3131,0.1147,-0.209,0.2681,-0.283,0.2413,0.2576,1.283,-0.0687,0.2537,-0.0739,-0.2303,-1.0,-1.0,-1.0,1.0,-1.0,1.0,1.0,0.4392,1.0,-1.0,0.3612,-1.0,1.0,1.0,1.0,-1.0,0.897,1.0,0.0,0.0,0.0,0.0,0.0,0.0,0.0,0.0,0.0,0.3333,0.0,0.3333,0.0,0
4.16,run,14.92,-1.14,2.07,5.39,-17.37,0.0,0.05,0.0,0.851,13.62,-45.09,126.21,-11.69,-53.53,99.49,4.31,-60.29,129.2,-13.71,3.69,91.93,-29.71,6.77,64.6,-9.05,20.04,83.23,2.4,-55.0,115.22,-5.0,-60.71,104.87,16.34,-51.91,141.7,-27.0,-6.24,80.25,-24.5,16.5,75.18,-20.0,23.53,95.87,-1.0,0.0489,-1.0,1.0,-1.0,1.0,1.0,0.6134,0.9913,-1.0,-1.0,-0.4582,1.0,1.0,0.4936,-1.0,1.0,1.0,0.006,0.033,0.006,0.019,0.033,0.0,0.019,0.006,0.026,0.078,0.006,0.0,0.019,0.0,0.006,0.019,0.104,0.065,0.3191,-0.8728,0.6075,-0.2792,-1.2042,0.3636,0.1058,-1.1674,0.6243,-0.273,-0.2194,0.2531,-0.4893,-0.0031,-0.5139,-0.1933,0.0383,0.0445,-0.2946,-0.2766,-0.214,0.2987,-0.3027,-0.2385,0.2951,-0.195,0.3094,-0.3131,0.1233,-0.3053,0.1665,-0.1578,0.2796,-0.29,0.2149,0.2722,1.3075,-0.0557,0.0987,0.0781,-0.2559,-1.0,-1.0,-1.0,1.0,-1.0,1.0,1.0,0.6697,1.0,-1.0,0.153,-1.0,1.0,1.0,0.6231,-1.0,0.8551,1.0,0.0,0.0,0.0,0.0,0.0,0.0,0.0,0.0,0.0,0.3333,0.0,0.3333,0.0,0
4.2,run,14.89,-1.11,-1.51,0.65,-28.17,0.0,0.05,0.0,0.851,12.13,-46.49,125.33,-10.37,-54.93,99.05,5.71,-59.94,130.34,-15.21,2.99,90.53,-28.39,7.47,66.09,-10.46,20.48,84.55,0.9,-53.5,113.72,-3.5,-62.21,106.37,17.84,-50.41,140.2,-28.5,-7.74,81.75,-23.0,18.0,73.68,-21.5,22.03,97.37,-1.0,1.0,-1.0,1.0,-1.0,1.0,1.0,1.0,0.0801,-1.0,-1.0,0.3313,1.0,1.0,-0.0721,-1.0,0.6323,1.0,0.006,0.033,0.006,0.019,0.033,0.0,0.019,0.006,0.026,0.078,0.006,0.0,0.019,0.0,0.006,0.019,0.104,0.065,0.2961,-0.9004,0.5844,-0.2516,-1.2303,0.3513,0.1304,-1.1674,0.6458,-0.2976,-0.2194,0.2301,-0.4617,0.0031,-0.4893,-0.2178,0.0506,0.0675,-0.2925,-0.2972,-0.2361,0.3127,-0.3097,-0.213,0.2987,-0.1365,0.2972,-0.3112,0.0863,-0.3001,0.2201,-0.0875,0.2878,-0.2951,0.1965,0.2769,1.3132,-0.0411,0.0361,0.094,-0.3032,-1.0,0.0489,-1.0,1.0,-1.0,1.0,1.0,0.6134,0.9913,-1.0,-1.0,-0.4582,1.0,1.0,0.4936,-1.0,1.0,1.0,0.0,0.0,0.0,0.0,0.0,0.0,0.0,0.0,0.0,0.3333,0.0,0.3333,0.0,0
4.24,run,14.72,-0.94,-4.76,2.18,-35.28,0.0,0.05,0.0,0.851,10.81,-47.9,123.57,-8.88,-56.34,98.96,7.21,-59.06,131.48,-16.79,1.85,89.12,-26.98,8.35,67.5,-12.22,20.92,85.87,-0.6,-52.0,112.22,-2.0,-63.71,107.87,19.34,-48.91,138.7,-30.0,-9.24,83.25,-21.5,19.5,72.18,-23.0,20.53,98.87,-1.0,1.0,-0.8424,1.0,-1.0,1.0,1.0,1.0,-1.0,-1.0,-1.0,0.5606,1.0,1.0,-0.5319,-1.0,0.7372,1.0,0.006,0.019,0.006,0.019,0.019,0.013,0.013,0.013,0.136,0.026,0.0,0.0,0.013,0.013,0.006,0.0,0.149,0.091,0.27,-0.925,0.5691,-0.2286,-1.2548,0.3436,0.1549,-1.1612,0.6657,-0.3237,-0.2316,0.2056,-0.4387,0.0153,-0.4633,-0.2424,0.0583,0.0905,-0.3026,-0.3002,-0.2229,0.3053,-0.3089,-0.1779,0.3012,-0.0725,0.2829,-0.3157,0.0144,-0.3022,0.2405,-0.0152,0.2993,-0.2987,0.1663,0.2802,1.3108,-0.0386,-0.0264,0.0114,-0.4917,-1.0,1.0,-1.0,1.0,-1.0,1.0,1.0,1.0,0.0801,-1.0,-1.0,0.3313,1.0,1.0,-0.0721,-1.0,0.6323,1.0,0.0,0.0,0.0,0.0,0.0,0.0,0.0,0.0,0.0,0.3333,0.0,0.3333,0.0,0
4.28,run,14.51,-0.74,-4.05,4.0,-36.64,0.0,0.05,0.0,0.851,9.67,-49.22,121.82,-7.47,-57.83,99.32,8.61,-58.18,132.63,-18.46,0.62,87.71,-25.58,9.76,68.82,-13.54,21.09,87.19,-2.1,-50.5,110.72,-0.5,-65.21,109.37,20.84,-47.41,137.2,-31.5,-10.74,84.75,-20.0,21.0,70.68,-24.5,20.98,100.37,-0.6654,1.0,-0.5616,0.6799,-1.0,1.0,1.0,1.0,-1.0,-1.0,-1.0,1.0,1.0,1.0,-1.0,-1.0,0.8359,1.0,0.006,0.019,0.006,0.019,0.019,0.013,0.013,0.013,0.136,0.026,0.0,0.0,0.013,0.013,0.006,0.0,0.149,0.091,0.247,-0.9495,0.5384,-0.2025,-1.2793,0.3421,0.181,-1.1459,0.6857,-0.3513,-0.2516,0.181,-0.4142,0.0307,-0.4387,-0.273,0.066,0.1135,-0.2982,-0.3022,-0.2711,0.3115,-0.3083,-0.1303,0.3087,0.0068,0.2728,-0.3246,-0.0648,-0.3036,0.2604,0.0469,0.3016,-0.3242,0.1452,0.2824,1.2957,-0.0238,-0.083,0.038,-0.6158,-1.0,1.0,-0.8424,1.0,-1.0,1.0,1.0,1.0,-1.0,-1.0,-1.0,0.5606,1.0,1.0,-0.5319,-1.0,0.7372,1.0,0.0,0.0,0.0,0.0,0.0,0.0,0.0,0.0,0.0,0.3333,0.0,0.3333,0.0,0
4.32,run,14.49,-0.66,-2.57,-0.25,-26.13,0.0,0.05,0.0,0.851,8.0,-50.36,120.5,-6.06,-59.24,100.28,10.02,-56.69,133.68,-19.95,-0.53,86.48,-24.08,11.16,70.22,-15.03,21.09,88.42,-3.6,-49.0,109.22,-2.0,-66.71,110.87,22.34,-45.91,135.7,-33.0,-12.24,86.25,-18.5,22.5,69.18,-26.0,19.48,101.87,-0.3981,1.0,-0.455,-1.0,-1.0,1.0,1.0,1.0,-1.0,-1.0,-1.0,1.0,1.0,1.0,-1.0,-1.0,0.4467,1.0,0.006,0.019,0.006,0.019,0.019,0.013,0.013,0.013,0.136,0.026,0.0,0.0,0.013,0.013,0.006,0.0,0.149,0.091,0.227,-0.9725,0.5077,-0.1779,-1.3054,0.3482,0.2056,-1.1305,0.7056,-0.3804,-0.273,0.1565,-0.3896,0.0552,-0.4157,-0.2961,0.069,0.1365,-0.2835,-0.2978,-0.3048,0.31,-0.3136,-0.0682,0.308,0.0622,0.2657,-0.3365,-0.1258,-0.3045,0.2743,0.1248,0.2974,-0.3132,0.1131,0.284,1.2779,-0.0062,-0.0706,0.0698,-0.6395,-0.6654,1.0,-0.5616,0.6799,-1.0,1.0,1.0,1.0,-1.0,-1.0,-1.0,1.0,1.0,1.0,-1.0,-1.0,0.8359,1.0,0.0,0.0,0.0,0.0,0.0,0.0,0.0,0.0,0.0,0.3333,0.0,0.3333,0.0,0
4.36,run,14.63,-0.35,1.77,6.89,-13.65,0.0,0.05,0.0,0.851,6.68,-51.15,119.27,-4.75,-60.64,101.34,11.43,-55.28,134.47,-21.36,-1.67,85.43,-22.68,12.57,71.1,-16.52,21.09,89.74,-2.1,-47.5,107.72,-3.5,-68.21,112.37,20.84,-44.41,134.2,-34.5,-13.74,87.75,-17.0,24.0,67.68,-27.5,17.98,103.37,0.8374,1.0,0.0354,-1.0,-1.0,1.0,0.3634,0.2681,-1.0,-1.0,-1.0,1.0,1.0,1.0,-1.0,-1.0,-0.6897,1.0,0.013,0.013,0.019,0.013,0.026,0.019,0.013,0.006,0.227,0.019,0.026,0.006,0.013,0.0,0.006,0.0,0.013,0.136,0.1979,-0.9925,0.4847,-0.1534,-1.33,0.3651,0.2301,-1.1045,0.724,-0.4065,-0.293,0.135,-0.3636,0.0798,-0.3912,-0.3221,0.069,0.158,-0.3074,-0.283,-0.2993,0.3088,-0.3112,0.0153,0.3074,0.141,0.2548,-0.333,-0.1626,-0.2934,0.2895,0.1791,0.2999,-0.3167,0.0792,0.279,1.2759,0.0009,-0.0449,-0.0043,-0.4561,-0.3981,1.0,-0.455,-1.0,-1.0,1.0,1.0,1.0,-1.0,-1.0,-1.0,1.0,1.0,1.0,-1.0,-1.0,0.4467,1.0,0.0,0.0,0.0,0.0,0.0,0.0,0.0,0.0,0.0,0.3333,0.0,0.3333,0.0,0
4.4,run,14.78,-0.11,2.74,5.19,-3.51,0.0,0.05,0.0,0.851,5.19,-51.68,117.86,-3.78,-61.96,102.66,12.83,-53.88,134.91,-22.68,-3.08,84.9,-21.27,14.06,71.81,-17.84,20.83,91.05,-0.6,-46.0,106.22,-5.0,-69.71,113.87,19.34,-45.91,132.7,-35.0,-15.24,89.25,-15.5,25.5,66.18,-29.0,16.48,101.87,1.0,1.0,-0.5236,-1.0,-1.0,1.0,0.1679,-1.0,-1.0,-1.0,-1.0,1.0,1.0,1.0,-1.0,-1.0,-1.0,-0.7381,0.013,0.013,0.019,0.013,0.026,0.019,0.013,0.006,0.227,0.019,0.026,0.006,0.013,0.0,0.006,0.0,0.013,0.136,0.1749,-1.0063,0.4633,-0.1304,-1.3545,0.3835,0.2546,-1.0799,0.7378,-0.431,-0.3129,0.1166,-0.339,0.1043,-0.3758,-0.3482,0.069,0.181,-0.3016,-0.25,-0.2902,0.3026,-0.3101,0.0799,0.3074,0.191,0.2302,-0.3253,-0.1888,-0.2746,0.2949,0.2176,0.2676,-0.3197,0.0554,0.2818,1.2885,0.0279,0.0309,0.1202,-0.2383,0.8374,1.0,0.0354,-1.0,-1.0,1.0,0.3634,0.2681,-1.0,-1.0,-1.0,1.0,1.0,1.0,-1.0,-1.0,-0.6897,1.0,0.0,0.0,0.0,0.0,0.0,0.0,0.0,0.0,0.0,0.3333,0.0,0.3333,0.0,0
4.44,run,15.03,0.23,5.92,7.36,-1.03,0.0,0.05,0.0,0.851,3.78,-51.86,116.37,-2.99,-63.46,104.15,14.24,-52.47,135.0,-24.08,-4.66,84.2,-19.95,15.03,71.89,-18.98,19.6,92.37,0.9,-44.5,104.72,-6.5,-71.21,115.37,17.84,-47.41,131.2,-33.5,-16.74,90.75,-14.0,27.0,64.68,-30.5,14.98,100.37,1.0,1.0,0.0749,-1.0,-1.0,1.0,-0.8848,-1.0,-1.0,-0.7578,-1.0,1.0,0.6739,1.0,-1.0,-1.0,-1.0,-1.0,0.013,0.013,0.019,0.013,0.026,0.019,0.013,0.006,0.227,0.019,0.026,0.006,0.013,0.0,0.006,0.0,0.013,0.136,0.1488,-1.0155,0.4387,-0.1135,-1.3775,0.4065,0.2792,-1.0554,0.7455,-0.4541,-0.3375,0.1074,-0.3145,0.1304,-0.3636,-0.3712,0.0644,0.204,-0.3089,-0.2095,-0.2952,0.2751,-0.3033,0.1422,0.3072,0.2257,0.1899,-0.314,-0.2242,-0.2267,0.2984,0.2501,0.2333,-0.31,0.0216,0.2835,1.3013,0.0488,0.0478,0.0905,-0.0612,1.0,1.0,-0.5236,-1.0,-1.0,1.0,0.1679,-1.0,-1.0,-1.0,-1.0,1.0,1.0,1.0,-1.0,-1.0,-1.0,-0.7381,0.0,0.0,0.0,0.0,0.0,0.0,0.0,0.0,0.0,0.3333,0.0,0.3333,0.0,0
4.48,run,15.3,0.76,8.47,12.26,-1.81,0.0,0.05,0.0,0.851,2.46,-51.86,114.87,-2.64,-64.86,105.47,15.56,-51.06,135.09,-25.58,-5.98,84.11,-18.54,16.7,71.72,-20.48,18.46,93.78,2.4,-43.0,103.22,-8.0,-72.71,116.87,16.34,-48.91,129.7,-32.0,-18.24,92.25,-15.5,28.5,63.18,-32.0,13.48,98.87,1.0,1.0,0.3717,-1.0,-1.0,1.0,-1.0,-1.0,-1.0,0.6696,-1.0,1.0,-0.8772,1.0,-1.0,-1.0,-1.0,-1.0,0.006,0.013,0.013,0.006,0.019,0.013,0.013,0.013,0.201,0.013,0.019,0.006,0.013,0.013,0.0,0.006,0.0,0.117,0.1243,-1.0186,0.4126,-0.0997,-1.4036,0.4326,0.3037,-1.0308,0.747,-0.4786,-0.3651,0.0951,-0.2915,0.1473,-0.362,-0.3912,0.043,0.227,-0.3084,-0.1582,-0.3046,0.2444,-0.3103,0.1975,0.3072,0.2502,0.1387,-0.312,-0.2606,-0.2048,0.2953,0.2384,0.1691,-0.2919,-0.0656,0.2849,1.3231,0.0786,0.1034,0.1284,-0.0179,1.0,1.0,0.0749,-1.0,-1.0,1.0,-0.8848,-1.0,-1.0,-0.7578,-1.0,1.0,0.6739,1.0,-1.0,-1.0,-1.0,-1.0,0.0,0.0,0.0,0.0,0.0,0.0,0.0,0.0,0.0,0.3333,0.0,0.3333,0.0,0
4.52,run,15.39,1.2,2.86,8.4,-7.16,0.0,0.05,0.0,0.851,1.49,-51.33,113.47,-2.46,-66.27,106.96,16.61,-49.75,135.09,-27.07,-7.38,84.55,-17.23,17.93,71.19,-21.88,17.05,95.19,3.9,-41.5,104.72,-9.5,-74.21,118.37,14.84,-50.41,128.2,-30.5,-19.74,93.75,-17.0,30.0,61.68,-33.5,11.98,97.37,1.0,1.0,0.9557,-1.0,-1.0,1.0,-1.0,-1.0,-1.0,1.0,-1.0,1.0,-1.0,1.0,-1.0,-1.0,-1.0,-1.0,0.006,0.013,0.013,0.006,0.019,0.013,0.013,0.013,0.201,0.013,0.019,0.006,0.013,0.013,0.0,0.006,0.0,0.117,0.1012,-1.0186,0.3866,-0.0936,-1.4281,0.4556,0.3267,-1.0063,0.7486,-0.5047,-0.3881,0.0936,-0.2669,0.1764,-0.3651,-0.4172,0.023,0.2516,-0.3022,-0.1107,-0.311,0.1941,-0.3092,0.2245,0.3013,0.2672,0.1028,-0.3162,-0.2687,-0.1491,0.2988,0.2762,0.1068,-0.3021,-0.1207,0.2915,1.347,0.1245,0.1478,0.214,-0.0315,1.0,1.0,0.3717,-1.0,-1.0,1.0,-1.0,-1.0,-1.0,0.6696,-1.0,1.0,-0.8772,1.0,-1.0,-1.0,-1.0,-1.0,0.0,0.0,0.0,0.0,0.0,0.0,0.0,0.0,0.0,0.3333,0.0,0.3333,0.0,0
4.56,run,15.62,1.76,5.51,12.34,-7.2,0.0,0.05,0.0,0.851,0.79,-50.45,112.06,-2.55,-67.68,108.37,17.49,-48.78,135.18,-28.39,-8.79,85.25,-16.26,19.34,70.31,-23.29,15.73,96.42,5.4,-40.0,106.22,-11.0,-75.71,119.87,13.34,-51.91,126.7,-29.0,-21.24,95.25,-18.5,30.0,60.18,-35.0,10.48,95.87,1.0,1.0,1.0,-1.0,-1.0,1.0,-1.0,-1.0,-1.0,1.0,-1.0,1.0,-1.0,1.0,-1.0,-1.0,-1.0,-1.0,0.006,0.013,0.013,0.006,0.019,0.013,0.013,0.013,0.201,0.013,0.019,0.006,0.013,0.013,0.0,0.006,0.0,0.117,0.0844,-1.0094,0.362,-0.0905,-1.4527,0.4817,0.3451,-0.9833,0.7486,-0.5308,-0.4126,0.1012,-0.2439,0.1979,-0.3743,-0.4418,-0.0015,0.2761,-0.2744,-0.0432,-0.3091,0.1473,-0.3079,0.2543,0.2795,0.2727,0.072,-0.3184,-0.2795,-0.0758,0.2948,0.2733,0.0405,-0.3029,-0.1759,0.2954,1.3544,0.1628,0.0498,0.1466,-0.1249,1.0,1.0,0.9557,-1.0,-1.0,1.0,-1.0,-1.0,-1.0,1.0,-1.0,1.0,-1.0,1.0,-1.0,-1.0,-1.0,-1.0,0.0,0.0,0.0,0.0,0.0,0.0,0.0,0.0,0.0,0.3333,0.0,0.3333,0.0,0
4.6,run,16.08,2.47,9.86,16.79,-7.25,0.0,0.05,0.0,0.851,0.44,-49.57,110.65,-3.08,-69.17,109.78,18.02,-48.08,135.09,-29.44,-10.2,86.22,-15.56,20.74,69.08,-24.7,14.33,97.29,6.9,-38.5,107.72,-12.5,-77.21,121.37,11.84,-53.41,125.2,-27.5,-22.74,96.75,-20.0,30.0,58.68,-35.0,8.98,94.37,1.0,1.0,1.0,-1.0,-1.0,1.0,-1.0,-1.0,-1.0,1.0,-1.0,1.0,-1.0,1.0,-1.0,-1.0,-1.0,-1.0,0.0,0.039,0.013,0.006,0.026,0.013,0.0,0.0,0.0,0.013,0.019,0.019,0.006,0.026,0.006,0.026,0.0,0.084,0.0721,-0.994,0.3375,-0.092,-1.4772,0.5062,0.3605,-0.9664,0.7501,-0.5538,-0.4372,0.1135,-0.227,0.2224,-0.3896,-0.4663,-0.0245,0.2976,-0.2383,0.0276,-0.3089,0.0973,-0.308,0.2705,0.2535,0.2545,0.0562,-0.3096,-0.2882,-0.0068,0.27,0.2839,-0.0295,-0.3046,-0.2099,0.2878,1.3747,0.2124,0.0962,0.2154,-0.1256,1.0,1.0,1.0,-1.0,-1.0,1.0,-1.0,-1.0,-1.0,1.0,-1.0,1.0,-1.0,1.0,-1.0,-1.0,-1.0,-1.0,0.0,0.0,0.0,0.0,0.0,0.0,0.0,0.0,0.0,0.3333,0.0,0.3333,0.0,0
4.64,run,16.63,3.19,11.0,14.39,-14.03,0.0,0.05,0.0,0.851,0.44,-47.64,108.9,-4.13,-70.93,111.53,18.11,-47.64,134.38,-30.41,-11.95,87.89,-15.12,22.41,67.41,-26.46,12.74,98.09,8.4,-37.0,109.22,-14.0,-78.71,122.87,10.34,-54.91,123.7,-26.0,-24.24,98.25,-21.5,30.0,57.18,-35.0,7.48,92.87,1.0,1.0,1.0,-1.0,-1.0,1.0,-1.0,-1.0,-1.0,1.0,-1.0,1.0,-1.0,1.0,-0.9669,-1.0,-1.0,-1.0,0.0,0.039,0.013,0.006,0.026,0.013,0.0,0.0,0.0,0.013,0.019,0.019,0.006,0.026,0.006,0.026,0.0,0.084,0.066,-0.9787,0.3129,-0.1012,-1.5033,0.5308,0.3697,-0.9541,0.7486,-0.5722,-0.4617,0.1304,-0.2148,0.247,-0.4111,-0.4909,-0.0491,0.3129,-0.1898,0.0767,-0.308,0.0337,-0.3132,0.2812,0.2119,0.2241,0.0336,-0.2856,-0.2935,0.0584,0.2349,0.2905,-0.101,-0.305,-0.2387,0.2588,1.4146,0.274,0.1721,0.293,-0.1265,1.0,1.0,1.0,-1.0,-1.0,1.0,-1.0,-1.0,-1.0,1.0,-1.0,1.0,-1.0,1.0,-1.0,-1.0,-1.0,-1.0,0.0,0.0,0.0,0.0,0.0,0.0,0.0,0.0,0.0,0.3333,0.0,0.3333,0.0,0
4.68,run,16.93,3.6,6.66,9.32,-13.68,0.0,0.05,0.0,0.851,0.97,-46.32,107.75,-4.92,-72.25,113.03,18.02,-47.64,133.33,-30.76,-13.36,89.3,-15.12,23.82,65.92,-27.86,11.43,98.17,9.9,-35.5,110.72,-15.5,-80.0,124.37,8.84,-56.41,122.2,-24.5,-25.74,99.75,-23.0,30.0,55.68,-35.0,5.98,91.37,1.0,1.0,1.0,-1.0,-1.0,1.0,-1.0,-1.0,-1.0,1.0,-1.0,1.0,-1.0,1.0,-0.5003,-1.0,-0.8066,-1.0,0.0,0.039,0.013,0.006,0.026,0.013,0.0,0.0,0.0,0.013,0.019,0.019,0.006,0.026,0.006,0.026,0.0,0.084,0.066,-0.9449,0.2823,-0.1197,-1.534,0.5614,0.3712,-0.9465,0.7363,-0.589,-0.4924,0.1595,-0.2071,0.2761,-0.4403,-0.5216,-0.0767,0.3267,-0.1328,0.1576,-0.3101,-0.0331,-0.3137,0.2913,0.153,0.1805,-0.0143,-0.2519,-0.2999,0.1306,0.188,0.2931,-0.1604,-0.308,-0.2521,0.2237,1.4623,0.3369,0.192,0.2512,-0.2448,1.0,1.0,1.0,-1.0,-1.0,1.0,-1.0,-1.0,-1.0,1.0,-1.0,1.0,-1.0,1.0,-0.9669,-1.0,-1.0,-1.0,0.0,0.0,0.0,0.0,0.0,0.0,0.0,0.0,0.0,0.3333,0.0,0.3333,0.0,0
4.72,run,16.99,3.57,0.42,-3.14,-12.77,0.0,0.05,0.0,0.851,1.85,-45.0,107.4,-6.5,-73.74,114.43,17.4,-48.25,132.28,-30.85,-14.85,90.7,-15.73,25.22,64.51,-29.36,10.02,98.17,11.4,-34.0,112.22,-17.0,-80.0,125.87,7.34,-57.91,120.7,-23.0,-27.24,101.25,-24.5,30.0,54.18,-35.0,4.48,89.87,1.0,1.0,1.0,-1.0,-1.0,1.0,-1.0,-1.0,-1.0,1.0,-1.0,1.0,-1.0,1.0,-0.7466,-1.0,-0.4535,-1.0,0.019,0.033,0.0,0.006,0.026,0.013,0.019,0.013,0.013,0.013,0.019,0.006,0.0,0.033,0.006,0.019,0.0,0.0,0.0752,-0.9219,0.2623,-0.1335,-1.557,0.5875,0.3697,-0.9465,0.7179,-0.5952,-0.517,0.1841,-0.2071,0.3007,-0.4663,-0.5461,-0.0997,0.3283,-0.0586,0.1963,-0.2915,-0.0747,-0.3055,0.3013,0.1014,0.1263,-0.0788,-0.1992,-0.3016,0.1831,0.1316,0.2968,-0.2097,-0.3073,-0.2624,0.1623,1.4886,0.373,0.1162,0.1626,-0.2388,1.0,1.0,1.0,-1.0,-1.0,1.0,-1.0,-1.0,-1.0,1.0,-1.0,1.0,-1.0,1.0,-0.5003,-1.0,-0.8066,-1.0,0.0,0.0,0.0,0.0,0.0,0.0,0.0,0.0,0.0,0.3333,0.0,0.3333,0.0,0
4.76,run,16.71,3.26,-8.47,-11.71,-2.23,0.0,0.05,0.0,0.851,2.72,-43.77,106.79,-8.09,-75.15,115.84,16.52,-49.22,131.04,-30.67,-16.17,92.11,-16.35,26.54,63.11,-30.76,8.79,97.91,12.9,-32.5,113.72,-18.5,-80.0,127.37,5.84,-59.41,119.2,-21.5,-28.74,102.75,-26.0,30.0,52.68,-35.0,2.98,88.37,1.0,0.2713,1.0,-1.0,-1.0,1.0,-1.0,-1.0,-1.0,1.0,-0.7025,1.0,-1.0,1.0,-1.0,-1.0,-0.3286,-1.0,0.019,0.033,0.0,0.006,0.026,0.013,0.019,0.013,0.013,0.013,0.019,0.006,0.0,0.033,0.006,0.019,0.0,0.0,0.0905,-0.8989,0.2562,-0.1611,-1.5831,0.6121,0.359,-0.9572,0.6995,-0.5967,-0.543,0.2086,-0.2178,0.3252,-0.4909,-0.5722,-0.1243,0.3283,0.0161,0.223,-0.2269,-0.1551,-0.3109,0.3022,0.031,0.0485,-0.1236,-0.1452,-0.3082,0.2195,0.0522,0.2991,-0.2381,-0.3121,-0.275,0.1136,1.4938,0.3703,0.0073,-0.0548,-0.2229,1.0,1.0,1.0,-1.0,-1.0,1.0,-1.0,-1.0,-1.0,1.0,-1.0,1.0,-1.0,1.0,-0.7466,-1.0,-0.4535,-1.0,0.0,0.0,0.0,0.0,0.0,0.0,0.0,0.0,0.0,0.3333,0.0,0.3333,0.0,0
4.8,run,16.38,2.89,-7.93,-11.06,4.67,0.0,0.05,0.0,0.851,4.04,-42.36,106.44,-9.4,-76.55,117.25,15.03,-50.27,130.17,-29.53,-17.67,93.6,-17.58,27.6,61.7,-32.08,7.47,97.12,14.4,-34.0,115.22,-20.0,-80.0,128.87,4.34,-58.77,117.7,-20.0,-30.24,104.25,-27.5,30.0,51.18,-33.5,1.48,86.87,1.0,-0.5615,1.0,-1.0,-1.0,1.0,-1.0,-0.6139,-1.0,1.0,-0.4798,1.0,-1.0,1.0,-1.0,-0.4988,-0.3497,-1.0,0.019,0.033,0.0,0.006,0.026,0.013,0.019,0.013,0.013,0.013,0.019,0.006,0.0,0.033,0.006,0.019,0.0,0.0,0.1058,-0.8774,0.2454,-0.1887,-1.6076,0.6366,0.3436,-0.9741,0.678,-0.5937,-0.566,0.2332,-0.2286,0.3482,-0.5154,-0.5967,-0.1457,0.3237,0.0689,0.2368,-0.1992,-0.2123,-0.3099,0.3038,-0.0359,-0.0295,-0.1672,-0.0901,-0.3022,0.2459,-0.0038,0.2958,-0.2589,-0.3107,-0.2732,0.0622,1.4701,0.3425,-0.1479,-0.2043,-0.0389,1.0,0.2713,1.0,-1.0,-1.0,1.0,-1.0,-1.0,-1.0,1.0,-0.7025,1.0,-1.0,1.0,-1.0,-1.0,-0.3286,-1.0,0.0,0.0,0.0,0.0,0.0,0.0,0.0,0.0,0.0,0.3333,0.0,0.3333,0.0,0
4.84,run,15.88,2.63,-11.62,-6.77,-3.97,0.0,0.05,0.0,0.851,5.62,-40.78,106.52,-10.9,-77.7,118.74,13.62,-51.68,128.67,-28.65,-18.98,94.92,-18.9,28.39,60.12,-33.13,6.24,95.89,15.9,-35.5,116.72,-21.5,-78.5,130.1,2.84,-60.27,116.2,-18.5,-31.74,105.75,-29.0,30.0,49.68,-32.0,-0.02,85.37,1.0,-1.0,1.0,-1.0,-0.8091,0.7659,-1.0,-0.6871,-1.0,1.0,-0.6393,1.0,-1.0,1.0,-1.0,0.4387,0.1155,-1.0,0.026,0.033,0.013,0.013,0.006,0.013,0.013,0.006,0.019,0.033,0.019,0.006,0.026,0.039,0.0,0.019,0.0,0.006,0.1289,-0.8529,0.2393,-0.2117,-1.6322,0.6611,0.3175,-0.9925,0.6627,-0.5737,-0.5921,0.2592,-0.25,0.3666,-0.54,-0.6197,-0.1687,0.3099,0.1346,0.2579,-0.1625,-0.235,-0.309,0.3048,-0.123,-0.0897,-0.1746,0.0118,-0.3094,0.27,-0.0833,0.2762,-0.2734,-0.3039,-0.2776,-0.0083,1.4406,0.3108,-0.1384,-0.1931,0.0814,1.0,-0.5615,1.0,-1.0,-1.0,1.0,-1.0,-0.6139,-1.0,1.0,-0.4798,1.0,-1.0,1.0,-1.0,-0.4988,-0.3497,-1.0,0.0,0.0,0.0,0.0,0.0,0.0,0.0,0.0,0.0,0.3333,0.0,0.3333,0.0,0
4.88,run,15.69,2.41,-5.47,-4.88,-9.09,0.0,0.05,0.0,0.851,6.94,-39.46,107.4,-12.3,-78.66,120.15,12.22,-53.09,127.18,-27.33,-20.48,96.42,-20.3,28.92,58.71,-34.01,4.92,94.66,17.4,-37.0,118.22,-23.0,-77.0,128.6,1.34,-58.77,114.7,-17.0,-33.24,107.25,-30.5,30.0,48.18,-30.5,1.48,83.87,1.0,-1.0,1.0,-1.0,0.9131,-0.2735,-1.0,-0.3672,-1.0,1.0,-0.9765,1.0,-1.0,1.0,-0.9891,1.0,1.0,-1.0,0.026,0.033,0.013,0.013,0.006,0.013,0.013,0.006,0.019,0.033,0.019,0.006,0.026,0.039,0.0,0.019,0.0,0.006,0.1565,-0.8253,0.2408,-0.2378,-1.6521,0.6872,0.293,-1.017,0.6366,-0.5584,-0.6151,0.2823,-0.273,0.3804,-0.5676,-0.6381,-0.1902,0.2884,0.1977,0.284,-0.108,-0.2622,-0.291,0.3111,-0.1781,-0.1548,-0.22,0.0657,-0.3028,0.2752,-0.1445,0.2451,-0.2948,-0.2817,-0.2748,-0.0863,1.3977,0.2881,-0.2028,-0.1181,-0.0692,1.0,-1.0,1.0,-1.0,-0.8091,0.7659,-1.0,-0.6871,-1.0,1.0,-0.6393,1.0,-1.0,1.0,-1.0,0.4387,0.1155,-1.0,0.0,0.0,0.0,0.0,0.0,0.0,0.0,0.0,0.0,0.3333,0.0,0.3333,0.0,0
4.92,run,15.51,2.39,-4.6,-2.77,-6.15,0.0,0.05,0.0,0.851,8.17,-38.41,108.37,-13.71,-79.19,121.55,10.81,-54.49,125.86,-25.75,-21.88,97.82,-21.71,29.09,57.39,-34.72,3.69,93.25,17.55,-38.5,119.72,-24.5,-75.5,127.1,-0.16,-57.27,113.2,-15.5,-34.74,108.75,-32.0,30.0,49.68,-29.0,2.98,82.37,0.5015,-1.0,1.0,-1.0,1.0,-1.0,-1.0,-0.1779,-1.0,1.0,-0.5558,1.0,-1.0,1.0,-0.1503,1.0,1.0,-1.0,0.026,0.033,0.013,0.013,0.006,0.013,0.013,0.006,0.019,0.033,0.019,0.006,0.026,0.039,0.0,0.019,0.0,0.006,0.1795,-0.8023,0.2562,-0.2623,-1.669,0.7118,0.2684,-1.0416,0.6105,-0.5354,-0.6412,0.3083,-0.2976,0.3896,-0.5921,-0.6535,-0.2132,0.2669,0.2247,0.2851,-0.0181,-0.2756,-0.267,0.3098,-0.2167,-0.2004,-0.2518,0.1323,-0.3098,0.2904,-0.1932,0.2061,-0.2984,-0.2547,-0.2787,-0.1409,1.3807,0.2688,-0.0955,-0.0852,-0.1586,1.0,-1.0,1.0,-1.0,0.9131,-0.2735,-1.0,-0.3672,-1.0,1.0,-0.9765,1.0,-1.0,1.0,-0.9891,1.0,1.0,-1.0,0.0,0.0,0.0,0.0,0.0,0.0,0.0,0.0,0.0,0.3333,0.0,0.3333,0.0,0
4.96,run,14.96,2.63,-15.42,4.05,-2.48,0.0,0.05,0.0,0.851,9.49,-37.53,109.69,-15.21,-79.45,122.96,9.4,-55.63,124.45,-24.43,-23.29,99.23,-23.03,29.27,55.9,-34.8,2.72,91.85,19.05,-40.0,121.22,-26.0,-74.0,125.6,-1.66,-55.77,111.7,-14.0,-33.24,110.25,-33.5,30.0,51.18,-27.5,4.48,80.87,1.0,-1.0,1.0,-1.0,1.0,-1.0,-1.0,-0.1796,-1.0,1.0,0.2955,1.0,-1.0,1.0,0.7036,1.0,1.0,-1.0,0.071,0.039,0.026,0.013,0.0,0.006,0.006,0.026,0.026,0.013,0.019,0.013,0.019,0.026,0.006,0.0,0.013,0.013,0.201,-0.7839,0.273,-0.2869,-1.6782,0.7363,0.2439,-1.0661,0.5875,-0.5077,-0.6657,0.3329,-0.3221,0.3927,-0.6151,-0.6657,-0.2347,0.2424,0.2378,0.2686,0.0507,-0.285,-0.2214,0.3089,-0.2438,-0.2324,-0.2626,0.1962,-0.3089,0.2954,-0.2273,0.1558,-0.2952,-0.2243,-0.2756,-0.1907,1.3649,0.2673,-0.0803,-0.0483,-0.1073,0.5015,-1.0,1.0,-1.0,1.0,-1.0,-1.0,-0.1779,-1.0,1.0,-0.5558,1.0,-1.0,1.0,-0.1503,1.0,1.0,-1.0,0.0,0.0,0.0,0.0,0.0,0.0,0.0,0.0,0.0,0.3333,0.0,0.3333,0.0,0
5.0,run,14.15,2.84,-21.08,3.13,2.03,0.0,0.05,0.0,0.851,10.81,-37.0,111.01,-16.61,-79.54,124.28,8.0,-56.6,123.05,-23.03,-24.7,100.63,-24.35,29.36,54.4,-34.54,1.93,90.53,20.55,-41.5,122.72,-27.5,-72.5,124.1,-3.16,-54.27,110.2,-12.5,-31.74,111.75,-35.0,30.0,52.68,-26.0,5.98,79.37,1.0,-1.0,1.0,-1.0,1.0,-1.0,-1.0,-0.0908,-1.0,1.0,1.0,1.0,-1.0,1.0,0.6709,1.0,1.0,-1.0,0.071,0.039,0.026,0.013,0.0,0.006,0.006,0.026,0.026,0.013,0.019,0.013,0.019,0.026,0.006,0.0,0.013,0.013,0.224,-0.7685,0.2961,-0.3129,-1.6828,0.7609,0.2194,-1.0861,0.563,-0.4847,-0.6903,0.3574,-0.3451,0.3958,-0.6412,-0.6673,-0.2516,0.2178,0.2527,0.2455,0.1217,-0.2972,-0.1723,0.3082,-0.2626,-0.2374,-0.2758,0.2236,-0.3082,0.2988,-0.2454,0.1205,-0.3044,-0.1628,-0.2562,-0.2255,1.3168,0.2876,-0.2691,0.0707,-0.0433,1.0,-1.0,1.0,-1.0,1.0,-1.0,-1.0,-0.1796,-1.0,1.0,0.2955,1.0,-1.0,1.0,0.7036,1.0,1.0,-1.0,0.0,0.0,0.0,0.0,0.0,0.0,0.0,0.0,0.0,0.3333,0.0,0.3333,0.0,0
5.04,run,13.03,3.13,-28.59,5.48,3.96,0.0,0.048,0.0,0.851,12.3,-36.74,112.32,-18.02,-79.28,125.33,6.59,-57.3,121.55,-21.62,-26.1,102.04,-25.75,29.36,53.0,-34.01,0.79,89.03,22.05,-43.0,124.22,-29.0,-71.0,122.6,-4.66,-52.77,108.7,-11.0,-30.24,113.25,-35.0,30.0,54.18,-24.5,7.48,77.87,0.7164,-1.0,1.0,-1.0,1.0,-1.0,-1.0,0.5428,-1.0,1.0,1.0,1.0,-1.0,1.0,0.6837,1.0,1.0,-1.0,0.071,0.039,0.026,0.013,0.0,0.006,0.006,0.026,0.026,0.013,0.019,0.013,0.019,0.026,0.006,0.0,0.013,0.013,0.247,-0.7593,0.3191,-0.3375,-1.6843,0.7839,0.1948,-1.1029,0.5384,-0.4602,-0.7148,0.382,-0.3682,0.3973,-0.6673,-0.6627,-0.2654,0.1948,0.2637,0.2066,0.172,-0.3006,-0.1264,0.3026,-0.2764,-0.2298,-0.2856,0.2491,-0.3083,0.3017,-0.2586,0.0902,-0.3114,-0.0966,-0.2314,-0.2446,1.246,0.306,-0.3678,0.0547,0.0355,1.0,-1.0,1.0,-1.0,1.0,-1.0,-1.0,-0.0908,-1.0,1.0,1.0,1.0,-1.0,1.0,0.6709,1.0,1.0,-1.0,0.0,0.0,0.0,0.0,0.0,0.0,0.0,0.0,0.0,0.32,0.0,0.32,0.0,0
5.08,run,11.98,3.34,-25.29,4.55,4.94,0.0,0.046,0.0,0.851,13.8,-36.74,113.64,-19.42,-78.49,125.95,5.19,-57.66,120.15,-20.21,-27.51,103.45,-27.07,29.36,52.03,-32.87,0.53,87.63,20.55,-44.5,125.72,-30.5,-69.5,121.1,-6.16,-51.27,107.2,-9.5,-28.74,114.75,-35.0,30.0,55.68,-23.0,8.98,76.37,-0.1204,-0.4638,1.0,-1.0,1.0,-1.0,-1.0,0.8333,-1.0,1.0,1.0,0.8588,-1.0,1.0,0.5273,1.0,1.0,-1.0,0.052,0.0,0.033,0.013,0.019,0.0,0.013,0.006,0.033,0.019,0.013,0.006,0.039,0.033,0.0,0.006,0.013,0.006,0.273,-0.7547,0.3421,-0.362,-1.6797,0.8023,0.1703,-1.1152,0.5123,-0.4357,-0.7394,0.4065,-0.3927,0.3973,-0.6918,-0.6535,-0.2853,0.1687,0.2818,0.1618,0.2062,-0.3019,-0.0713,0.2804,-0.285,-0.2066,-0.2972,0.2659,-0.3073,0.3027,-0.2725,0.0631,-0.3095,-0.0333,-0.2363,-0.2685,1.1482,0.3317,-0.4989,0.0956,0.0691,0.7164,-1.0,1.0,-1.0,1.0,-1.0,-1.0,0.5428,-1.0,1.0,1.0,1.0,-1.0,1.0,0.6837,1.0,1.0,-1.0,0.0,0.0,0.0,0.0,0.0,0.0,0.0,0.0,0.0,0.3067,0.0,0.3067,0.0,0
5.12,run,11.56,3.39,-8.68,0.64,2.61,0.0,0.044,0.0,0.851,15.38,-36.91,115.22,-20.92,-77.17,126.39,3.69,-57.83,118.65,-18.63,-28.56,105.03,-28.48,29.27,51.42,-31.64,0.53,86.13,19.05,-43.0,127.22,-32.0,-68.0,119.6,-7.66,-49.77,105.7,-8.0,-27.24,113.25,-35.0,28.5,57.18,-21.5,10.48,74.87,-0.0906,-0.1061,1.0,-1.0,1.0,-1.0,-1.0,0.5568,-1.0,1.0,1.0,0.5578,-1.0,0.8364,1.0,1.0,1.0,-1.0,0.052,0.0,0.033,0.013,0.019,0.0,0.013,0.006,0.033,0.019,0.013,0.006,0.039,0.033,0.0,0.006,0.013,0.006,0.2991,-0.7547,0.3651,-0.3866,-1.6659,0.813,0.1457,-1.1213,0.4878,-0.4111,-0.7639,0.431,-0.4157,0.3973,-0.7087,-0.6335,-0.2899,0.1442,0.295,0.1132,0.2306,-0.3034,0.0019,0.2366,-0.2915,-0.1676,-0.3,0.2781,-0.3072,0.3039,-0.277,0.0442,-0.2799,0.0515,-0.1827,-0.28,1.057,0.3497,-0.4414,0.0795,0.0862,-0.1204,-0.4638,1.0,-1.0,1.0,-1.0,-1.0,0.8333,-1.0,1.0,1.0,0.8588,-1.0,1.0,0.5273,1.0,1.0,-1.0,0.0,0.0,0.0,0.0,0.0,0.0,0.0,0.0,0.0,0.2933,0.0,0.2933,0.0,0
