t_s,phase,roll_deg,pitch_deg,gyro_x_dps,gyro_y_dps,gyro_z_dps,height_ref_mm,vx_ref_mps,vy_ref_mps,max_cur_a,q0_deg,q1_deg,q2_deg,q3_deg,q4_deg,q5_deg,q6_deg,q7_deg,q8_deg,q9_deg,q10_deg,q11_deg,q12_deg,q13_deg,q14_deg,q15_deg,q16_deg,q17_deg,cmd0_deg,cmd1_deg,cmd2_deg,cmd3_deg,cmd4_deg,cmd5_deg,cmd6_deg,cmd7_deg,cmd8_deg,cmd9_deg,cmd10_deg,cmd11_deg,cmd12_deg,cmd13_deg,cmd14_deg,cmd15_deg,cmd16_deg,cmd17_deg,act0,act1,act2,act3,act4,act5,act6,act7,act8,act9,act10,act11,act12,act13,act14,act15,act16,act17,cur0_a,cur1_a,cur2_a,cur3_a,cur4_a,cur5_a,cur6_a,cur7_a,cur8_a,cur9_a,cur10_a,cur11_a,cur12_a,cur13_a,cur14_a,cur15_a,cur16_a,cur17_a,obs0,obs1,obs2,obs3,obs4,obs5,obs6,obs7,obs8,obs9,obs10,obs11,obs12,obs13,obs14,obs15,obs16,obs17,obs18,obs19,obs20,obs21,obs22,obs23,obs24,obs25,obs26,obs27,obs28,obs29,obs30,obs31,obs32,obs33,obs34,obs35,obs36,obs37,obs38,obs39,obs40,obs41,obs42,obs43,obs44,obs45,obs46,obs47,obs48,obs49,obs50,obs51,obs52,obs53,obs54,obs55,obs56,obs57,obs58,obs59,obs60,obs61,obs62,obs63,obs64,obs65,obs66,obs67,obs68,obs69,obs70,obs71,rot60_k
0.0,run,-0.88,1.05,-0.55,0.49,-0.11,0.0,-0.0,0.0,0.026,0.0,19.25,79.63,-0.09,16.17,79.45,-0.18,19.34,79.72,0.26,15.91,79.1,-0.09,18.37,79.28,0.26,17.05,78.93,-1.59,17.75,78.13,-1.5,14.85,80.69,1.32,17.84,81.22,1.68,14.76,80.6,-1.59,17.13,77.78,-1.41,15.81,80.43,-0.907,-1.0,-0.439,-1.0,-1.0,1.0,1.0,-1.0,1.0,1.0,-1.0,1.0,-0.0746,-1.0,-0.2382,-1.0,-1.0,1.0,0.013,0.006,0.006,0.006,0.0,0.0,0.006,0.013,0.006,0.006,0.0,0.013,0.019,0.019,0.019,0.026,0.0,0.006,0.0,0.0,0.0,-0.0015,-0.0031,0.0046,0.0,0.0,0.0,0.0015,0.0,0.0,0.0,-0.0046,0.0,0.0031,-0.0031,0.0,0.0,0.0,0.0,-0.0032,-0.0076,0.0113,0.0,0.0,0.0,0.0038,0.0,0.0,0.0,-0.0108,0.0,0.007,-0.0076,0.0,0.0,0.0,0.0045,0.0021,0.0204,0.0,0.0,0.0,0.0,0.0,0.0,0.0,0.0,0.0,0.0,0.0,0.0,0.0,0.0,0.0,0.0,0.0,0.0,0.0,0.0,0.0,0.0,0.0,0.0,0.0,0.0,0.0,-0.0,0.0,-0.0,0.0,0
0.04,run,-0.92,1.01,-0.43,-1.32,-0.85,0.0,-0.0,0.0,0.026,-0.62,19.07,79.37,-0.26,16.0,79.89,-0.18,18.9,79.8,0.26,15.56,79.45,-0.44,18.19,79.1,-0.35,16.88,79.28,-3.09,19.25,79.63,-3.0,13.35,82.19,-0.18,16.34,79.72,3.18,13.26,82.1,-3.09,15.63,79.28,-2.91,14.31,81.93,-1.0,1.0,1.0,-1.0,-1.0,1.0,-1.0,-1.0,-1.0,1.0,-1.0,1.0,-1.0,0.0835,1.0,-1.0,-1.0,1.0,0.013,0.006,0.006,0.006,0.0,0.0,0.006,0.013,0.006,0.006,0.0,0.013,0.019,0.019,0.019,0.026,0.0,0.006,0.0015,0.0,0.0,-0.0015,-0.0031,0.0046,0.0,0.0,0.0,0.0015,-0.0061,0.0,0.0,-0.0046,0.0,0.0031,-0.0046,0.0,0.0025,0.0,0.0,-0.0022,-0.0053,0.0079,0.0,0.0,0.0,0.0026,-0.0101,0.0,0.0,-0.0075,0.0,0.0049,-0.0078,0.0,-0.0032,0.0043,-0.0096,0.0085,-0.002,-0.907,-1.0,-0.439,-1.0,-1.0,1.0,1.0,-1.0,1.0,1.0,-1.0,1.0,-0.0746,-1.0,-0.2382,-1.0,-1.0,1.0,0.0,0.0,0.0,0.0,0.0,0.0,0.0,0.0,0.0,-0.0,0.0,-0.0,0.0,0
0.08,run,-1.17,0.97,-5.89,-1.63,-3.77,0.0,-0.0,0.0,0.026,-1.32,18.37,78.84,-0.88,15.29,80.51,0.35,18.02,80.51,1.32,15.03,80.16,-1.23,17.49,78.22,-0.97,16.26,79.89,-1.59,17.75,81.13,-4.5,11.85,83.69,-1.68,17.84,81.22,4.68,11.76,83.6,-4.59,17.13,80.78,-4.41,12.81,83.43,0.3797,0.5393,0.3592,-1.0,-1.0,0.7282,-1.0,1.0,1.0,1.0,-1.0,1.0,-1.0,1.0,1.0,-1.0,-1.0,1.0,0.013,0.006,0.006,0.006,0.0,0.0,0.006,0.013,0.006,0.006,0.0,0.013,0.019,0.019,0.019,0.026,0.0,0.006,-0.0092,-0.0031,-0.0046,-0.0046,-0.0061,0.0123,0.0,-0.0077,0.0015,0.0015,-0.0123,0.0061,-0.0061,-0.0077,-0.0031,-0.0077,-0.0077,0.0061,-0.0322,-0.0097,-0.0146,-0.0113,-0.0134,0.0298,0.0,-0.0243,0.0049,0.0019,-0.0265,0.0194,-0.0194,-0.015,-0.0097,-0.0306,-0.0152,0.0194,-0.0067,0.0006,-0.0075,-0.0231,-0.0149,-1.0,1.0,1.0,-1.0,-1.0,1.0,-1.0,-1.0,-1.0,1.0,-1.0,1.0,-1.0,0.0835,1.0,-1.0,-1.0,1.0,0.0,0.0,0.0,0.0,0.0,0.0,0.0,0.0,0.0,-0.0,0.0,-0.0,0.0,0
0.12,run,-0.82,1.01,7.86,1.26,-1.27,0.0,-0.0,0.0,0.026,-2.02,17.93,78.57,-1.76,14.5,81.47,0.88,17.4,80.86,2.02,14.15,81.12,-2.02,16.52,77.96,-1.85,15.47,80.68,-3.09,19.25,82.63,-6.0,10.35,85.19,-3.18,19.34,82.72,6.18,10.26,85.1,-3.09,15.63,79.28,-5.91,11.31,84.93,-1.0,1.0,0.3113,-1.0,-1.0,1.0,-1.0,1.0,1.0,1.0,-1.0,0.7685,0.6286,-0.1884,-1.0,-1.0,-1.0,1.0,0.006,0.006,0.0,0.013,0.006,0.0,0.0,0.006,0.006,0.026,0.0,0.019,0.019,0.013,0.0,0.026,0.013,0.006,-0.0215,-0.0153,-0.0138,-0.0153,-0.0184,0.023,0.0092,-0.023,0.0138,0.0199,-0.0215,0.0184,-0.0199,-0.0199,-0.0184,-0.0184,-0.0184,0.0169,-0.0681,-0.0524,-0.0444,-0.0478,-0.055,0.0608,0.0342,-0.074,0.049,0.0697,-0.0527,0.0592,-0.0649,-0.0561,-0.0638,-0.0613,-0.0505,0.0535,-0.0289,-0.0031,-0.1028,-0.0284,-0.0658,0.3797,0.5393,0.3592,-1.0,-1.0,0.7282,-1.0,1.0,1.0,1.0,-1.0,1.0,-1.0,1.0,1.0,-1.0,-1.0,1.0,0.0,0.0,0.0,0.0,0.0,0.0,0.0,0.0,0.0,-0.0,0.0,-0.0,0.0,0
0.16,run,-1.08,0.92,-4.92,-2.02,-7.46,0.0,-0.0,0.0,0.026,-2.64,17.84,78.57,-2.64,13.1,82.97,0.88,17.31,81.3,3.43,12.66,82.44,-3.16,16.08,78.13,-3.25,14.24,81.83,-4.59,20.75,81.13,-7.5,8.85,86.69,-4.68,17.84,81.22,7.68,8.76,86.6,-1.59,17.13,80.78,-7.41,9.81,86.43,-1.0,1.0,-0.3536,-1.0,-1.0,1.0,-0.5438,-1.0,-0.3005,1.0,-1.0,1.0,0.4155,1.0,1.0,-1.0,-1.0,1.0,0.006,0.006,0.0,0.013,0.006,0.0,0.0,0.006,0.006,0.026,0.0,0.019,0.019,0.013,0.0,0.026,0.013,0.006,-0.0337,-0.023,-0.0184,-0.0307,-0.0322,0.0399,0.0184,-0.0337,0.0199,0.0322,-0.0368,0.0353,-0.0337,-0.0368,-0.023,-0.0337,-0.0322,0.0307,-0.0937,-0.0654,-0.0483,-0.0909,-0.0902,0.1058,0.0584,-0.092,0.0573,0.0948,-0.0944,0.1047,-0.0972,-0.1025,-0.0619,-0.1004,-0.0871,0.0892,0.0021,0.0007,0.1371,0.0221,-0.0222,-1.0,1.0,0.3113,-1.0,-1.0,1.0,-1.0,1.0,1.0,1.0,-1.0,0.7685,0.6286,-0.1884,-1.0,-1.0,-1.0,1.0,0.0,0.0,0.0,0.0,0.0,0.0,0.0,0.0,0.0,-0.0,0.0,-0.0,0.0,0
0.2,run,-0.93,0.66,6.64,-5.86,-6.65,0.0,-0.0,0.0,0.026,-3.34,17.93,78.84,-4.39,11.95,84.02,0.97,17.31,81.74,4.48,11.6,83.58,-3.69,15.64,78.66,-4.48,13.18,82.71,-6.09,22.25,82.63,-9.0,7.35,88.19,-6.18,19.34,82.72,9.18,7.26,88.1,-0.09,15.63,82.28,-8.91,8.31,87.93,-0.8799,1.0,1.0,-1.0,-1.0,1.0,-1.0,1.0,0.6662,1.0,-1.0,1.0,0.4255,-0.139,1.0,-1.0,-1.0,1.0,0.006,0.006,0.0,0.013,0.006,0.0,0.0,0.006,0.006,0.026,0.0,0.019,0.019,0.013,0.0,0.026,0.013,0.006,-0.0445,-0.0245,-0.0184,-0.046,-0.0568,0.066,0.0184,-0.0353,0.0276,0.0568,-0.0629,0.0583,-0.0537,-0.0445,-0.0199,-0.0583,-0.0537,0.0506,-0.0997,-0.0507,-0.0338,-0.1124,-0.1411,0.1568,0.0409,-0.0693,0.0645,0.1443,-0.1489,0.1463,-0.1313,-0.0961,-0.0336,-0.1482,-0.1292,0.1257,-0.0211,-0.0076,-0.0859,-0.0352,-0.1301,-1.0,1.0,-0.3536,-1.0,-1.0,1.0,-0.5438,-1.0,-0.3005,1.0,-1.0,1.0,0.4155,1.0,1.0,-1.0,-1.0,1.0,0.0,0.0,0.0,0.0,0.0,0.0,0.0,0.0,0.0,-0.0,0.0,-0.0,0.0,0
0.24,run,-1.28,0.41,-8.6,-6.11,-9.59,0.0,-0.0,0.0,0.058,-3.43,18.46,79.72,-4.83,10.72,85.34,-0.18,17.93,82.35,5.8,10.28,84.9,-3.96,15.47,79.72,-5.8,12.13,84.2,-7.59,20.75,84.13,-10.5,5.85,89.69,-7.68,17.84,84.22,10.68,5.76,89.6,-0.74,17.13,83.78,-10.41,6.81,89.43,-0.2488,-0.3681,0.3656,-1.0,-1.0,1.0,-1.0,0.4995,0.5147,1.0,-1.0,1.0,-0.0211,1.0,0.3164,-1.0,-1.0,1.0,0.019,0.058,0.006,0.033,0.006,0.0,0.006,0.0,0.0,0.045,0.0,0.013,0.0,0.019,0.013,0.026,0.033,0.013,-0.0568,-0.023,-0.0138,-0.0767,-0.0767,0.0844,0.0199,-0.0353,0.0353,0.0752,-0.0813,0.0782,-0.0629,-0.0522,-0.0107,-0.0798,-0.0721,0.066,-0.1154,-0.0298,-0.0066,-0.1928,-0.1729,0.1783,0.0343,-0.0485,0.0737,0.1695,-0.1727,0.1766,-0.1262,-0.0958,0.0107,-0.1836,-0.1589,0.1451,-0.008,-0.0301,0.1159,-0.1022,-0.116,-0.8799,1.0,1.0,-1.0,-1.0,1.0,-1.0,1.0,0.6662,1.0,-1.0,1.0,0.4255,-0.139,1.0,-1.0,-1.0,1.0,0.0,0.0,0.0,0.0,0.0,0.0,0.0,0.0,0.0,-0.0,0.0,-0.0,0.0,0
0.28,run,-1.52,0.07,-7.56,-7.68,-1.45,0.0,-0.0,0.0,0.058,-4.92,19.16,80.77,-6.59,9.4,86.75,-1.23,18.72,82.79,7.03,8.88,86.22,-3.78,15.47,80.6,-7.21,11.07,85.52,-9.09,19.25,85.63,-12.0,4.35,91.19,-9.18,19.34,85.72,12.18,4.26,91.1,0.76,15.63,82.28,-11.91,5.31,90.93,-1.0,0.1373,0.5688,-1.0,-0.5664,1.0,-1.0,1.0,1.0,1.0,-1.0,1.0,0.416,-0.1046,-1.0,-1.0,-1.0,1.0,0.019,0.058,0.006,0.033,0.006,0.0,0.006,0.0,0.0,0.045,0.0,0.013,0.0,0.019,0.013,0.026,0.033,0.013,-0.0583,-0.0138,0.0015,-0.0844,-0.0982,0.1074,0.0,-0.0245,0.046,0.0982,-0.1043,0.1012,-0.0675,-0.0552,0.0077,-0.1028,-0.0905,0.092,-0.0866,0.0139,0.0532,-0.1639,-0.202,0.2115,-0.0511,0.0065,0.092,0.2053,-0.2076,0.2103,-0.1057,-0.0786,0.0769,-0.2153,-0.1806,0.1998,-0.0385,-0.052,-0.1501,-0.1066,-0.1674,-0.2488,-0.3681,0.3656,-1.0,-1.0,1.0,-1.0,0.4995,0.5147,1.0,-1.0,1.0,-0.0211,1.0,0.3164,-1.0,-1.0,1.0,0.0,0.0,0.0,0.0,0.0,0.0,0.0,0.0,0.0,-0.0,0.0,-0.0,0.0,0
0.32,run,-1.25,-0.22,5.89,-6.2,2.18,0.0,-0.0,0.0,0.058,-6.06,19.51,82.0,-7.91,8.09,88.07,-2.64,18.9,83.41,8.44,7.56,87.54,-3.16,15.47,81.74,-8.61,9.49,86.84,-10.59,17.75,84.13,-13.5,4.25,92.69,-10.68,17.84,84.22,13.68,2.76,92.6,-0.74,14.13,80.78,-13.41,3.81,92.43,-1.0,-1.0,0.0973,-1.0,0.5318,1.0,-1.0,-0.2452,-1.0,1.0,-1.0,1.0,-1.0,-0.0391,0.1456,-1.0,-1.0,1.0,0.019,0.058,0.006,0.033,0.006,0.0,0.006,0.0,0.0,0.045,0.0,0.013,0.0,0.019,0.013,0.026,0.033,0.013,-0.0844,-0.0015,0.0199,-0.115,-0.1212,0.1319,-0.0184,-0.0107,0.0537,0.1197,-0.1289,0.1243,-0.0644,-0.0552,0.023,-0.1273,-0.1089,0.115,-0.1574,0.0553,0.1056,-0.2286,-0.2268,0.2392,-0.1041,0.0558,0.0929,0.2235,-0.2364,0.2326,-0.0626,-0.055,0.1108,-0.2418,-0.1947,0.2253,-0.0595,-0.0814,-0.132,-0.1341,-0.0253,-1.0,0.1373,0.5688,-1.0,-0.5664,1.0,-1.0,1.0,1.0,1.0,-1.0,1.0,0.416,-0.1046,-1.0,-1.0,-1.0,1.0,0.0,0.0,0.0,0.0,0.0,0.0,0.0,0.0,0.0,-0.0,0.0,-0.0,0.0,0
0.36,run,-1.19,-0.51,0.68,-8.64,4.06,0.0,-0.0,0.0,0.084,-7.47,19.6,83.23,-9.32,6.77,89.3,-4.04,19.34,84.11,9.76,6.24,88.95,-2.2,15.38,82.27,-10.11,8.17,88.33,-12.09,16.25,85.63,-15.0,2.75,91.19,-12.18,19.34,82.72,15.18,1.26,94.1,-2.24,15.63,82.28,-14.91,2.31,93.93,-0.9618,-1.0,0.8009,-1.0,-1.0,-1.0,-1.0,0.8975,-0.7146,1.0,-1.0,1.0,-1.0,1.0,1.0,-1.0,-1.0,1.0,0.006,0.084,0.0,0.026,0.006,0.006,0.019,0.0,0.0,0.039,0.0,0.026,0.0,0.026,0.033,0.013,0.033,0.013,-0.1043,0.0046,0.0414,-0.1381,-0.1442,0.1549,-0.043,-0.0077,0.0644,0.1442,-0.1519,0.1473,-0.0537,-0.0552,0.043,-0.1519,-0.1365,0.1381,-0.185,0.0617,0.1545,-0.2464,-0.2451,0.2538,-0.165,0.0506,0.1053,0.2485,-0.2519,0.2492,-0.0035,-0.0385,0.1524,-0.2614,-0.2399,0.2441,-0.0361,-0.107,0.1029,-0.1082,0.038,-1.0,-1.0,0.0973,-1.0,0.5318,1.0,-1.0,-0.2452,-1.0,1.0,-1.0,1.0,-1.0,-0.0391,0.1456,-1.0,-1.0,1.0,0.0,0.0,0.0,0.0,0.0,0.0,0.0,0.0,0.0,-0.0,0.0,-0.0,0.0,0
0.4,run,-1.13,-1.0,1.85,-14.8,4.14,0.0,-0.0,0.0,0.084,-8.79,19.6,84.2,-10.72,5.62,90.62,-5.45,19.07,84.64,11.07,4.75,90.26,-1.41,15.38,82.88,-11.51,6.86,89.82,-13.59,14.75,87.13,-16.5,1.25,92.69,-13.68,20.84,84.22,16.68,-0.24,95.6,-3.74,14.13,83.78,-16.41,0.81,95.43,-1.0,-1.0,0.5159,-1.0,-0.4936,0.3804,-1.0,1.0,1.0,1.0,-1.0,1.0,-1.0,-0.0313,0.4802,-1.0,-1.0,1.0,0.006,0.084,0.0,0.026,0.006,0.006,0.019,0.0,0.0,0.039,0.0,0.026,0.0,0.026,0.033,0.013,0.033,0.013,-0.1289,0.0061,0.0629,-0.1626,-0.1672,0.1764,-0.0675,0.0,0.0767,0.1672,-0.1749,0.1718,-0.0368,-0.0568,0.0522,-0.1779,-0.1595,0.1641,-0.2198,0.0488,0.1871,-0.2627,-0.2562,0.2566,-0.2057,0.0636,0.1188,0.2586,-0.2609,0.2647,0.0596,-0.0326,0.1405,-0.2788,-0.2526,0.2667,-0.0306,-0.1323,0.0119,-0.1507,0.0708,-0.9618,-1.0,0.8009,-1.0,-1.0,-1.0,-1.0,0.8975,-0.7146,1.0,-1.0,1.0,-1.0,1.0,1.0,-1.0,-1.0,1.0,0.0,0.0,0.0,0.0,0.0,0.0,0.0,0.0,0.0,-0.0,0.0,-0.0,0.0,0
0.44,run,-0.82,-1.36,9.02,-10.68,2.24,0.0,-0.0,0.0,0.084,-10.11,19.6,84.81,-12.04,4.48,91.67,-6.86,19.34,84.81,12.39,3.34,91.67,-0.97,15.29,83.06,-12.92,5.36,91.23,-15.09,13.25,85.63,-18.0,-0.25,94.19,-15.18,19.34,85.72,18.18,-1.74,97.1,-5.24,12.63,82.28,-17.91,-0.69,96.93,-1.0,-1.0,0.0191,-1.0,-0.802,0.6752,-1.0,0.3647,1.0,1.0,-0.2768,1.0,-1.0,0.2816,-0.7673,-1.0,-1.0,1.0,0.006,0.084,0.0,0.026,0.006,0.006,0.019,0.0,0.0,0.039,0.0,0.026,0.0,0.026,0.033,0.013,0.033,0.013,-0.1519,0.0061,0.0798,-0.1871,-0.1871,0.1994,-0.092,-0.0046,0.0859,0.1902,-0.201,0.1948,-0.023,-0.0568,0.0629,-0.2025,-0.1825,0.1902,-0.2423,0.0342,0.1959,-0.2782,-0.256,0.2681,-0.2384,0.0268,0.1186,0.2695,-0.2829,0.2737,0.0948,-0.0228,0.1396,-0.2895,-0.2653,0.287,-0.0255,-0.1754,0.0323,-0.2583,0.0723,-1.0,-1.0,0.5159,-1.0,-0.4936,0.3804,-1.0,1.0,1.0,1.0,-1.0,1.0,-1.0,-0.0313,0.4802,-1.0,-1.0,1.0,0.0,0.0,0.0,0.0,0.0,0.0,0.0,0.0,0.0,-0.0,0.0,-0.0,0.0,0
0.48,run,-0.6,-1.74,5.56,-10.66,0.22,0.0,-0.0,0.0,0.084,-11.51,19.6,85.17,-13.45,3.16,92.55,-8.26,19.6,84.81,13.8,1.93,93.16,-0.88,14.41,83.06,-14.24,3.96,92.64,-16.59,11.75,87.13,-19.5,-1.75,95.69,-16.68,17.84,84.22,19.68,-3.24,98.6,-6.74,14.13,83.78,-19.41,-2.19,98.43,-1.0,-1.0,0.5565,-1.0,-0.9058,0.5862,-1.0,-0.2741,-0.8009,1.0,-0.3787,1.0,-1.0,1.0,1.0,-1.0,-1.0,1.0,0.013,0.0,0.006,0.019,0.006,0.006,0.019,0.013,0.006,0.039,0.0,0.019,0.0,0.013,0.006,0.013,0.039,0.026,-0.1749,0.0061,0.0905,-0.2102,-0.2071,0.2178,-0.1166,0.0,0.089,0.2132,-0.2255,0.2194,-0.0153,-0.0583,0.066,-0.227,-0.2086,0.2148,-0.2553,0.0239,0.1771,-0.2805,-0.2535,0.2562,-0.2583,0.0359,0.0944,0.2743,-0.2895,0.2831,0.0949,-0.0217,0.1092,-0.2941,-0.2828,0.2923,0.0016,-0.2065,0.1574,-0.1865,0.0391,-1.0,-1.0,0.0191,-1.0,-0.802,0.6752,-1.0,0.3647,1.0,1.0,-0.2768,1.0,-1.0,0.2816,-0.7673,-1.0,-1.0,1.0,0.0,0.0,0.0,0.0,0.0,0.0,0.0,0.0,0.0,-0.0,0.0,-0.0,0.0,0
0.52,run,-0.22,-2.27,8.44,-14.94,-3.97,0.0,-0.0,0.0,0.084,-13.01,18.81,86.13,-15.03,1.76,93.69,-9.67,19.16,84.9,15.38,0.44,94.57,-0.97,13.89,82.97,-15.73,2.55,93.87,-15.09,10.25,88.63,-21.0,-3.25,94.19,-18.18,19.34,85.72,21.18,-4.74,100.1,-8.24,15.63,85.28,-20.91,-3.69,99.93,-0.1871,-1.0,0.8637,-1.0,-0.6575,-1.0,-1.0,1.0,0.4104,1.0,-0.7108,1.0,-1.0,1.0,1.0,-1.0,-1.0,1.0,0.013,0.0,0.006,0.019,0.006,0.006,0.019,0.013,0.006,0.039,0.0,0.019,0.0,0.013,0.006,0.013,0.039,0.026,-0.1994,0.0061,0.0966,-0.2347,-0.2301,0.2332,-0.1411,0.0046,0.089,0.2378,-0.25,0.2454,-0.0138,-0.0736,0.066,-0.25,-0.2332,0.2393,-0.2719,0.0167,0.1473,-0.2895,-0.2648,0.2376,-0.274,0.0426,0.0661,0.2852,-0.2958,0.2971,0.0723,-0.0734,0.0764,-0.2932,-0.2912,0.2978,0.0207,-0.2397,0.097,-0.1861,0.0039,-1.0,-1.0,0.5565,-1.0,-0.9058,0.5862,-1.0,-0.2741,-0.8009,1.0,-0.3787,1.0,-1.0,1.0,1.0,-1.0,-1.0,1.0,0.0,0.0,0.0,0.0,0.0,0.0,0.0,0.0,0.0,-0.0,0.0,-0.0,0.0,0
0.56,run,0.38,-2.92,12.67,-13.12,-13.41,0.0,-0.0,0.0,0.084,-14.33,17.58,86.66,-16.88,0.53,94.66,-11.07,18.63,84.9,16.88,-0.88,96.06,-1.49,13.54,82.97,-17.14,1.14,95.19,-16.59,8.75,90.13,-22.5,-4.75,92.69,-19.68,20.84,87.22,22.68,-3.24,101.6,-9.74,17.13,83.78,-22.41,-5.19,101.43,-1.0,-1.0,0.4235,-1.0,-0.6556,-1.0,-1.0,1.0,1.0,1.0,1.0,1.0,-0.4975,1.0,0.1536,-1.0,-1.0,0.764,0.013,0.0,0.006,0.019,0.006,0.006,0.019,0.013,0.006,0.039,0.0,0.019,0.0,0.013,0.006,0.013,0.039,0.026,-0.2255,-0.0077,0.1135,-0.2623,-0.2546,0.2531,-0.1657,-0.0031,0.0905,0.2654,-0.2761,0.27,-0.0153,-0.0828,0.0644,-0.2761,-0.2577,0.2608,-0.2875,-0.0397,0.166,-0.3056,-0.2769,0.2407,-0.2833,0.0012,0.052,0.3026,-0.3043,0.2995,0.0449,-0.0857,0.0478,-0.3025,-0.2953,0.2885,0.0539,-0.2861,0.1474,-0.2608,-0.0692,-0.1871,-1.0,0.8637,-1.0,-0.6575,-1.0,-1.0,1.0,0.4104,1.0,-0.7108,1.0,-1.0,1.0,1.0,-1.0,-1.0,1.0,0.0,0.0,0.0,0.0,0.0,0.0,0.0,0.0,0.0,-0.0,0.0,-0.0,0.0,0
0.6,run,1.22,-3.66,22.36,-18.26,-8.68,0.0,-0.0,0.0,0.143,-15.38,16.17,87.36,-18.28,-0.97,95.27,-12.48,18.28,84.9,18.37,-2.2,97.47,-2.37,13.54,83.41,-18.63,-0.26,97.03,-18.09,7.25,91.63,-24.0,-6.25,91.19,-21.18,22.34,88.72,24.18,-1.74,103.1,-11.24,18.63,85.28,-20.91,-6.69,99.93,-1.0,-1.0,0.4976,-1.0,-1.0,-0.0715,-1.0,1.0,1.0,1.0,1.0,1.0,-1.0,1.0,1.0,-0.4336,-1.0,-0.5439,0.013,0.0,0.013,0.013,0.0,0.006,0.026,0.019,0.0,0.033,0.0,0.013,0.045,0.143,0.013,0.006,0.026,0.019,-0.2485,-0.0291,0.1227,-0.2945,-0.2761,0.27,-0.1902,-0.0123,0.0905,0.2915,-0.2991,0.2961,-0.0245,-0.089,0.0644,-0.3007,-0.2823,0.2838,-0.2875,-0.1083,0.1507,-0.3346,-0.2743,0.2317,-0.2903,-0.0336,0.0364,0.3095,-0.2992,0.3074,-0.0031,-0.083,0.0334,-0.3037,-0.2987,0.2882,0.1066,-0.3422,0.2212,-0.229,-0.234,-1.0,-1.0,0.4235,-1.0,-0.6556,-1.0,-1.0,1.0,1.0,1.0,1.0,1.0,-0.4975,1.0,0.1536,-1.0,-1.0,0.764,0.0,0.0,0.0,0.0,0.0,0.0,0.0,0.0,0.0,-0.0,0.0,-0.0,0.0,0
0.64,run,2.71,-4.06,37.08,-7.3,-8.72,0.0,-0.0,0.0,0.143,-16.61,14.85,88.24,-19.6,-2.37,95.54,-13.89,18.63,85.17,19.78,-3.34,98.88,-3.43,13.62,83.5,-19.86,-1.67,97.91,-16.59,5.75,90.13,-25.5,-7.75,89.69,-22.68,23.84,90.22,25.68,-0.24,104.6,-12.74,20.13,86.78,-19.41,-8.19,98.43,-0.1141,-1.0,0.2548,-1.0,-1.0,-0.8431,-1.0,1.0,1.0,1.0,1.0,0.508,-0.5403,1.0,1.0,1.0,-1.0,-1.0,0.013,0.0,0.013,0.013,0.0,0.006,0.026,0.019,0.0,0.033,0.0,0.013,0.045,0.143,0.013,0.006,0.026,0.019,-0.2669,-0.0537,0.135,-0.3191,-0.3022,0.2807,-0.2148,-0.0184,0.0905,0.3175,-0.3221,0.3206,-0.0399,-0.089,0.0721,-0.3267,-0.3068,0.316,-0.2704,-0.168,0.1516,-0.3264,-0.2899,0.2025,-0.2953,-0.0466,0.0255,0.3146,-0.2958,0.3073,-0.0598,-0.0581,0.0522,-0.3105,-0.3012,0.3227,0.1795,-0.4072,0.3902,-0.3186,-0.1514,-1.0,-1.0,0.4976,-1.0,-1.0,-0.0715,-1.0,1.0,1.0,1.0,1.0,1.0,-1.0,1.0,1.0,-0.4336,-1.0,-0.5439,0.0,0.0,0.0,0.0,0.0,0.0,0.0,0.0,0.0,-0.0,0.0,-0.0,0.0,0
0.68,run,3.56,-4.83,23.08,-18.57,-8.57,0.0,-0.0,0.0,0.143,-17.14,13.54,89.3,-21.01,-3.87,95.54,-15.21,19.42,85.87,21.27,-4.04,100.2,-4.92,14.41,83.94,-20.92,-3.08,99.32,-15.09,4.25,91.63,-27.0,-9.25,88.19,-24.18,22.34,91.72,27.18,1.26,106.1,-14.24,21.63,88.28,-17.91,-9.69,96.93,1.0,-1.0,1.0,-1.0,-1.0,-1.0,-1.0,0.4453,1.0,1.0,1.0,1.0,-0.8458,1.0,0.789,1.0,-1.0,-1.0,0.013,0.0,0.013,0.013,0.0,0.006,0.026,0.019,0.0,0.033,0.0,0.013,0.045,0.143,0.013,0.006,0.026,0.019,-0.2884,-0.0767,0.1503,-0.3421,-0.3267,0.2853,-0.2393,-0.0123,0.0951,0.3421,-0.3421,0.3451,-0.0583,-0.0874,0.0736,-0.3482,-0.3313,0.3313,-0.2698,-0.2038,0.1636,-0.3147,-0.2949,0.159,-0.2988,-0.0096,0.0351,0.3122,-0.2818,0.3071,-0.1108,-0.0349,0.0423,-0.2979,-0.3029,0.2834,0.3098,-0.4417,0.6471,-0.1274,-0.1522,-0.1141,-1.0,0.2548,-1.0,-1.0,-0.8431,-1.0,1.0,1.0,1.0,1.0,0.508,-0.5403,1.0,1.0,1.0,-1.0,-1.0,0.0,0.0,0.0,0.0,0.0,0.0,0.0,0.0,0.0,-0.0,0.0,-0.0,0.0,0
0.72,run,4.94,-5.48,35.95,-14.57,0.87,0.0,-0.0,0.0,0.182,-17.93,12.22,90.18,-22.32,-5.45,94.92,-16.61,20.3,86.92,22.76,-4.48,101.51,-6.33,15.47,84.9,-21.62,-4.48,100.11,-13.59,2.75,93.13,-28.5,-10.75,86.69,-25.68,23.84,93.22,28.68,2.76,107.6,-12.74,23.13,86.78,-16.41,-11.19,95.43,1.0,-1.0,0.8669,-1.0,-1.0,-1.0,-1.0,1.0,1.0,1.0,1.0,0.9909,-0.067,1.0,-0.5102,1.0,-1.0,-1.0,0.006,0.0,0.013,0.006,0.0,0.006,0.019,0.0,0.0,0.013,0.0,0.039,0.052,0.182,0.065,0.006,0.033,0.006,-0.2976,-0.0997,0.1687,-0.3666,-0.3528,0.2853,-0.2623,0.0015,0.1074,0.3682,-0.3543,0.3682,-0.0844,-0.0736,0.0813,-0.3666,-0.3559,0.3559,-0.2233,-0.2289,0.1835,-0.3123,-0.3042,0.1113,-0.2953,0.045,0.0705,0.3162,-0.2433,0.3012,-0.1753,0.0273,0.0583,-0.2775,-0.304,0.2903,0.3843,-0.5089,0.4028,-0.3241,-0.1496,1.0,-1.0,1.0,-1.0,-1.0,-1.0,-1.0,0.4453,1.0,1.0,1.0,1.0,-0.8458,1.0,0.789,1.0,-1.0,-1.0,0.0,0.0,0.0,0.0,0.0,0.0,0.0,0.0,0.0,-0.0,0.0,-0.0,0.0,0
0.76,run,7.22,-6.78,54.46,-31.09,-0.33,0.0,-0.0,0.0,0.182,-18.02,10.81,90.88,-23.73,-6.94,93.69,-18.02,21.71,88.24,24.08,-4.66,102.74,-7.82,16.7,85.78,-21.97,-5.89,100.63,-12.09,1.25,94.63,-30.0,-12.25,85.19,-27.18,22.34,92.73,30.18,4.26,109.1,-11.24,24.63,85.28,-14.91,-12.69,93.93,1.0,-1.0,0.9535,-1.0,-1.0,-1.0,-1.0,0.3641,0.3262,1.0,1.0,1.0,0.0327,1.0,-0.4879,1.0,-1.0,-1.0,0.006,0.0,0.013,0.006,0.0,0.006,0.019,0.0,0.0,0.013,0.0,0.039,0.052,0.182,0.065,0.006,0.033,0.006,-0.3114,-0.1227,0.1841,-0.3896,-0.3804,0.2746,-0.2869,0.0169,0.1258,0.3942,-0.362,0.3912,-0.1089,-0.0552,0.0982,-0.3789,-0.3804,0.3697,-0.2081,-0.2466,0.186,-0.3049,-0.3165,0.0376,-0.2988,0.0891,0.1185,0.3192,-0.1991,0.2972,-0.2148,0.0882,0.1042,-0.2403,-0.3049,0.255,0.5045,-0.5661,0.6274,-0.2543,0.0152,1.0,-1.0,0.8669,-1.0,-1.0,-1.0,-1.0,1.0,1.0,1.0,1.0,0.9909,-0.067,1.0,-0.5102,1.0,-1.0,-1.0,0.0,0.0,0.0,0.0,0.0,0.0,0.0,0.0,0.0,-0.0,0.0,-0.0,0.0,0
0.8,run,10.23,-9.12,75.92,-60.92,4.49,0.0,-0.0,0.0,0.182,-17.93,9.4,91.76,-25.14,-8.7,92.81,-19.42,22.68,89.65,25.58,-4.66,104.24,-9.23,18.28,86.4,-21.97,-7.29,100.72,-10.59,-0.25,96.13,-31.5,-13.75,83.69,-28.68,20.84,91.23,31.68,5.76,110.6,-9.74,26.13,86.78,-13.41,-14.19,92.43,1.0,-1.0,1.0,-1.0,-1.0,-1.0,-1.0,0.5711,-1.0,1.0,1.0,1.0,0.1072,1.0,0.5398,1.0,-1.0,-1.0,0.006,0.0,0.013,0.006,0.0,0.006,0.019,0.0,0.0,0.013,0.0,0.039,0.052,0.182,0.065,0.006,0.033,0.006,-0.3129,-0.1473,0.1963,-0.4142,-0.4065,0.2531,-0.3114,0.0414,0.1488,0.4172,-0.3651,0.4126,-0.135,-0.0337,0.1135,-0.385,-0.405,0.3789,-0.1514,-0.2644,0.1761,-0.3053,-0.3191,-0.054,-0.301,0.1542,0.169,0.3095,-0.1508,0.2884,-0.2479,0.1421,0.1303,-0.1911,-0.3052,0.2129,0.7037,-0.6799,0.9505,-0.5426,-0.0058,1.0,-1.0,0.9535,-1.0,-1.0,-1.0,-1.0,0.3641,0.3262,1.0,1.0,1.0,0.0327,1.0,-0.4879,1.0,-1.0,-1.0,0.0,0.0,0.0,0.0,0.0,0.0,0.0,0.0,0.0,-0.0,0.0,-0.0,0.0,0
0.84,run,13.35,-11.12,80.49,-50.53,8.58,0.0,-0.0,0.0,0.227,-17.23,7.91,92.81,-26.72,-10.28,91.05,-20.83,23.38,90.97,26.89,-4.75,105.73,-10.28,19.86,86.75,-21.45,-8.79,100.46,-9.09,-1.75,97.63,-33.0,-15.25,82.19,-30.18,22.34,89.73,33.18,7.26,112.1,-8.24,27.63,88.28,-11.91,-15.69,90.93,1.0,-1.0,1.0,-1.0,-1.0,-1.0,-1.0,1.0,-1.0,1.0,1.0,1.0,-0.024,1.0,1.0,1.0,-1.0,-1.0,0.006,0.0,0.026,0.0,0.0,0.0,0.026,0.0,0.0,0.033,0.227,0.045,0.019,0.111,0.039,0.006,0.026,0.013,-0.3114,-0.1718,0.2117,-0.4387,-0.4372,0.2378,-0.3359,0.0583,0.1733,0.4433,-0.3651,0.4387,-0.1595,-0.0061,0.1243,-0.385,-0.4295,0.3804,-0.1003,-0.2768,0.1806,-0.3054,-0.3381,-0.0952,-0.3025,0.171,0.2101,0.3142,-0.1056,0.2993,-0.2653,0.2027,0.1314,-0.1338,-0.3054,0.1548,0.966,-0.8835,1.325,-1.0632,0.0784,1.0,-1.0,1.0,-1.0,-1.0,-1.0,-1.0,0.5711,-1.0,1.0,1.0,1.0,0.1072,1.0,0.5398,1.0,-1.0,-1.0,0.0,0.0,0.0,0.0,0.0,0.0,0.0,0.0,0.0,-0.0,0.0,-0.0,0.0,0
0.88,run,13.82,-10.75,-1.38,22.07,-8.24,0.0,-0.0,0.0,0.227,-16.61,6.5,93.96,-28.3,-11.43,89.74,-22.32,23.73,91.93,28.56,-4.22,106.79,-11.07,21.09,86.84,-20.57,-10.28,99.49,-7.59,-3.25,99.13,-34.5,-16.75,80.69,-31.68,23.84,88.23,34.68,8.76,113.6,-9.74,29.13,89.78,-10.41,-17.19,89.43,1.0,-1.0,1.0,-1.0,-1.0,-1.0,-1.0,1.0,-1.0,1.0,1.0,1.0,-0.3902,1.0,1.0,1.0,-1.0,-1.0,0.006,0.0,0.026,0.0,0.0,0.0,0.026,0.0,0.0,0.033,0.227,0.045,0.019,0.111,0.039,0.006,0.026,0.013,-0.2991,-0.1979,0.2301,-0.4663,-0.4648,0.2071,-0.3605,0.0706,0.1963,0.4663,-0.3666,0.4648,-0.1779,0.0215,0.1304,-0.3758,-0.4556,0.3758,-0.0241,-0.2917,0.1956,-0.3175,-0.3404,-0.1818,-0.3039,0.1658,0.2334,0.3063,-0.0797,0.3075,-0.2548,0.2456,0.115,-0.0591,-0.3117,0.0911,1.2386,-1.0578,1.4048,-0.8819,0.1498,1.0,-1.0,1.0,-1.0,-1.0,-1.0,-1.0,1.0,-1.0,1.0,1.0,1.0,-0.024,1.0,1.0,1.0,-1.0,-1.0,0.0,0.0,0.0,0.0,0.0,0.0,0.0,0.0,0.0,-0.0,0.0,-0.0,0.0,0
0.92,run,15.06,-10.51,32.45,5.69,-6.37,0.0,-0.0,0.0,0.227,-15.38,5.19,95.19,-29.71,-12.83,88.33,-23.73,23.91,92.46,29.88,-2.81,108.02,-11.51,22.41,87.45,-19.25,-11.69,99.32,-6.09,-4.75,100.63,-35.0,-18.25,79.19,-33.18,22.34,86.73,34.26,10.26,115.1,-11.24,30.0,91.28,-8.91,-15.69,87.93,1.0,-1.0,1.0,-1.0,-1.0,-0.2829,-1.0,-1.0,0.0292,0.9788,1.0,1.0,-1.0,1.0,0.6678,1.0,1.0,-1.0,0.006,0.0,0.026,0.0,0.0,0.0,0.026,0.0,0.0,0.033,0.227,0.045,0.019,0.111,0.039,0.006,0.026,0.013,-0.2884,-0.2224,0.25,-0.4939,-0.4847,0.1841,-0.3866,0.0767,0.2132,0.4955,-0.3574,0.4832,-0.1917,0.043,0.1319,-0.3605,-0.4817,0.359,0.0236,-0.2967,0.212,-0.3263,-0.3134,-0.2139,-0.311,0.1392,0.227,0.3242,-0.0211,0.2846,-0.2304,0.2528,0.0863,0.0164,-0.3164,0.0002,1.2793,-1.0257,-0.0241,0.3851,-0.1438,1.0,-1.0,1.0,-1.0,-1.0,-1.0,-1.0,1.0,-1.0,1.0,1.0,1.0,-0.3902,1.0,1.0,1.0,-1.0,-1.0,0.0,0.0,0.0,0.0,0.0,0.0,0.0,0.0,0.0,-0.0,0.0,-0.0,0.0,0
0.96,run,15.5,-9.93,13.62,13.05,4.02,0.0,-0.0,0.0,0.24,-13.89,3.78,96.42,-31.03,-14.15,86.92,-25.14,23.91,92.55,31.38,-1.41,109.42,-11.78,23.82,88.24,-18.37,-12.92,97.73,-4.59,-6.25,102.13,-35.0,-19.75,77.69,-34.68,20.84,88.23,32.76,11.76,116.6,-12.74,30.0,92.78,-7.41,-14.19,86.43,1.0,-1.0,1.0,-1.0,-1.0,-0.6252,-1.0,-1.0,1.0,0.2264,1.0,0.8943,-1.0,1.0,0.6758,1.0,1.0,-1.0,0.019,0.0,0.039,0.006,0.0,0.0,0.026,0.039,0.0,0.006,0.143,0.091,0.006,0.24,0.117,0.006,0.019,0.052,-0.2669,-0.2454,0.2715,-0.5185,-0.5093,0.1595,-0.4111,0.0798,0.2224,0.5185,-0.3329,0.5047,-0.1994,0.066,0.1427,-0.3375,-0.5062,0.3559,0.0966,-0.2935,0.2285,-0.32,-0.3109,-0.2413,-0.3092,0.1089,0.1932,0.3128,0.0768,0.2793,-0.1899,0.2628,0.1005,0.0973,-0.3131,-0.0113,1.3873,-1.0047,0.5664,0.0993,-0.1112,1.0,-1.0,1.0,-1.0,-1.0,-0.2829,-1.0,-1.0,0.0292,0.9788,1.0,1.0,-1.0,1.0,0.6678,1.0,1.0,-1.0,0.0,0.0,0.0,0.0,0.0,0.0,0.0,0.0,0.0,-0.0,0.0,-0.0,0.0,0
1.0,run,16.16,-9.56,17.34,9.51,-1.61,0.0,-0.0,0.0,0.24,-12.57,2.37,97.82,-32.17,-15.56,85.52,-26.46,23.2,92.55,32.43,0.0,110.74,-11.78,25.05,89.21,-16.61,-14.06,96.42,-3.09,-7.75,103.63,-35.0,-21.25,79.19,-35.0,19.34,89.73,31.26,13.26,115.1,-14.24,30.0,91.28,-5.91,-12.69,84.93,1.0,-1.0,1.0,-1.0,-1.0,1.0,-1.0,-1.0,1.0,-0.6459,1.0,-0.1676,-1.0,1.0,-1.0,1.0,1.0,-1.0,0.019,0.0,0.039,0.006,0.0,0.0,0.026,0.039,0.0,0.006,0.143,0.091,0.006,0.24,0.117,0.006,0.019,0.052,-0.2408,-0.27,0.293,-0.5415,-0.5323,0.135,-0.4357,0.0798,0.224,0.5446,-0.3083,0.5292,-0.204,0.0905,0.1565,-0.3221,-0.5277,0.3283,0.1655,-0.2975,0.2406,-0.3103,-0.304,-0.261,-0.3086,0.0762,0.141,0.3168,0.1459,0.2876,-0.1502,0.2761,0.1221,0.1257,-0.2997,-0.1115,1.4258,-0.954,0.2377,0.2278,0.0701,1.0,-1.0,1.0,-1.0,-1.0,-0.6252,-1.0,-1.0,1.0,0.2264,1.0,0.8943,-1.0,1.0,0.6758,1.0,1.0,-1.0,0.0,0.0,0.0,0.0,0.0,0.0,0.0,0.0,0.0,-0.0,0.0,-0.0,0.0,0
1.04,run,16.98,-9.05,23.77,11.98,-3.46,0.0,-0.002,0.0,0.24,-11.16,0.88,99.14,-33.05,-16.88,84.11,-27.77,22.41,92.46,33.31,1.49,112.15,-12.13,26.28,90.44,-15.38,-14.85,94.92,-1.59,-9.25,102.13,-35.0,-22.75,77.69,-35.0,17.84,91.23,29.76,14.76,113.6,-12.74,30.0,89.78,-4.41,-11.19,86.43,0.0672,-1.0,-0.6978,-1.0,-1.0,-0.0315,-1.0,-1.0,1.0,-1.0,1.0,-1.0,1.0,1.0,-0.7334,1.0,0.4176,1.0,0.019,0.0,0.039,0.006,0.0,0.0,0.026,0.039,0.0,0.006,0.143,0.091,0.006,0.24,0.117,0.006,0.019,0.052,-0.2178,-0.2945,0.3175,-0.5614,-0.5568,0.1104,-0.4587,0.0675,0.224,0.563,-0.2838,0.5522,-0.204,0.112,0.1733,-0.2915,-0.5476,0.3053,0.2026,-0.3008,0.2609,-0.2924,-0.3053,-0.2752,-0.3027,0.0071,0.0987,0.2912,0.1946,0.2881,-0.1051,0.2742,0.1491,0.2036,-0.285,-0.1648,1.4836,-0.9222,0.3027,0.1659,-0.0281,1.0,-1.0,1.0,-1.0,-1.0,1.0,-1.0,-1.0,1.0,-0.6459,1.0,-0.1676,-1.0,1.0,-1.0,1.0,1.0,-1.0,0.0,0.0,0.0,0.0,0.0,0.0,0.0,0.0,0.0,-0.0133,0.0,-0.0133,0.0,3
1.08,run,17.9,-8.57,24.88,13.39,0.99,0.0,-0.004,0.0,0.24,-9.76,-0.53,100.37,-33.66,-18.19,82.79,-29.18,21.45,92.11,33.93,2.9,113.2,-12.83,27.33,91.23,-13.8,-15.38,93.6,-3.09,-10.75,100.63,-33.5,-24.25,76.19,-35.0,16.34,92.73,28.26,13.26,112.1,-11.24,30.0,91.28,-2.91,-12.69,87.93,-0.6676,-1.0,-1.0,-0.7089,-1.0,-0.0662,-1.0,-1.0,1.0,-1.0,0.3408,-1.0,1.0,1.0,0.4866,1.0,-0.298,1.0,0.026,0.0,0.033,0.006,0.0,0.006,0.026,0.058,0.039,0.006,0.117,0.071,0.0,0.143,0.033,0.0,0.006,0.013,-0.1933,-0.3206,0.3405,-0.5768,-0.5798,0.0859,-0.4817,0.0537,0.2224,0.5783,-0.2577,0.5768,-0.2102,0.1335,0.1948,-0.27,-0.5614,0.2792,0.2337,-0.3082,0.2688,-0.2621,-0.2999,-0.2846,-0.2981,-0.0468,0.0633,0.2613,0.2339,0.2936,-0.0966,0.2724,0.1848,0.223,-0.2512,-0.213,1.5549,-0.8777,0.4149,0.2091,-0.0604,0.0672,-1.0,-0.6978,-1.0,-1.0,-0.0315,-1.0,-1.0,1.0,-1.0,1.0,-1.0,1.0,1.0,-0.7334,1.0,0.4176,1.0,0.0,0.0,0.0,0.0,0.0,0.0,0.0,0.0,0.0,-0.0267,0.0,-0.0267,0.0,3
1.12,run,18.89,-7.89,27.34,13.03,-1.62,0.0,-0.006,0.0,0.24,-8.44,-1.93,101.43,-34.45,-19.42,81.39,-30.5,20.3,91.85,34.1,4.31,113.99,-13.1,28.3,91.93,-12.48,-15.47,92.11,-4.59,-12.25,99.13,-32.0,-25.75,77.69,-35.0,14.84,94.23,26.76,11.76,110.6,-9.74,30.0,92.78,-1.41,-14.19,89.43,-0.5649,-1.0,-1.0,-0.8259,-1.0,0.3675,-1.0,-1.0,1.0,-1.0,-0.7745,-1.0,1.0,1.0,0.5238,1.0,-0.5026,1.0,0.026,0.0,0.033,0.006,0.0,0.006,0.026,0.058,0.039,0.006,0.117,0.071,0.0,0.143,0.033,0.0,0.006,0.013,-0.1687,-0.3451,0.362,-0.5875,-0.6029,0.0629,-0.5062,0.0368,0.2163,0.589,-0.2332,0.5952,-0.2224,0.1519,0.2086,-0.2424,-0.5706,0.2562,0.2553,-0.3074,0.2684,-0.2236,-0.2959,-0.2851,-0.3003,-0.0957,0.0214,0.223,0.2554,0.2742,-0.1134,0.2594,0.1809,0.2592,-0.2102,-0.2351,1.6351,-0.8356,0.4342,0.2338,0.0172,-0.6676,-1.0,-1.0,-0.7089,-1.0,-0.0662,-1.0,-1.0,1.0,-1.0,0.3408,-1.0,1.0,1.0,0.4866,1.0,-0.298,1.0,0.0,0.0,0.0,0.0,0.0,0.0,0.0,0.0,0.0,-0.04,0.0,-0.04,0.0,3
1.16,run,19.79,-7.07,22.01,19.65,-4.5,0.0,-0.008,0.0,0.24,-7.12,-3.43,102.3,-35.16,-20.83,79.89,-31.9,18.9,91.76,34.28,5.89,114.52,-12.74,28.92,92.29,-10.81,-15.56,90.7,-6.09,-13.75,97.63,-33.5,-27.25,79.19,-35.0,13.34,95.73,25.26,10.26,109.1,-8.24,30.0,94.28,0.09,-15.69,90.93,-0.4879,-1.0,-1.0,-1.0,-1.0,0.1693,-1.0,-1.0,1.0,-1.0,-0.9053,-1.0,1.0,1.0,0.792,1.0,-0.4117,1.0,0.026,0.0,0.033,0.006,0.0,0.006,0.026,0.058,0.039,0.006,0.117,0.071,0.0,0.143,0.033,0.0,0.006,0.013,-0.1457,-0.3697,0.3804,-0.6013,-0.6243,0.0383,-0.5292,0.0169,0.2117,0.5921,-0.2086,0.609,-0.227,0.1687,0.2209,-0.2194,-0.5722,0.2301,0.2657,-0.308,0.2575,-0.2087,-0.2883,-0.2925,-0.2973,-0.1425,-0.0024,0.1677,0.2716,0.2442,-0.0968,0.2454,0.1731,0.2685,-0.153,-0.2632,1.7222,-0.7759,0.4772,0.2274,-0.0282,-0.5649,-1.0,-1.0,-0.8259,-1.0,0.3675,-1.0,-1.0,1.0,-1.0,-0.7745,-1.0,1.0,1.0,0.5238,1.0,-0.5026,1.0,0.0,0.0,0.0,0.0,0.0,0.0,0.0,0.0,0.0,-0.0533,0.0,-0.0533,0.0,3
1.2,run,20.36,-6.51,12.53,13.33,-5.51,0.0,-0.01,0.0,0.24,-5.98,-4.75,102.74,-34.89,-22.15,78.93,-32.96,17.49,91.76,33.31,7.21,114.7,-12.39,29.36,92.55,-9.49,-15.21,89.65,-7.59,-15.25,96.13,-35.0,-28.75,77.69,-35.0,11.84,97.23,23.76,8.76,107.6,-6.74,30.0,92.78,1.59,-17.19,92.43,-0.3377,-1.0,-1.0,-1.0,-1.0,0.0518,-1.0,-1.0,1.0,-1.0,-1.0,-1.0,1.0,1.0,0.1108,1.0,-0.0819,1.0,0.013,0.0,0.006,0.013,0.006,0.0,0.019,0.091,0.0,0.006,0.091,0.019,0.013,0.026,0.026,0.019,0.0,0.006,-0.1227,-0.3958,0.3958,-0.6136,-0.6489,0.0123,-0.5538,-0.0077,0.2102,0.5952,-0.181,0.6182,-0.2209,0.1795,0.227,-0.1902,-0.5737,0.2056,0.2719,-0.3129,0.2375,-0.1919,-0.2934,-0.302,-0.2997,-0.1913,-0.0074,0.1288,0.2932,0.2053,-0.0449,0.2119,0.144,0.2967,-0.1128,-0.2758,1.8006,-0.7045,0.3841,0.3429,-0.0786,-0.4879,-1.0,-1.0,-1.0,-1.0,0.1693,-1.0,-1.0,1.0,-1.0,-0.9053,-1.0,1.0,1.0,0.792,1.0,-0.4117,1.0,0.0,0.0,0.0,0.0,0.0,0.0,0.0,0.0,0.0,-0.0667,0.0,-0.0667,0.0,3
1.24,run,20.68,-5.85,7.9,14.78,1.06,0.0,-0.012,0.0,0.24,-5.27,-6.24,102.92,-34.45,-23.55,78.13,-33.84,16.17,92.11,32.52,8.17,114.7,-11.16,29.36,93.16,-8.09,-15.03,88.86,-9.09,-16.75,94.63,-35.0,-30.25,79.19,-35.0,10.34,98.73,22.26,7.26,106.1,-5.24,30.0,94.28,3.09,-18.69,93.93,-0.2651,-1.0,-1.0,-1.0,-1.0,0.4871,-1.0,-1.0,1.0,-1.0,-1.0,-1.0,1.0,1.0,0.5468,1.0,-0.6574,1.0,0.013,0.0,0.006,0.013,0.006,0.0,0.019,0.091,0.0,0.006,0.091,0.019,0.013,0.026,0.026,0.019,0.0,0.006,-0.1028,-0.4188,0.4034,-0.609,-0.6719,-0.0046,-0.5722,-0.0322,0.2102,0.5783,-0.158,0.6213,-0.2148,0.1871,0.2316,-0.1672,-0.5676,0.1871,0.2651,-0.3054,0.195,-0.1171,-0.2917,-0.2747,-0.2788,-0.226,-0.0052,0.0269,0.2916,0.1552,-0.0084,0.1771,0.1181,0.294,-0.0559,-0.2621,1.8505,-0.6555,0.2188,0.2327,-0.0961,-0.3377,-1.0,-1.0,-1.0,-1.0,0.0518,-1.0,-1.0,1.0,-1.0,-1.0,-1.0,1.0,1.0,0.1108,1.0,-0.0819,1.0,0.0,0.0,0.0,0.0,0.0,0.0,0.0,0.0,0.0,-0.08,0.0,-0.08,0.0,3
1.28,run,20.84,-5.37,3.63,10.9,2.55,0.0,-0.014,0.0,0.24,-4.83,-7.65,102.83,-34.28,-24.87,77.7,-34.37,14.85,92.99,31.38,8.96,113.91,-10.02,29.44,93.25,-6.68,-15.03,88.33,-7.59,-18.25,93.13,-33.5,-31.75,80.69,-35.0,8.84,100.23,20.76,5.76,104.6,-3.74,30.0,92.78,4.59,-20.19,95.43,0.438,-1.0,-1.0,-0.8148,-1.0,0.7037,-1.0,-1.0,1.0,-1.0,-1.0,-1.0,1.0,1.0,0.317,1.0,-0.7209,1.0,0.013,0.0,0.006,0.013,0.006,0.0,0.019,0.091,0.0,0.006,0.091,0.019,0.013,0.026,0.026,0.019,0.0,0.006,-0.0905,-0.4449,0.4065,-0.6013,-0.6964,-0.0184,-0.5875,-0.0552,0.2163,0.5645,-0.1411,0.6213,-0.1933,0.1871,0.2424,-0.1427,-0.5645,0.1733,0.2316,-0.3116,0.148,-0.0532,-0.2962,-0.2441,-0.2527,-0.2445,0.0194,-0.033,0.2674,0.1086,0.0747,0.124,0.1229,0.2978,-0.0276,-0.2353,1.8784,-0.5983,0.1379,0.258,0.0184,-0.2651,-1.0,-1.0,-1.0,-1.0,0.4871,-1.0,-1.0,1.0,-1.0,-1.0,-1.0,1.0,1.0,0.5468,1.0,-0.6574,1.0,0.0,0.0,0.0,0.0,0.0,0.0,0.0,0.0,0.0,-0.0933,0.0,-0.0933,0.0,3
1.32,run,21.04,-4.95,6.2,10.11,2.9,0.0,-0.016,0.0,0.24,-4.66,-9.05,102.22,-34.28,-26.19,77.52,-34.54,13.36,94.22,30.06,9.4,113.12,-8.53,29.44,93.25,-5.36,-15.56,88.15,-6.09,-19.75,91.63,-32.0,-33.25,82.19,-35.0,7.34,101.73,19.26,4.26,103.1,-2.24,30.0,94.28,6.09,-21.69,96.93,1.0,-1.0,-1.0,-0.0302,-1.0,0.9199,-1.0,-1.0,1.0,-1.0,-1.0,-1.0,1.0,1.0,0.8419,1.0,-0.9959,1.0,0.006,0.0,0.013,0.019,0.013,0.019,0.006,0.097,0.006,0.045,0.065,0.0,0.006,0.026,0.013,0.019,0.026,0.0,-0.0828,-0.4694,0.405,-0.5983,-0.7194,-0.0261,-0.5967,-0.0782,0.2316,0.5446,-0.1273,0.6075,-0.1733,0.1887,0.2439,-0.1181,-0.5645,0.1641,0.1909,-0.3101,0.0979,-0.0257,-0.2937,-0.1996,-0.2114,-0.2574,0.0711,-0.0979,0.2389,0.0243,0.127,0.0925,0.0918,0.3005,-0.0194,-0.1992,1.8917,-0.5566,0.0634,0.1902,0.0445,0.438,-1.0,-1.0,-0.8148,-1.0,0.7037,-1.0,-1.0,1.0,-1.0,-1.0,-1.0,1.0,1.0,0.317,1.0,-0.7209,1.0,0.0,0.0,0.0,0.0,0.0,0.0,0.0,0.0,0.0,-0.1067,0.0,-0.1067,0.0,3
1.36,run,21.26,-2.81,0.87,11.13,-1.45,0.0,-0.018,0.0,0.24,-5.36,-15.56,96.5,-31.2,-32.7,81.65,-34.54,7.21,100.37,23.38,8.09,106.7,-2.37,29.71,95.45,1.41,-20.92,92.02,-4.59,-21.25,90.13,-30.5,-34.75,83.69,-35.0,5.84,103.23,17.76,2.76,101.6,-0.74,30.0,95.78,7.59,-23.19,98.43,1.0,-1.0,-1.0,1.0,-1.0,0.539,-1.0,-1.0,1.0,-1.0,-1.0,-1.0,1.0,1.0,1.0,1.0,-0.825,1.0,0.019,0.0,0.019,0.006,0.0,0.006,0.006,0.033,0.006,0.033,0.006,0.006,0.006,0.006,0.013,0.006,0.019,0.013,-0.0798,-0.4939,0.3942,-0.5983,-0.7424,-0.0291,-0.5998,-0.1043,0.2531,0.5216,-0.1197,0.5937,-0.1473,0.1887,0.2439,-0.0951,-0.5737,0.1611,0.1452,-0.3097,0.028,-0.018,-0.2924,-0.1513,-0.1596,-0.2786,0.1308,-0.1553,0.1962,-0.0351,0.1873,0.0648,0.0643,0.2972,-0.0483,-0.151,1.9095,-0.5201,0.1082,0.1765,0.0505,1.0,-1.0,-1.0,-0.0302,-1.0,0.9199,-1.0,-1.0,1.0,-1.0,-1.0,-1.0,1.0,1.0,0.8419,1.0,-0.9959,1.0,0.0,0.0,0.0,0.0,0.0,0.0,0.0,0.0,0.0,-0.12,0.0,-0.12,0.0,3
1.4,run,21.23,-1.18,0.03,36.9,-3.76,0.0,-0.02,0.0,0.24,-4.92,-17.14,94.31,-31.03,-33.75,82.62,-34.54,6.59,101.6,21.62,6.77,105.12,-1.49,29.62,95.62,2.81,-21.97,93.34,-3.09,-22.75,88.63,-29.0,-36.25,82.19,-35.0,4.34,104.73,16.26,1.26,100.1,0.76,30.0,97.28,9.09,-21.69,99.93,1.0,-1.0,-0.4194,1.0,-1.0,-1.0,-1.0,-1.0,1.0,-1.0,-0.8665,-1.0,1.0,1.0,0.7177,1.0,0.2511,1.0,0.019,0.0,0.019,0.006,0.0,0.006,0.006,0.033,0.006,0.033,0.006,0.006,0.006,0.006,0.013,0.006,0.019,0.013,-0.092,-0.6075,0.2945,-0.5446,-0.856,0.043,-0.5998,-0.2117,0.3605,0.405,-0.1427,0.4817,-0.0399,0.1933,0.2823,0.023,-0.6673,0.2286,0.0918,-0.3074,-0.06,0.0303,-0.2953,-0.0484,-0.1117,-0.2807,0.1773,-0.2018,0.119,-0.1139,0.2168,0.049,0.0756,0.3023,-0.1085,-0.0518,1.9289,-0.3329,0.0152,0.1943,-0.0253,1.0,-1.0,-1.0,1.0,-1.0,0.539,-1.0,-1.0,1.0,-1.0,-1.0,-1.0,1.0,1.0,1.0,1.0,-0.825,1.0,0.0,0.0,0.0,0.0,0.0,0.0,0.0,0.0,0.0,-0.1333,0.0,-0.1333,0.0,3
1.44,run,21.55,-0.62,7.67,13.97,2.74,0.0,-0.022,0.0,0.24,-4.75,-18.54,93.25,-30.85,-34.37,83.23,-34.54,6.24,102.39,20.13,5.98,103.89,-0.97,29.53,95.71,4.66,-22.41,95.36,-1.59,-24.25,87.13,-27.5,-37.75,80.69,-35.0,2.84,106.23,14.76,-0.24,98.6,2.26,30.0,95.78,10.59,-20.19,101.43,1.0,-1.0,-0.2113,1.0,-1.0,-1.0,-1.0,-1.0,1.0,-1.0,-0.7365,-1.0,1.0,1.0,0.0589,1.0,1.0,1.0,0.019,0.0,0.019,0.006,0.0,0.006,0.006,0.033,0.006,0.033,0.006,0.006,0.006,0.006,0.013,0.006,0.019,0.013,-0.0844,-0.6351,0.2562,-0.5415,-0.8744,0.0598,-0.5998,-0.2224,0.382,0.3743,-0.1657,0.4541,-0.0245,0.1917,0.2853,0.0476,-0.6857,0.2516,0.0899,-0.3074,-0.1701,0.0314,-0.2682,0.0225,-0.0782,-0.2324,0.1958,-0.2437,0.0064,-0.172,0.203,0.0292,0.0632,0.2936,-0.1374,0.0406,1.9258,-0.1908,0.0005,0.644,-0.0656,1.0,-1.0,-0.4194,1.0,-1.0,-1.0,-1.0,-1.0,1.0,-1.0,-0.8665,-1.0,1.0,1.0,0.7177,1.0,0.2511,1.0,0.0,0.0,0.0,0.0,0.0,0.0,0.0,0.0,0.0,-0.1467,0.0,-0.1467,0.0,3
1.48,run,21.83,-0.06,6.86,13.54,1.99,0.0,-0.024,0.0,0.24,-4.66,-19.86,91.67,-30.5,-35.16,83.41,-34.54,5.71,103.18,18.63,4.22,102.48,-0.26,29.53,95.8,5.62,-22.59,96.24,-0.09,-25.75,85.63,-26.0,-39.25,79.19,-35.0,1.34,107.73,13.26,1.26,97.1,3.76,30.0,97.28,12.09,-18.69,102.93,1.0,-1.0,-0.7126,1.0,-1.0,-1.0,-1.0,-1.0,1.0,-1.0,0.6022,-1.0,1.0,1.0,1.0,1.0,0.5453,1.0,0.045,0.006,0.013,0.019,0.006,0.006,0.006,0.039,0.019,0.019,0.006,0.013,0.013,0.019,0.0,0.026,0.0,0.033,-0.0813,-0.6596,0.2378,-0.5384,-0.8851,0.0706,-0.5998,-0.2286,0.3958,0.3482,-0.1795,0.4326,-0.0153,0.1902,0.2869,0.0798,-0.6934,0.2869,0.0743,-0.3058,-0.187,0.0333,-0.2274,0.0554,-0.0547,-0.1853,0.188,-0.2669,-0.0465,-0.1997,0.1761,0.0148,0.0499,0.3245,-0.1245,0.1587,1.9538,-0.1423,0.1339,0.2439,0.0477,1.0,-1.0,-0.2113,1.0,-1.0,-1.0,-1.0,-1.0,1.0,-1.0,-0.7365,-1.0,1.0,1.0,0.0589,1.0,1.0,1.0,0.0,0.0,0.0,0.0,0.0,0.0,0.0,0.0,0.0,-0.16,0.0,-0.16,0.0,3
1.52,run,21.99,0.89,4.22,23.74,2.71,0.0,-0.026,0.0,0.24,-3.6,-21.27,90.35,-29.88,-36.04,83.14,-34.54,4.83,103.89,17.23,2.9,101.07,0.88,29.53,95.71,7.47,-22.5,98.09,1.41,-27.25,84.13,-24.5,-40.75,77.69,-35.0,-0.16,109.23,11.76,2.76,95.6,5.26,30.0,98.78,13.59,-17.19,104.43,1.0,-1.0,-1.0,1.0,-1.0,-1.0,-1.0,-1.0,1.0,-1.0,0.8751,-1.0,1.0,1.0,1.0,1.0,1.0,1.0,0.045,0.006,0.013,0.019,0.006,0.006,0.006,0.039,0.019,0.019,0.006,0.013,0.013,0.019,0.0,0.026,0.0,0.033,-0.0798,-0.6826,0.2102,-0.5323,-0.8989,0.0736,-0.5998,-0.2378,0.4096,0.3221,-0.2102,0.408,-0.0031,0.1902,0.2884,0.0966,-0.6964,0.3022,0.0577,-0.3004,-0.2345,0.0463,-0.2109,0.0503,-0.0383,-0.1642,0.1834,-0.2846,-0.1476,-0.2318,0.1693,0.0103,0.0407,0.2904,-0.0987,0.1686,1.9781,-0.0932,0.1197,0.2363,0.0348,1.0,-1.0,-0.7126,1.0,-1.0,-1.0,-1.0,-1.0,1.0,-1.0,0.6022,-1.0,1.0,1.0,1.0,1.0,0.5453,1.0,0.0,0.0,0.0,0.0,0.0,0.0,0.0,0.0,0.0,-0.1733,0.0,-0.1733,0.0,3
1.56,run,22.3,1.92,7.6,27.06,2.7,0.0,-0.028,0.0,0.24,-2.64,-22.68,88.86,-28.92,-37.27,82.53,-34.54,3.6,105.47,15.82,1.93,99.58,2.11,29.53,96.33,8.79,-22.06,99.32,2.91,-28.75,82.63,-23.0,-42.25,76.19,-35.0,-1.66,110.73,10.26,1.26,94.1,6.76,30.0,100.28,15.09,-15.69,105.93,1.0,-1.0,-1.0,1.0,-1.0,-1.0,-1.0,-1.0,1.0,-1.0,0.4735,-1.0,1.0,1.0,0.8616,1.0,1.0,1.0,0.045,0.006,0.013,0.019,0.006,0.006,0.006,0.039,0.019,0.019,0.006,0.013,0.013,0.019,0.0,0.026,0.0,0.033,-0.0614,-0.7072,0.1871,-0.5216,-0.9143,0.069,-0.5998,-0.2531,0.4218,0.2976,-0.2332,0.3835,0.0169,0.1902,0.2869,0.1289,-0.6949,0.3344,0.1095,-0.3024,-0.2505,0.0727,-0.2052,0.0179,-0.0268,-0.1725,0.1744,-0.2913,-0.1897,-0.2544,0.1933,0.0072,0.0227,0.3242,-0.0633,0.2389,1.9926,-0.0104,0.0737,0.4143,0.0473,1.0,-1.0,-1.0,1.0,-1.0,-1.0,-1.0,-1.0,1.0,-1.0,0.8751,-1.0,1.0,1.0,1.0,1.0,1.0,1.0,0.0,0.0,0.0,0.0,0.0,0.0,0.0,0.0,0.0,-0.1867,0.0,-0.1867,0.0,3
1.6,run,22.64,3.13,9.64,29.79,1.29,0.0,-0.03,0.0,0.24,-1.32,-24.08,87.54,-27.69,-38.5,81.56,-34.54,2.2,106.79,14.33,1.05,98.17,3.6,29.53,96.86,10.02,-21.45,100.72,4.41,-30.25,81.13,-21.5,-43.75,74.69,-35.0,-3.16,112.23,8.76,-0.24,92.6,8.26,30.0,101.78,16.59,-14.19,107.43,1.0,-0.7056,-0.9627,1.0,-1.0,-1.0,-1.0,-1.0,1.0,-1.0,0.3866,-1.0,1.0,1.0,0.723,1.0,1.0,0.7668,0.033,0.006,0.013,0.019,0.006,0.006,0.013,0.033,0.019,0.006,0.006,0.013,0.013,0.019,0.026,0.0,0.045,0.006,-0.0445,-0.7317,0.1611,-0.5047,-0.9357,0.0583,-0.5998,-0.2746,0.4495,0.273,-0.25,0.3574,0.0383,0.1902,0.2976,0.1519,-0.6872,0.3559,0.1399,-0.3037,-0.2731,0.1142,-0.2242,-0.0277,-0.0188,-0.2013,0.2256,-0.296,-0.196,-0.2758,0.2159,0.0051,0.0562,0.3132,-0.0156,0.2478,2.0196,0.0797,0.1326,0.4722,0.0472,1.0,-1.0,-1.0,1.0,-1.0,-1.0,-1.0,-1.0,1.0,-1.0,0.4735,-1.0,1.0,1.0,0.8616,1.0,1.0,1.0,0.0,0.0,0.0,0.0,0.0,0.0,0.0,0.0,0.0,-0.2,0.0,-0.2,0.0,3
1.64,run,22.94,4.22,7.66,27.67,-8.03,0.0,-0.032,0.0,0.24,0.0,-25.58,86.04,-26.37,-39.55,80.33,-34.54,0.7,108.11,12.92,0.44,96.86,4.92,29.44,97.73,11.78,-20.39,101.87,5.91,-31.75,79.63,-20.0,-45.25,73.19,-35.0,-4.66,113.73,7.26,-1.74,91.1,9.76,30.0,103.28,18.09,-12.69,105.93,1.0,-0.3441,-1.0,1.0,-1.0,-1.0,-1.0,-1.0,1.0,-1.0,0.2301,-1.0,1.0,1.0,0.6418,1.0,1.0,0.1129,0.033,0.006,0.013,0.019,0.006,0.006,0.013,0.033,0.019,0.006,0.006,0.013,0.013,0.019,0.026,0.0,0.045,0.006,-0.0215,-0.7563,0.1381,-0.4832,-0.9572,0.0414,-0.5998,-0.2991,0.4725,0.247,-0.2654,0.3329,0.0644,0.1902,0.3068,0.1733,-0.6765,0.3804,0.1842,-0.3046,-0.2774,0.1604,-0.2374,-0.0827,-0.0131,-0.2329,0.2442,-0.3049,-0.1947,-0.2851,0.2489,0.0035,0.0738,0.2997,0.0294,0.2654,2.0495,0.1858,0.1683,0.5199,0.0224,1.0,-0.7056,-0.9627,1.0,-1.0,-1.0,-1.0,-1.0,1.0,-1.0,0.3866,-1.0,1.0,1.0,0.723,1.0,1.0,0.7668,0.0,0.0,0.0,0.0,0.0,0.0,0.0,0.0,0.0,-0.2133,0.0,-0.2133,0.0,3
1.68,run,23.19,5.49,6.32,32.1,-15.0,0.0,-0.034,0.0,0.24,1.41,-27.07,84.55,-24.87,-40.96,79.01,-34.54,-0.7,109.42,11.51,0.09,95.36,6.24,29.44,98.88,12.83,-18.19,103.8,7.41,-33.25,78.13,-18.5,-46.75,71.69,-35.0,-6.16,115.23,5.76,-3.24,89.6,11.26,30.0,104.78,19.59,-11.19,104.43,1.0,-0.447,-0.9967,1.0,-1.0,-1.0,-1.0,-1.0,1.0,-1.0,0.3447,-1.0,1.0,1.0,0.7544,1.0,1.0,-0.9096,0.033,0.006,0.013,0.019,0.006,0.006,0.013,0.033,0.019,0.006,0.006,0.013,0.013,0.019,0.026,0.0,0.045,0.006,0.0015,-0.7823,0.112,-0.4602,-0.9756,0.0199,-0.5998,-0.3252,0.4955,0.2224,-0.2761,0.3099,0.0874,0.1887,0.3221,0.204,-0.6581,0.4004,0.2151,-0.3109,-0.2919,0.1985,-0.2352,-0.1383,-0.0092,-0.2607,0.2571,-0.3054,-0.1765,-0.2858,0.2604,-0.0033,0.1091,0.3247,0.0895,0.2605,2.075,0.2803,0.1336,0.4829,-0.1401,1.0,-0.3441,-1.0,1.0,-1.0,-1.0,-1.0,-1.0,1.0,-1.0,0.2301,-1.0,1.0,1.0,0.6418,1.0,1.0,0.1129,0.0,0.0,0.0,0.0,0.0,0.0,0.0,0.0,0.0,-0.2267,0.0,-0.2267,0.0,3
1.72,run,23.59,6.85,10.24,35.85,-21.1,0.0,-0.036,0.0,0.24,2.72,-28.48,83.14,-23.38,-42.45,77.7,-34.54,-2.11,110.74,10.02,-0.53,93.96,7.65,29.36,100.28,14.41,-17.05,104.15,8.91,-34.75,76.63,-17.0,-48.25,70.19,-35.0,-7.66,116.73,4.26,-4.74,88.1,12.76,30.0,103.28,21.09,-9.69,102.93,1.0,-0.451,-0.3855,1.0,-1.0,-1.0,-1.0,-1.0,1.0,-1.0,0.2292,-1.0,1.0,1.0,-0.0468,1.0,1.0,-1.0,0.058,0.0,0.0,0.013,0.026,0.0,0.013,0.019,0.033,0.013,0.019,0.013,0.019,0.026,0.071,0.033,0.039,0.019,0.0261,-0.8084,0.0859,-0.4341,-1.0002,-0.0031,-0.5998,-0.3497,0.5185,0.1979,-0.2823,0.2838,0.1104,0.1887,0.3421,0.2224,-0.6197,0.4341,0.2428,-0.3156,-0.3023,0.2369,-0.2568,-0.1832,-0.0064,-0.2747,0.2664,-0.306,-0.1466,-0.298,0.2687,-0.0023,0.1513,0.2965,0.2067,0.3091,2.097,0.3909,0.1103,0.5603,-0.2618,1.0,-0.447,-0.9967,1.0,-1.0,-1.0,-1.0,-1.0,1.0,-1.0,0.3447,-1.0,1.0,1.0,0.7544,1.0,1.0,-0.9096,0.0,0.0,0.0,0.0,0.0,0.0,0.0,0.0,0.0,-0.24,0.0,-0.24,0.0,3
1.76,run,24.25,8.36,14.49,29.83,-10.83,0.0,-0.038,0.0,0.24,4.39,-30.23,81.39,-21.62,-44.12,75.85,-34.54,-3.96,112.41,8.35,-1.58,92.2,9.4,29.36,101.78,16.0,-15.91,105.47,10.41,-33.25,75.13,-15.5,-49.75,68.69,-35.0,-9.16,118.23,2.76,-6.24,86.6,14.26,30.0,101.78,22.59,-8.19,101.43,1.0,0.1029,-0.4095,1.0,-1.0,-1.0,-1.0,-1.0,1.0,-1.0,0.026,-1.0,1.0,1.0,-0.5122,1.0,1.0,-1.0,0.058,0.0,0.0,0.013,0.026,0.0,0.013,0.019,0.033,0.013,0.019,0.013,0.019,0.026,0.071,0.033,0.039,0.019,0.0491,-0.833,0.0614,-0.408,-1.0262,-0.0261,-0.5998,-0.3743,0.5415,0.1718,-0.293,0.2592,0.135,0.1871,0.3666,0.25,-0.5998,0.4403,0.2561,-0.3128,-0.3035,0.2635,-0.2775,-0.2145,-0.0045,-0.2842,0.2727,-0.3119,-0.1429,-0.3005,0.28,-0.0073,0.1979,0.311,0.2194,0.2394,2.1316,0.5101,0.1787,0.6257,-0.3682,1.0,-0.451,-0.3855,1.0,-1.0,-1.0,-1.0,-1.0,1.0,-1.0,0.2292,-1.0,1.0,1.0,-0.0468,1.0,1.0,-1.0,0.0,0.0,0.0,0.0,0.0,0.0,0.0,0.0,0.0,-0.2533,0.0,-0.2533,0.0,3
1.9,tail,22.55,9.31,-14.24,7.9,9.29,,0.0,0.0,0.24,4.22,-34.37,78.13,-19.6,-45.26,73.12,-34.54,-5.54,113.55,5.54,-2.64,89.74,11.6,26.98,102.22,17.58,-14.68,106.26,,,,,,,,,,,,,,,,,,,,,,,,,,,,,,,,,,,,,0.006,0.0,0.0,0.0,0.0,0.0,0.0,0.0,0.0,0.0,0.0,0.0,0.0,0.0,0.0,0.0,0.0,0.0,,,,,,,,,,,,,,,,,,,,,,,,,,,,,,,,,,,,,,,,,,,,,,,,,,,,,,,,,,,,,,,,,,,,,,,,,
2.0,tail,21.89,9.56,-5.58,1.88,-3.27,,0.0,0.0,0.24,2.29,-34.98,77.96,-19.86,-45.26,73.21,-34.54,-5.54,113.55,5.1,-2.64,89.74,11.6,22.41,102.3,17.49,-15.64,106.26,,,,,,,,,,,,,,,,,,,,,,,,,,,,,,,,,,,,,0.0,0.0,0.0,0.0,0.0,0.0,0.0,0.0,0.0,0.0,0.0,0.0,0.0,0.0,0.0,0.0,0.0,0.0,,,,,,,,,,,,,,,,,,,,,,,,,,,,,,,,,,,,,,,,,,,,,,,,,,,,,,,,,,,,,,,,,,,,,,,,,
2.1,tail,21.85,9.57,-0.48,0.05,-0.29,,0.0,0.0,0.24,1.67,-34.28,77.96,-19.86,-45.26,73.21,-34.54,-5.54,113.55,5.1,-2.64,89.74,11.6,20.65,102.3,17.49,-16.35,106.26,,,,,,,,,,,,,,,,,,,,,,,,,,,,,,,,,,,,,0.0,0.0,0.0,0.0,0.0,0.0,0.0,0.0,0.0,0.0,0.0,0.0,0.0,0.0,0.0,0.0,0.0,0.0,,,,,,,,,,,,,,,,,,,,,,,,,,,,,,,,,,,,,,,,,,,,,,,,,,,,,,,,,,,,,,,,,,,,,,,,,
2.2,tail,21.91,9.57,0.14,0.1,1.42,,0.0,0.0,0.24,1.58,-34.28,77.96,-19.86,-45.26,73.21,-34.54,-5.54,113.55,5.1,-2.64,89.74,11.6,20.65,102.3,17.49,-16.35,106.26,,,,,,,,,,,,,,,,,,,,,,,,,,,,,,,,,,,,,0.0,0.0,0.0,0.0,0.0,0.0,0.0,0.0,0.0,0.0,0.0,0.0,0.0,0.0,0.0,0.0,0.0,0.0,,,,,,,,,,,,,,,,,,,,,,,,,,,,,,,,,,,,,,,,,,,,,,,,,,,,,,,,,,,,,,,,,,,,,,,,,
2.3,tail,21.96,9.58,-0.02,0.0,0.45,,0.0,0.0,0.24,1.58,-34.28,77.96,-19.86,-45.26,73.21,-34.54,-5.54,113.55,5.1,-2.64,89.74,11.6,20.65,102.3,17.49,-16.35,106.26,,,,,,,,,,,,,,,,,,,,,,,,,,,,,,,,,,,,,0.0,0.0,0.0,0.0,0.0,0.0,0.0,0.0,0.0,0.0,0.0,0.0,0.0,0.0,0.0,0.0,0.0,0.0,,,,,,,,,,,,,,,,,,,,,,,,,,,,,,,,,,,,,,,,,,,,,,,,,,,,,,,,,,,,,,,,,,,,,,,,,
2.4,tail,21.99,9.6,-0.02,0.1,-0.23,,0.0,0.0,0.24,1.58,-34.28,77.96,-19.86,-45.26,73.21,-34.54,-5.54,113.55,5.1,-2.64,89.74,11.6,20.65,102.3,17.49,-16.35,106.26,,,,,,,,,,,,,,,,,,,,,,,,,,,,,,,,,,,,,0.0,0.0,0.0,0.0,0.0,0.0,0.0,0.0,0.0,0.0,0.0,0.0,0.0,0.0,0.0,0.0,0.0,0.0,,,,,,,,,,,,,,,,,,,,,,,,,,,,,,,,,,,,,,,,,,,,,,,,,,,,,,,,,,,,,,,,,,,,,,,,,
2.5,tail,22.05,9.6,0.12,-0.05,-0.35,,0.0,0.0,0.24,1.58,-34.28,77.96,-19.86,-45.26,73.21,-34.54,-5.54,113.55,5.1,-2.64,89.74,11.6,20.65,102.3,17.49,-16.35,106.26,,,,,,,,,,,,,,,,,,,,,,,,,,,,,,,,,,,,,0.0,0.0,0.0,0.0,0.0,0.0,0.0,0.0,0.0,0.0,0.0,0.0,0.0,0.0,0.0,0.0,0.0,0.0,,,,,,,,,,,,,,,,,,,,,,,,,,,,,,,,,,,,,,,,,,,,,,,,,,,,,,,,,,,,,,,,,,,,,,,,,
2.6,tail,22.08,9.59,-0.01,-0.05,-0.28,,0.0,0.0,0.24,1.58,-34.28,77.96,-19.86,-45.26,73.21,-34.54,-5.54,113.55,5.1,-2.64,89.74,11.6,20.65,102.3,17.49,-16.35,106.26,,,,,,,,,,,,,,,,,,,,,,,,,,,,,,,,,,,,,0.0,0.0,0.0,0.0,0.0,0.0,0.0,0.0,0.0,0.0,0.0,0.0,0.0,0.0,0.0,0.0,0.0,0.0,,,,,,,,,,,,,,,,,,,,,,,,,,,,,,,,,,,,,,,,,,,,,,,,,,,,,,,,,,,,,,,,,,,,,,,,,
2.7,tail,22.12,9.6,0.01,0.02,-0.2,,0.0,0.0,0.24,1.58,-34.28,77.96,-19.86,-45.26,73.21,-34.54,-5.54,113.55,5.1,-2.64,89.74,11.6,20.65,102.3,17.49,-16.35,106.26,,,,,,,,,,,,,,,,,,,,,,,,,,,,,,,,,,,,,0.0,0.0,0.0,0.0,0.0,0.0,0.0,0.0,0.0,0.0,0.0,0.0,0.0,0.0,0.0,0.0,0.0,0.0,,,,,,,,,,,,,,,,,,,,,,,,,,,,,,,,,,,,,,,,,,,,,,,,,,,,,,,,,,,,,,,,,,,,,,,,,
2.8,tail,22.15,9.59,-0.06,-0.03,-0.12,,0.0,0.0,0.24,1.58,-34.28,77.96,-19.86,-45.26,73.21,-34.54,-5.54,113.55,5.1,-2.64,89.74,11.6,20.57,102.3,17.49,-16.35,106.26,,,,,,,,,,,,,,,,,,,,,,,,,,,,,,,,,,,,,0.0,0.0,0.0,0.0,0.0,0.0,0.0,0.0,0.0,0.0,0.0,0.0,0.0,0.0,0.0,0.0,0.0,0.0,,,,,,,,,,,,,,,,,,,,,,,,,,,,,,,,,,,,,,,,,,,,,,,,,,,,,,,,,,,,,,,,,,,,,,,,,
2.9,tail,22.2,9.6,0.05,0.02,-0.04,,0.0,0.0,0.24,1.58,-34.28,77.96,-19.86,-45.26,73.21,-34.54,-5.54,113.55,5.1,-2.64,89.74,11.6,20.57,102.3,17.49,-16.35,106.26,,,,,,,,,,,,,,,,,,,,,,,,,,,,,,,,,,,,,0.0,0.0,0.0,0.0,0.0,0.0,0.0,0.0,0.0,0.0,0.0,0.0,0.0,0.0,0.0,0.0,0.0,0.0,,,,,,,,,,,,,,,,,,,,,,,,,,,,,,,,,,,,,,,,,,,,,,,,,,,,,,,,,,,,,,,,,,,,,,,,,
3.0,tail,22.24,9.61,0.0,0.07,-0.04,,0.0,0.0,0.24,1.58,-34.28,77.96,-19.86,-45.26,73.21,-34.54,-5.54,113.55,5.1,-2.64,89.74,11.6,20.57,102.3,17.49,-16.35,106.26,,,,,,,,,,,,,,,,,,,,,,,,,,,,,,,,,,,,,0.0,0.0,0.0,0.0,0.0,0.0,0.0,0.0,0.0,0.0,0.0,0.0,0.0,0.0,0.0,0.0,0.0,0.0,,,,,,,,,,,,,,,,,,,,,,,,,,,,,,,,,,,,,,,,,,,,,,,,,,,,,,,,,,,,,,,,,,,,,,,,,
3.1,tail,22.27,9.61,0.01,0.03,-0.07,,0.0,0.0,0.24,1.58,-34.28,77.96,-19.86,-45.26,73.21,-34.54,-5.54,113.55,5.1,-2.64,89.74,11.6,20.57,102.3,17.49,-16.35,106.26,,,,,,,,,,,,,,,,,,,,,,,,,,,,,,,,,,,,,0.0,0.0,0.0,0.0,0.0,0.0,0.0,0.0,0.0,0.0,0.0,0.0,0.0,0.0,0.0,0.0,0.0,0.0,,,,,,,,,,,,,,,,,,,,,,,,,,,,,,,,,,,,,,,,,,,,,,,,,,,,,,,,,,,,,,,,,,,,,,,,,
3.2,tail,22.3,9.61,-0.05,-0.02,-0.1,,0.0,0.0,0.24,1.58,-34.28,77.96,-19.86,-45.26,73.21,-34.54,-5.54,113.55,5.1,-2.64,89.74,11.6,20.57,102.3,17.49,-16.35,106.26,,,,,,,,,,,,,,,,,,,,,,,,,,,,,,,,,,,,,0.0,0.0,0.0,0.0,0.0,0.0,0.0,0.0,0.0,0.0,0.0,0.0,0.0,0.0,0.0,0.0,0.0,0.0,,,,,,,,,,,,,,,,,,,,,,,,,,,,,,,,,,,,,,,,,,,,,,,,,,,,,,,,,,,,,,,,,,,,,,,,,
3.3,tail,22.35,9.62,0.09,0.03,-0.14,,0.0,0.0,0.24,1.58,-34.28,77.96,-19.86,-45.26,73.21,-34.54,-5.54,113.55,5.1,-2.64,89.74,11.6,20.57,102.3,17.49,-16.35,106.26,,,,,,,,,,,,,,,,,,,,,,,,,,,,,,,,,,,,,0.0,0.0,0.0,0.0,0.0,0.0,0.0,0.0,0.0,0.0,0.0,0.0,0.0,0.0,0.0,0.0,0.0,0.0,,,,,,,,,,,,,,,,,,,,,,,,,,,,,,,,,,,,,,,,,,,,,,,,,,,,,,,,,,,,,,,,,,,,,,,,,
3.4,tail,22.38,9.62,-0.07,0.03,-0.06,,0.0,0.0,0.24,1.58,-34.28,77.96,-19.86,-45.26,73.21,-34.54,-5.54,113.55,5.1,-2.64,89.74,11.6,20.57,102.3,17.49,-16.35,106.26,,,,,,,,,,,,,,,,,,,,,,,,,,,,,,,,,,,,,0.0,0.0,0.0,0.0,0.0,0.0,0.0,0.0,0.0,0.0,0.0,0.0,0.0,0.0,0.0,0.0,0.0,0.0,,,,,,,,,,,,,,,,,,,,,,,,,,,,,,,,,,,,,,,,,,,,,,,,,,,,,,,,,,,,,,,,,,,,,,,,,
3.5,tail,22.41,9.63,0.01,0.08,-0.13,,0.0,0.0,0.24,1.58,-34.28,77.96,-19.86,-45.26,73.21,-34.54,-5.54,113.55,5.1,-2.64,89.74,11.6,20.57,102.3,17.49,-16.35,106.26,,,,,,,,,,,,,,,,,,,,,,,,,,,,,,,,,,,,,0.0,0.0,0.0,0.0,0.0,0.0,0.0,0.0,0.0,0.0,0.0,0.0,0.0,0.0,0.0,0.0,0.0,0.0,,,,,,,,,,,,,,,,,,,,,,,,,,,,,,,,,,,,,,,,,,,,,,,,,,,,,,,,,,,,,,,,,,,,,,,,,
3.6,tail,22.44,9.64,-0.01,0.02,-0.13,,0.0,0.0,0.24,1.58,-34.28,77.96,-19.86,-45.26,73.21,-34.54,-5.54,113.55,5.1,-2.64,89.74,11.6,20.57,102.3,17.49,-16.35,106.26,,,,,,,,,,,,,,,,,,,,,,,,,,,,,,,,,,,,,0.0,0.0,0.0,0.0,0.0,0.0,0.0,0.0,0.0,0.0,0.0,0.0,0.0,0.0,0.0,0.0,0.0,0.0,,,,,,,,,,,,,,,,,,,,,,,,,,,,,,,,,,,,,,,,,,,,,,,,,,,,,,,,,,,,,,,,,,,,,,,,,
3.7,tail,22.48,9.63,0.0,-0.07,-0.11,,0.0,0.0,0.24,1.58,-34.28,77.96,-19.86,-45.26,73.21,-34.54,-5.54,113.55,5.1,-2.64,89.74,11.6,20.57,102.3,17.49,-16.35,106.26,,,,,,,,,,,,,,,,,,,,,,,,,,,,,,,,,,,,,0.0,0.0,0.0,0.0,0.0,0.0,0.0,0.0,0.0,0.0,0.0,0.0,0.0,0.0,0.0,0.0,0.0,0.0,,,,,,,,,,,,,,,,,,,,,,,,,,,,,,,,,,,,,,,,,,,,,,,,,,,,,,,,,,,,,,,,,,,,,,,,,
3.8,tail,22.51,9.62,0.02,-0.06,-0.1,,0.0,0.0,0.24,1.58,-34.28,77.96,-19.86,-45.26,73.21,-34.54,-5.54,113.55,5.1,-2.64,89.74,11.6,20.57,102.3,17.49,-16.35,106.26,,,,,,,,,,,,,,,,,,,,,,,,,,,,,,,,,,,,,0.0,0.0,0.0,0.0,0.0,0.0,0.0,0.0,0.0,0.0,0.0,0.0,0.006,0.0,0.0,0.0,0.0,0.0,,,,,,,,,,,,,,,,,,,,,,,,,,,,,,,,,,,,,,,,,,,,,,,,,,,,,,,,,,,,,,,,,,,,,,,,,
3.9,tail,22.54,9.63,-0.01,0.02,-0.13,,0.0,0.0,0.24,1.58,-34.28,77.96,-19.86,-45.26,73.21,-34.54,-5.54,113.55,5.1,-2.64,89.74,11.6,20.57,102.3,17.49,-16.35,106.26,,,,,,,,,,,,,,,,,,,,,,,,,,,,,,,,,,,,,0.0,0.0,0.0,0.0,0.0,0.0,0.0,0.0,0.0,0.0,0.0,0.0,0.0,0.0,0.0,0.0,0.0,0.0,,,,,,,,,,,,,,,,,,,,,,,,,,,,,,,,,,,,,,,,,,,,,,,,,,,,,,,,,,,,,,,,,,,,,,,,,
4.0,tail,22.57,9.63,-0.01,0.0,-0.08,,0.0,0.0,0.24,1.58,-34.28,77.96,-19.86,-45.26,73.21,-34.54,-5.54,113.55,5.1,-2.64,89.74,11.6,20.57,102.3,17.49,-16.35,106.26,,,,,,,,,,,,,,,,,,,,,,,,,,,,,,,,,,,,,0.0,0.0,0.0,0.0,0.0,0.0,0.0,0.0,0.0,0.0,0.0,0.0,0.0,0.0,0.0,0.0,0.0,0.0,,,,,,,,,,,,,,,,,,,,,,,,,,,,,,,,,,,,,,,,,,,,,,,,,,,,,,,,,,,,,,,,,,,,,,,,,
4.1,tail,22.6,9.63,-0.01,0.04,-0.06,,0.0,0.0,0.24,1.58,-34.28,77.96,-19.86,-45.26,73.21,-34.54,-5.54,113.55,5.1,-2.64,89.74,11.6,20.57,102.3,17.49,-16.35,106.26,,,,,,,,,,,,,,,,,,,,,,,,,,,,,,,,,,,,,0.006,0.0,0.0,0.0,0.0,0.0,0.0,0.0,0.0,0.0,0.0,0.0,0.0,0.0,0.0,0.0,0.0,0.0,,,,,,,,,,,,,,,,,,,,,,,,,,,,,,,,,,,,,,,,,,,,,,,,,,,,,,,,,,,,,,,,,,,,,,,,,
4.2,tail,22.64,9.64,0.05,0.05,-0.16,,0.0,0.0,0.24,1.58,-34.28,77.96,-19.86,-45.26,73.21,-34.54,-5.54,113.55,5.1,-2.64,89.74,11.6,20.57,102.3,17.49,-16.35,106.26,,,,,,,,,,,,,,,,,,,,,,,,,,,,,,,,,,,,,0.0,0.0,0.0,0.0,0.0,0.0,0.0,0.0,0.0,0.0,0.0,0.0,0.0,0.0,0.0,0.0,0.0,0.0,,,,,,,,,,,,,,,,,,,,,,,,,,,,,,,,,,,,,,,,,,,,,,,,,,,,,,,,,,,,,,,,,,,,,,,,,
4.3,tail,22.67,9.64,0.02,0.03,-0.11,,0.0,0.0,0.24,1.58,-34.28,77.96,-19.86,-45.26,73.21,-34.54,-5.54,113.55,5.1,-2.64,89.74,11.6,20.48,102.3,17.49,-16.35,106.26,,,,,,,,,,,,,,,,,,,,,,,,,,,,,,,,,,,,,0.0,0.0,0.0,0.0,0.0,0.0,0.0,0.0,0.0,0.0,0.0,0.0,0.0,0.0,0.0,0.0,0.0,0.0,,,,,,,,,,,,,,,,,,,,,,,,,,,,,,,,,,,,,,,,,,,,,,,,,,,,,,,,,,,,,,,,,,,,,,,,,
4.4,tail,22.7,9.64,0.03,-0.03,-0.12,,0.0,0.0,0.24,1.58,-34.28,77.96,-19.86,-45.26,73.21,-34.54,-5.54,113.55,5.1,-2.64,89.74,11.6,20.48,102.3,17.49,-16.35,106.26,,,,,,,,,,,,,,,,,,,,,,,,,,,,,,,,,,,,,0.0,0.0,0.0,0.0,0.0,0.0,0.0,0.0,0.0,0.0,0.0,0.0,0.0,0.0,0.0,0.0,0.0,0.0,,,,,,,,,,,,,,,,,,,,,,,,,,,,,,,,,,,,,,,,,,,,,,,,,,,,,,,,,,,,,,,,,,,,,,,,,
4.5,tail,22.73,9.64,0.02,-0.0,-0.11,,0.0,0.0,0.24,1.58,-34.28,77.96,-19.86,-45.26,73.21,-34.54,-5.54,113.55,5.1,-2.64,89.74,11.6,20.48,102.3,17.49,-16.35,106.26,,,,,,,,,,,,,,,,,,,,,,,,,,,,,,,,,,,,,0.0,0.0,0.0,0.0,0.0,0.0,0.0,0.0,0.0,0.0,0.0,0.0,0.0,0.0,0.0,0.0,0.0,0.0,,,,,,,,,,,,,,,,,,,,,,,,,,,,,,,,,,,,,,,,,,,,,,,,,,,,,,,,,,,,,,,,,,,,,,,,,
4.6,tail,22.77,9.64,0.12,-0.0,-0.04,,0.0,0.0,0.24,1.58,-34.28,77.96,-19.86,-45.26,73.21,-34.54,-5.54,113.55,5.1,-2.64,89.74,11.6,20.48,102.3,17.49,-16.35,106.26,,,,,,,,,,,,,,,,,,,,,,,,,,,,,,,,,,,,,0.0,0.0,0.0,0.0,0.0,0.0,0.0,0.0,0.0,0.0,0.0,0.0,0.0,0.0,0.0,0.0,0.0,0.0,,,,,,,,,,,,,,,,,,,,,,,,,,,,,,,,,,,,,,,,,,,,,,,,,,,,,,,,,,,,,,,,,,,,,,,,,
4.7,tail,22.79,9.64,0.01,-0.0,-0.11,,0.0,0.0,0.24,1.58,-34.28,77.96,-19.86,-45.26,73.21,-34.54,-5.54,113.55,5.1,-2.64,89.74,11.6,20.48,102.3,17.49,-16.35,106.26,,,,,,,,,,,,,,,,,,,,,,,,,,,,,,,,,,,,,0.0,0.0,0.0,0.0,0.0,0.0,0.0,0.0,0.0,0.0,0.0,0.0,0.0,0.0,0.0,0.0,0.0,0.0,,,,,,,,,,,,,,,,,,,,,,,,,,,,,,,,,,,,,,,,,,,,,,,,,,,,,,,,,,,,,,,,,,,,,,,,,
4.8,tail,22.82,9.64,-0.01,-0.0,-0.04,,0.0,0.0,0.24,1.58,-34.28,77.96,-19.86,-45.26,73.21,-34.54,-5.54,113.55,5.1,-2.64,89.74,11.6,20.48,102.3,17.49,-16.35,106.26,,,,,,,,,,,,,,,,,,,,,,,,,,,,,,,,,,,,,0.0,0.0,0.0,0.0,0.0,0.0,0.0,0.0,0.0,0.0,0.0,0.0,0.0,0.0,0.0,0.0,0.0,0.0,,,,,,,,,,,,,,,,,,,,,,,,,,,,,,,,,,,,,,,,,,,,,,,,,,,,,,,,,,,,,,,,,,,,,,,,,
