t_s,phase,roll_deg,pitch_deg,gyro_x_dps,gyro_y_dps,gyro_z_dps,height_ref_mm,vx_ref_mps,vy_ref_mps,max_cur_a,q0_deg,q1_deg,q2_deg,q3_deg,q4_deg,q5_deg,q6_deg,q7_deg,q8_deg,q9_deg,q10_deg,q11_deg,q12_deg,q13_deg,q14_deg,q15_deg,q16_deg,q17_deg,cmd0_deg,cmd1_deg,cmd2_deg,cmd3_deg,cmd4_deg,cmd5_deg,cmd6_deg,cmd7_deg,cmd8_deg,cmd9_deg,cmd10_deg,cmd11_deg,cmd12_deg,cmd13_deg,cmd14_deg,cmd15_deg,cmd16_deg,cmd17_deg,act0,act1,act2,act3,act4,act5,act6,act7,act8,act9,act10,act11,act12,act13,act14,act15,act16,act17,cur0_a,cur1_a,cur2_a,cur3_a,cur4_a,cur5_a,cur6_a,cur7_a,cur8_a,cur9_a,cur10_a,cur11_a,cur12_a,cur13_a,cur14_a,cur15_a,cur16_a,cur17_a,obs0,obs1,obs2,obs3,obs4,obs5,obs6,obs7,obs8,obs9,obs10,obs11,obs12,obs13,obs14,obs15,obs16,obs17,obs18,obs19,obs20,obs21,obs22,obs23,obs24,obs25,obs26,obs27,obs28,obs29,obs30,obs31,obs32,obs33,obs34,obs35,obs36,obs37,obs38,obs39,obs40,obs41,obs42,obs43,obs44,obs45,obs46,obs47,obs48,obs49,obs50,obs51,obs52,obs53,obs54,obs55,obs56,obs57,obs58,obs59,obs60,obs61,obs62,obs63,obs64,obs65,obs66,obs67,obs68,obs69,obs70,obs71,rot60_k
0.0,run,-1.34,2.5,-0.25,0.05,0.36,0.0,0.0,0.0,0.019,0.09,19.78,69.7,0.09,20.48,69.17,0.09,20.74,70.58,0.09,19.95,68.99,0.0,20.48,68.82,-0.09,20.39,68.99,-1.41,18.54,68.2,-1.41,18.98,70.58,1.59,19.24,71.9,1.59,18.71,70.49,-1.5,19.15,67.41,-1.59,18.89,70.49,-0.9406,-1.0,-0.4786,-1.0,-1.0,1.0,1.0,-1.0,1.0,1.0,-1.0,1.0,-0.1073,-1.0,-0.4695,-1.0,-1.0,1.0,0.013,0.0,0.006,0.006,0.006,0.006,0.006,0.019,0.0,0.013,0.0,0.006,0.013,0.0,0.006,0.013,0.0,0.006,0.0,-0.0046,0.0,0.0,0.0,0.0015,0.0,0.0,0.0031,0.0,-0.0046,0.0,0.0,-0.0031,-0.0015,0.0,0.0,0.0,0.0,0.0,0.0,0.0,0.0,0.0,0.0,0.0,0.0,0.0,0.0,0.0,0.0,0.0,0.0,0.0,0.0,0.0,0.0,0.0,-0.002,-0.0002,0.007,0.0,0.0,0.0,0.0,0.0,0.0,0.0,0.0,0.0,0.0,0.0,0.0,0.0,0.0,0.0,0.0,0.0,0.0,0.0,0.0,0.0,0.0,0.0,0.0,0.0,0.0,0.0,0.0,0.0,0.0,0.0,0
0.04,run,-1.4,2.52,-0.76,0.13,0.41,0.0,0.0,0.0,0.019,-0.18,19.51,69.7,0.09,20.3,69.17,0.09,20.3,70.75,0.35,19.6,69.26,-0.18,20.13,68.73,-0.35,20.04,68.99,-2.91,20.04,69.7,-2.91,17.48,72.08,0.09,17.74,70.4,3.09,17.21,71.99,-3.0,17.65,68.91,-3.09,17.39,71.99,-1.0,1.0,1.0,-1.0,-1.0,1.0,-1.0,-1.0,-1.0,1.0,-1.0,1.0,-1.0,0.2447,1.0,-1.0,-1.0,1.0,0.013,0.0,0.006,0.006,0.006,0.006,0.006,0.019,0.0,0.013,0.0,0.006,0.013,0.0,0.006,0.013,0.0,0.006,0.0,-0.0046,0.0,0.0,0.0,0.0015,0.0,0.0,0.0031,0.0,-0.0046,0.0,0.0,-0.0031,-0.0015,0.0,0.0,0.0,0.0,0.0,0.0,0.0,0.0,0.0,0.0,0.0,0.0,0.0,0.0,0.0,0.0,0.0,0.0,0.0,0.0,0.0,-0.002,0.0001,-0.0044,0.0009,0.0063,-0.9406,-1.0,-0.4786,-1.0,-1.0,1.0,1.0,-1.0,1.0,1.0,-1.0,1.0,-0.1073,-1.0,-0.4695,-1.0,-1.0,1.0,0.0,0.0,0.0,0.0,0.0,0.0,0.0,0.0,0.0,0.0,0.0,0.0,0.0,0
0.08,run,-1.66,2.7,-3.66,3.0,-0.95,0.0,0.0,0.0,0.019,-0.97,18.98,69.43,-0.44,19.69,70.14,0.35,19.6,71.19,0.97,19.07,69.87,-1.05,19.42,68.03,-1.23,19.6,69.52,-1.41,18.54,71.2,-4.41,15.98,73.58,-1.41,19.24,71.9,4.59,15.71,73.49,-4.5,19.15,70.41,-4.59,15.89,73.49,0.2571,0.7582,0.3404,-1.0,-1.0,1.0,-1.0,1.0,1.0,1.0,-1.0,1.0,-1.0,1.0,1.0,-1.0,-1.0,1.0,0.013,0.0,0.006,0.006,0.006,0.006,0.006,0.019,0.0,0.013,0.0,0.006,0.013,0.0,0.006,0.013,0.0,0.006,-0.0046,-0.0092,0.0,0.0,-0.0031,0.0015,0.0,-0.0077,0.0061,0.0046,-0.0107,0.0046,-0.0031,-0.0092,-0.0031,-0.0046,-0.0061,0.0,-0.0173,-0.0173,0.0,0.0,-0.0115,0.0,0.0,-0.0288,0.0115,0.0173,-0.0231,0.0173,-0.0115,-0.0231,-0.0058,-0.0173,-0.0231,0.0,-0.0074,0.002,-0.0133,0.0023,0.0071,-1.0,1.0,1.0,-1.0,-1.0,1.0,-1.0,-1.0,-1.0,1.0,-1.0,1.0,-1.0,0.2447,1.0,-1.0,-1.0,1.0,0.0,0.0,0.0,0.0,0.0,0.0,0.0,0.0,0.0,0.0,0.0,0.0,0.0,0
0.12,run,-1.76,2.77,-1.17,0.67,-3.66,0.0,0.0,0.0,0.026,-1.67,18.54,69.26,-1.41,18.81,71.02,0.88,18.9,71.63,2.02,18.28,70.84,-1.93,18.81,67.85,-2.02,18.72,70.31,-2.91,20.04,72.7,-5.91,14.48,75.08,-2.91,20.74,73.4,6.09,14.21,74.99,-3.0,17.65,68.91,-6.09,14.39,74.99,-1.0,1.0,0.2207,-1.0,-1.0,1.0,-1.0,0.9892,1.0,1.0,-1.0,1.0,0.4913,0.0785,-1.0,-1.0,-1.0,1.0,0.006,0.006,0.006,0.026,0.013,0.026,0.0,0.0,0.0,0.026,0.006,0.019,0.019,0.0,0.0,0.019,0.013,0.026,-0.0184,-0.0184,-0.0046,-0.0092,-0.0138,0.0184,0.0046,-0.0199,0.0138,0.0153,-0.0199,0.0153,-0.0184,-0.0215,-0.0153,-0.0199,-0.0138,0.0092,-0.0638,-0.0466,-0.0172,-0.0345,-0.0483,0.0632,0.0172,-0.0661,0.0368,0.0523,-0.0506,0.0523,-0.0655,-0.0621,-0.05,-0.0695,-0.0449,0.0345,-0.0298,0.0175,-0.0638,0.0524,-0.0166,0.2571,0.7582,0.3404,-1.0,-1.0,1.0,-1.0,1.0,1.0,1.0,-1.0,1.0,-1.0,1.0,1.0,-1.0,-1.0,1.0,0.0,0.0,0.0,0.0,0.0,0.0,0.0,0.0,0.0,0.0,0.0,0.0,0.0,0
0.16,run,-1.93,2.58,-4.03,-5.48,-3.09,0.0,0.0,0.0,0.026,-2.2,18.28,69.26,-2.46,17.75,72.25,0.88,18.54,72.07,3.08,17.05,72.07,-2.9,18.11,68.12,-3.34,17.58,71.28,-4.41,21.54,74.2,-7.41,12.98,76.58,-4.41,19.24,71.9,7.59,12.71,76.49,-4.5,19.15,70.41,-7.59,12.89,76.49,-1.0,1.0,0.1096,-1.0,-0.5793,1.0,-0.6458,0.0153,-0.0227,1.0,-1.0,1.0,-0.3264,0.8451,1.0,-1.0,-1.0,1.0,0.006,0.006,0.006,0.026,0.013,0.026,0.0,0.0,0.0,0.026,0.006,0.019,0.019,0.0,0.0,0.019,0.013,0.026,-0.0307,-0.0261,-0.0077,-0.0261,-0.0291,0.0337,0.0138,-0.0322,0.0215,0.0337,-0.0337,0.0322,-0.0337,-0.0322,-0.0184,-0.0337,-0.0291,0.023,-0.091,-0.0616,-0.0236,-0.0878,-0.0917,0.1022,0.0468,-0.0926,0.0547,0.1061,-0.0876,0.1003,-0.1038,-0.084,-0.0466,-0.1008,-0.0893,0.0763,-0.0383,0.0239,-0.0204,0.0117,-0.0639,-1.0,1.0,0.2207,-1.0,-1.0,1.0,-1.0,0.9892,1.0,1.0,-1.0,1.0,0.4913,0.0785,-1.0,-1.0,-1.0,1.0,0.0,0.0,0.0,0.0,0.0,0.0,0.0,0.0,0.0,0.0,0.0,0.0,0.0,0
0.2,run,-1.91,2.33,-0.56,-6.65,0.74,0.0,0.0,0.0,0.026,-2.99,18.28,69.52,-3.69,16.61,73.48,0.88,18.72,72.69,4.39,15.82,73.3,-3.52,17.75,68.64,-4.57,16.44,72.6,-5.91,20.04,75.7,-8.91,11.48,78.08,-5.91,20.74,73.4,9.09,11.21,77.99,-3.57,17.65,71.91,-9.09,11.39,77.99,-1.0,0.7306,1.0,-1.0,-1.0,1.0,-1.0,1.0,1.0,1.0,-1.0,1.0,-0.1021,-0.0658,0.5953,-1.0,-1.0,1.0,0.006,0.006,0.006,0.026,0.013,0.026,0.0,0.0,0.0,0.026,0.006,0.019,0.019,0.0,0.0,0.019,0.013,0.026,-0.0399,-0.0307,-0.0077,-0.0445,-0.0476,0.0552,0.0138,-0.0383,0.0291,0.0522,-0.0552,0.0537,-0.0506,-0.0445,-0.0138,-0.0568,-0.0491,0.0399,-0.0982,-0.0603,-0.0166,-0.1305,-0.1332,0.152,0.0328,-0.0878,0.067,0.1433,-0.1418,0.1507,-0.1359,-0.1048,-0.0154,-0.1568,-0.1373,0.1166,-0.0534,0.0072,-0.0703,-0.0956,-0.0539,-1.0,1.0,0.1096,-1.0,-0.5793,1.0,-0.6458,0.0153,-0.0227,1.0,-1.0,1.0,-0.3264,0.8451,1.0,-1.0,-1.0,1.0,0.0,0.0,0.0,0.0,0.0,0.0,0.0,0.0,0.0,0.0,0.0,0.0,0.0,0
0.24,run,-1.53,1.67,2.66,-4.45,-3.15,0.0,0.0,0.0,0.084,-6.5,18.37,73.12,-8.44,12.13,78.13,-3.6,19.69,74.62,8.79,11.16,77.87,-4.75,17.93,70.93,-9.23,12.04,77.34,-7.41,18.54,74.64,-10.41,9.98,79.58,-7.41,19.24,74.9,10.59,9.71,79.49,-5.07,19.15,70.41,-10.59,9.89,79.49,-1.0,-0.2005,0.1135,-1.0,-0.7734,1.0,-1.0,0.6879,1.0,1.0,-1.0,1.0,-0.5246,0.9286,-0.3499,-1.0,-1.0,1.0,0.006,0.0,0.006,0.006,0.013,0.006,0.013,0.0,0.0,0.019,0.0,0.006,0.019,0.084,0.026,0.006,0.006,0.006,-0.0537,-0.0307,-0.0031,-0.066,-0.0675,0.0767,0.0138,-0.0353,0.0399,0.0752,-0.0767,0.0752,-0.0614,-0.0506,-0.0046,-0.0782,-0.069,0.0629,-0.1203,-0.0422,0.0056,-0.1715,-0.1677,0.1866,0.0229,-0.05,0.087,0.1862,-0.1794,0.1857,-0.1352,-0.0963,0.0236,-0.1899,-0.1705,0.1675,-0.052,-0.014,-0.0098,-0.1161,0.013,-1.0,0.7306,1.0,-1.0,-1.0,1.0,-1.0,1.0,1.0,1.0,-1.0,1.0,-0.1021,-0.0658,0.5953,-1.0,-1.0,1.0,0.0,0.0,0.0,0.0,0.0,0.0,0.0,0.0,0.0,0.0,0.0,0.0,0.0,0
0.28,run,-1.55,1.46,-0.42,-6.04,0.86,0.0,0.0,0.0,0.084,-7.12,18.28,73.65,-9.14,11.43,78.75,-4.57,19.42,74.71,9.32,10.46,78.49,-4.75,18.02,71.02,-9.84,11.34,78.13,-8.91,17.04,76.14,-11.91,8.48,81.08,-8.91,17.74,76.4,12.09,8.21,80.99,-6.57,17.65,71.91,-12.09,8.39,80.99,-1.0,-0.4052,0.5381,-1.0,-1.0,1.0,-1.0,0.395,0.6281,1.0,-1.0,1.0,-1.0,0.5952,0.0964,-1.0,-1.0,1.0,0.006,0.0,0.006,0.006,0.013,0.006,0.013,0.0,0.0,0.019,0.0,0.006,0.019,0.084,0.026,0.006,0.006,0.006,-0.115,-0.0291,0.0598,-0.1488,-0.1457,0.158,-0.0644,-0.0184,0.0736,0.1519,-0.158,0.1549,-0.0828,-0.0476,0.0353,-0.1595,-0.1457,0.1457,-0.1479,-0.028,0.0692,-0.206,-0.1986,0.215,-0.0652,-0.0175,0.0959,0.2099,-0.21,0.2128,-0.1169,-0.0642,0.0579,-0.2173,-0.199,0.2033,-0.0183,-0.0719,0.0465,-0.0777,-0.055,-1.0,-0.2005,0.1135,-1.0,-0.7734,1.0,-1.0,0.6879,1.0,1.0,-1.0,1.0,-0.5246,0.9286,-0.3499,-1.0,-1.0,1.0,0.0,0.0,0.0,0.0,0.0,0.0,0.0,0.0,0.0,0.0,0.0,0.0,0.0,0
0.32,run,-1.49,1.27,1.53,-3.88,-0.11,0.0,0.0,0.0,0.084,-7.29,18.02,74.18,-9.84,10.72,79.37,-5.71,18.98,74.97,10.02,9.84,79.1,-4.75,18.02,71.02,-10.37,10.63,78.84,-10.41,15.54,77.64,-13.41,6.98,82.58,-10.41,19.24,77.9,13.59,6.71,82.49,-8.07,16.15,73.41,-13.59,6.89,82.49,-1.0,-1.0,0.3986,-1.0,-0.9841,1.0,-1.0,1.0,1.0,1.0,-1.0,1.0,-1.0,0.0861,0.5194,-1.0,-1.0,1.0,0.006,0.0,0.006,0.006,0.013,0.006,0.013,0.0,0.0,0.019,0.0,0.006,0.019,0.084,0.026,0.006,0.006,0.006,-0.1258,-0.0307,0.069,-0.1611,-0.158,0.1687,-0.0813,-0.023,0.0752,0.1611,-0.1703,0.1657,-0.0828,-0.046,0.0368,-0.1703,-0.158,0.1595,-0.1538,-0.0268,0.0915,-0.2016,-0.1964,0.2007,-0.1246,-0.0338,0.0743,0.19,-0.2044,0.1992,-0.0819,-0.0378,0.0477,-0.2024,-0.1967,0.2069,-0.0203,-0.0902,-0.0073,-0.1054,0.015,-1.0,-0.4052,0.5381,-1.0,-1.0,1.0,-1.0,0.395,0.6281,1.0,-1.0,1.0,-1.0,0.5952,0.0964,-1.0,-1.0,1.0,0.0,0.0,0.0,0.0,0.0,0.0,0.0,0.0,0.0,0.0,0.0,0.0,0.0,0
0.36,run,-1.45,1.27,1.74,0.39,-5.28,0.0,0.0,0.0,0.084,-8.0,17.4,74.88,-10.63,9.93,80.16,-6.86,18.9,75.5,10.81,9.14,79.8,-5.1,18.02,71.02,-11.25,9.93,79.54,-11.91,14.04,79.14,-14.91,5.48,84.08,-11.91,17.74,79.4,15.09,5.21,83.99,-9.57,14.65,74.91,-15.09,5.39,83.99,-1.0,-0.5734,0.797,-1.0,-1.0,1.0,-1.0,-0.5894,1.0,1.0,-1.0,1.0,-1.0,0.0768,0.1476,-1.0,-1.0,1.0,0.0,0.0,0.006,0.019,0.026,0.013,0.019,0.0,0.0,0.039,0.0,0.019,0.045,0.0,0.058,0.013,0.019,0.013,-0.1289,-0.0353,0.0782,-0.1733,-0.1703,0.1795,-0.1012,-0.0307,0.0798,0.1733,-0.181,0.1764,-0.0828,-0.046,0.0368,-0.1795,-0.1703,0.1718,-0.1191,-0.0359,0.0985,-0.1871,-0.1834,0.1807,-0.1618,-0.0523,0.0692,0.1789,-0.1832,0.1796,-0.0573,-0.0264,0.0334,-0.1761,-0.1836,0.1907,-0.0154,-0.1072,0.0267,-0.0677,-0.002,-1.0,-1.0,0.3986,-1.0,-0.9841,1.0,-1.0,1.0,1.0,1.0,-1.0,1.0,-1.0,0.0861,0.5194,-1.0,-1.0,1.0,0.0,0.0,0.0,0.0,0.0,0.0,0.0,0.0,0.0,0.0,0.0,0.0,0.0,0
0.4,run,-1.48,1.2,0.96,-1.71,-7.42,0.0,0.0,0.0,0.084,-9.05,16.79,75.76,-11.6,8.96,81.21,-8.17,18.81,76.2,11.78,8.09,80.95,-5.89,17.14,71.1,-12.3,8.96,80.6,-13.41,12.54,80.64,-16.41,3.98,85.58,-13.41,16.24,77.9,16.59,3.71,85.49,-11.07,13.15,76.41,-16.59,3.89,85.49,-1.0,-0.6894,0.4196,-1.0,-0.9108,1.0,-1.0,-0.3681,0.1112,1.0,-1.0,1.0,-1.0,0.3171,1.0,-1.0,-1.0,1.0,0.0,0.0,0.006,0.019,0.026,0.013,0.019,0.0,0.0,0.039,0.0,0.019,0.045,0.0,0.058,0.013,0.019,0.013,-0.1411,-0.046,0.0905,-0.1871,-0.1841,0.1933,-0.1212,-0.0322,0.089,0.1871,-0.1933,0.1887,-0.089,-0.046,0.0368,-0.1948,-0.1825,0.1841,-0.1292,-0.0652,0.1147,-0.1825,-0.1799,0.178,-0.1877,-0.0424,0.0828,0.1768,-0.1741,0.1715,-0.063,-0.0185,0.0234,-0.1805,-0.1743,0.1793,-0.0116,-0.1072,0.0304,0.0069,-0.0922,-1.0,-0.5734,0.797,-1.0,-1.0,1.0,-1.0,-0.5894,1.0,1.0,-1.0,1.0,-1.0,0.0768,0.1476,-1.0,-1.0,1.0,0.0,0.0,0.0,0.0,0.0,0.0,0.0,0.0,0.0,0.0,0.0,0.0,0.0,0
0.44,run,-1.34,1.15,3.39,-1.49,-7.7,0.0,0.0,0.0,0.084,-10.2,15.64,76.9,-12.83,7.73,82.53,-9.49,18.11,77.17,13.01,6.94,82.18,-6.86,16.17,72.07,-13.62,7.73,81.83,-14.91,11.04,82.14,-17.91,2.48,87.08,-14.91,17.74,79.4,18.09,2.21,86.99,-12.57,11.65,77.91,-18.09,2.39,86.99,-1.0,-0.3728,1.0,-1.0,-1.0,0.5887,-1.0,1.0,0.7734,1.0,-1.0,1.0,-1.0,0.3367,1.0,-1.0,-1.0,1.0,0.0,0.0,0.006,0.019,0.026,0.013,0.019,0.0,0.0,0.039,0.0,0.019,0.045,0.0,0.058,0.013,0.019,0.013,-0.1595,-0.0568,0.1058,-0.204,-0.201,0.2117,-0.1442,-0.0337,0.1012,0.204,-0.2117,0.2086,-0.1028,-0.0614,0.0383,-0.2132,-0.1994,0.2025,-0.1597,-0.0861,0.1381,-0.1913,-0.1895,0.1939,-0.218,-0.0354,0.1042,0.1873,-0.1912,0.1952,-0.0961,-0.0707,0.0221,-0.1957,-0.1856,0.1948,-0.0143,-0.1131,0.0168,-0.0298,-0.1295,-1.0,-0.6894,0.4196,-1.0,-0.9108,1.0,-1.0,-0.3681,0.1112,1.0,-1.0,1.0,-1.0,0.3171,1.0,-1.0,-1.0,1.0,0.0,0.0,0.0,0.0,0.0,0.0,0.0,0.0,0.0,0.0,0.0,0.0,0.0,0
0.48,run,-1.44,1.18,-1.54,-0.28,-16.19,0.0,0.0,0.0,0.091,-11.69,14.33,78.31,-14.24,6.33,83.94,-10.9,17.49,77.96,14.41,5.62,83.5,-8.09,14.94,73.21,-14.94,6.42,83.14,-16.41,9.54,83.64,-19.41,0.98,88.58,-16.41,16.24,80.9,19.59,0.71,88.49,-14.07,13.15,79.41,-19.59,0.89,88.49,-1.0,-0.5945,0.6649,-1.0,-1.0,1.0,-1.0,-0.5512,1.0,1.0,-1.0,1.0,-1.0,0.8569,0.3492,-1.0,-1.0,1.0,0.006,0.0,0.013,0.013,0.026,0.013,0.013,0.006,0.0,0.045,0.0,0.033,0.091,0.013,0.065,0.013,0.026,0.013,-0.1795,-0.0767,0.1258,-0.2255,-0.2224,0.2347,-0.1672,-0.046,0.1181,0.2255,-0.2316,0.2301,-0.1197,-0.0782,0.0552,-0.2362,-0.2209,0.224,-0.1861,-0.1345,0.1709,-0.2139,-0.2126,0.2214,-0.2383,-0.0705,0.1358,0.2111,-0.2081,0.2166,-0.1301,-0.1123,0.0783,-0.2227,-0.2099,0.2164,-0.0023,-0.1172,0.0592,-0.026,-0.1344,-1.0,-0.3728,1.0,-1.0,-1.0,0.5887,-1.0,1.0,0.7734,1.0,-1.0,1.0,-1.0,0.3367,1.0,-1.0,-1.0,1.0,0.0,0.0,0.0,0.0,0.0,0.0,0.0,0.0,0.0,0.0,0.0,0.0,0.0,0
0.52,run,-1.32,1.18,2.57,0.23,-20.94,0.0,0.0,0.0,0.091,-13.36,13.01,79.63,-15.91,5.01,85.34,-12.22,16.96,78.93,15.82,4.13,84.81,-9.4,13.45,74.53,-16.44,5.01,84.55,-17.91,8.04,85.14,-20.91,-0.52,90.08,-17.91,17.74,82.4,21.09,-0.79,89.99,-15.57,11.65,80.91,-21.09,-0.61,89.99,-1.0,0.2152,0.9635,-1.0,-0.3692,0.5664,-1.0,0.9201,0.9881,1.0,-1.0,1.0,-1.0,0.1293,1.0,-1.0,-1.0,1.0,0.006,0.0,0.013,0.013,0.026,0.013,0.013,0.006,0.0,0.045,0.0,0.033,0.091,0.013,0.065,0.013,0.026,0.013,-0.2056,-0.0997,0.1503,-0.25,-0.247,0.2592,-0.1917,-0.0568,0.1319,0.25,-0.2546,0.2531,-0.1411,-0.0997,0.0752,-0.2592,-0.2439,0.247,-0.2282,-0.1806,0.2118,-0.2419,-0.241,0.2472,-0.259,-0.0897,0.1469,0.2399,-0.2321,0.238,-0.1717,-0.1593,0.1297,-0.2423,-0.2333,0.2379,-0.0111,-0.1146,-0.0269,-0.0049,-0.2825,-1.0,-0.5945,0.6649,-1.0,-1.0,1.0,-1.0,-0.5512,1.0,1.0,-1.0,1.0,-1.0,0.8569,0.3492,-1.0,-1.0,1.0,0.0,0.0,0.0,0.0,0.0,0.0,0.0,0.0,0.0,0.0,0.0,0.0,0.0,0
0.56,run,-0.91,0.84,9.62,-9.41,-16.01,0.0,0.0,0.0,0.091,-14.59,11.6,80.6,-17.14,3.6,86.66,-13.62,16.35,79.98,17.14,2.81,86.22,-10.9,12.57,76.03,-17.75,3.6,85.87,-19.41,6.54,86.64,-22.41,-2.02,88.58,-19.41,16.24,83.9,22.59,-2.29,91.49,-17.07,13.15,82.41,-22.59,-2.11,91.49,-1.0,-0.1295,0.8479,-1.0,-0.5464,-0.8743,-1.0,-1.0,1.0,1.0,-0.6081,1.0,-1.0,1.0,0.9932,-1.0,-1.0,1.0,0.006,0.0,0.013,0.013,0.026,0.013,0.013,0.006,0.0,0.045,0.0,0.033,0.091,0.013,0.065,0.013,0.026,0.013,-0.2347,-0.1227,0.1733,-0.2792,-0.27,0.2838,-0.2148,-0.066,0.1488,0.2746,-0.2807,0.2761,-0.1641,-0.1258,0.0982,-0.2853,-0.2684,0.2715,-0.2698,-0.2133,0.2351,-0.2793,-0.2556,0.2657,-0.2682,-0.0975,0.1665,0.2606,-0.2609,0.2535,-0.2071,-0.21,0.1777,-0.268,-0.256,0.2592,-0.0006,-0.1144,0.0448,0.0041,-0.3654,-1.0,0.2152,0.9635,-1.0,-0.3692,0.5664,-1.0,0.9201,0.9881,1.0,-1.0,1.0,-1.0,0.1293,1.0,-1.0,-1.0,1.0,0.0,0.0,0.0,0.0,0.0,0.0,0.0,0.0,0.0,0.0,0.0,0.0,0.0,0
0.6,run,-0.81,0.93,2.71,2.74,-19.81,0.0,0.0,0.0,0.091,-15.91,10.2,82.27,-18.46,2.02,87.89,-15.12,16.26,81.21,18.63,1.41,87.71,-12.3,11.69,77.34,-19.16,2.2,87.28,-20.91,5.04,88.14,-23.91,-3.52,87.08,-20.91,17.74,85.4,24.09,-0.79,92.99,-18.57,14.65,81.76,-24.09,-3.61,92.99,-1.0,-1.0,0.8907,-1.0,-0.8547,-1.0,-1.0,1.0,1.0,1.0,1.0,1.0,-1.0,1.0,0.1971,-1.0,-1.0,0.5007,0.006,0.0,0.013,0.0,0.013,0.006,0.019,0.013,0.0,0.039,0.0,0.033,0.058,0.019,0.084,0.013,0.026,0.019,-0.2562,-0.1473,0.1902,-0.3007,-0.2945,0.3068,-0.2393,-0.0767,0.1672,0.2976,-0.3037,0.3007,-0.1902,-0.1411,0.1243,-0.3083,-0.293,0.2945,-0.269,-0.2409,0.2276,-0.2757,-0.2705,0.2718,-0.2793,-0.1083,0.1852,0.2683,-0.2685,0.269,-0.2423,-0.2042,0.2217,-0.2735,-0.2708,0.2673,0.0351,-0.1447,0.1679,-0.1642,-0.2793,-1.0,-0.1295,0.8479,-1.0,-0.5464,-0.8743,-1.0,-1.0,1.0,1.0,-0.6081,1.0,-1.0,1.0,0.9932,-1.0,-1.0,1.0,0.0,0.0,0.0,0.0,0.0,0.0,0.0,0.0,0.0,0.0,0.0,0.0,0.0,0
0.64,run,-0.46,0.89,9.85,-1.84,-16.57,0.0,0.0,0.0,0.091,-17.31,8.79,83.76,-19.95,0.7,88.86,-16.44,16.26,82.44,20.04,0.09,89.03,-13.71,11.25,78.57,-20.57,0.88,88.68,-22.41,3.54,89.64,-25.41,-5.02,88.58,-22.41,16.24,86.9,25.59,0.71,94.49,-20.07,13.15,81.83,-25.59,-5.11,91.49,-1.0,-0.299,0.7401,-1.0,-0.0981,1.0,-1.0,-0.4642,1.0,0.7903,1.0,1.0,-1.0,0.6693,0.198,-1.0,-1.0,0.0876,0.006,0.0,0.013,0.0,0.013,0.006,0.019,0.013,0.0,0.039,0.0,0.033,0.058,0.019,0.084,0.013,0.026,0.019,-0.2792,-0.1718,0.2194,-0.3237,-0.3221,0.3283,-0.2654,-0.0782,0.1887,0.3237,-0.3283,0.3267,-0.2148,-0.1565,0.1473,-0.3329,-0.3175,0.3191,-0.2744,-0.2605,0.2684,-0.2791,-0.2927,0.2707,-0.2931,-0.0816,0.2101,0.2854,-0.2798,0.286,-0.2615,-0.2004,0.2413,-0.2833,-0.2814,0.279,0.0442,-0.1361,0.0473,0.0479,-0.3457,-1.0,-1.0,0.8907,-1.0,-0.8547,-1.0,-1.0,1.0,1.0,1.0,1.0,1.0,-1.0,1.0,0.1971,-1.0,-1.0,0.5007,0.0,0.0,0.0,0.0,0.0,0.0,0.0,0.0,0.0,0.0,0.0,0.0,0.0,0
0.68,run,-0.11,0.97,10.08,1.12,-17.09,0.0,0.0,0.0,0.091,-18.63,7.38,85.17,-21.36,-1.14,89.56,-17.84,16.44,83.85,21.45,-0.88,90.44,-15.12,11.16,79.63,-21.97,-0.53,90.09,-20.91,2.04,91.14,-26.91,-6.52,87.08,-23.91,14.74,87.51,27.09,2.21,95.99,-21.57,14.65,83.33,-27.09,-6.61,89.99,1.0,-0.5164,0.5161,-1.0,-1.0,0.0053,-1.0,-1.0,0.2649,1.0,1.0,1.0,-1.0,0.7863,1.0,-1.0,-1.0,-1.0,0.006,0.0,0.013,0.0,0.013,0.006,0.019,0.013,0.0,0.039,0.0,0.033,0.058,0.019,0.084,0.013,0.026,0.019,-0.3037,-0.1963,0.2454,-0.3497,-0.3451,0.3451,-0.2884,-0.0782,0.2102,0.3482,-0.3513,0.3497,-0.2393,-0.1641,0.1687,-0.3574,-0.3405,0.3436,-0.2847,-0.275,0.2863,-0.2938,-0.2917,0.2532,-0.292,-0.0571,0.2281,0.2924,-0.2827,0.287,-0.2756,-0.1692,0.25,-0.2909,-0.2838,0.2879,0.0751,-0.1402,0.1719,-0.032,-0.2892,-1.0,-0.299,0.7401,-1.0,-0.0981,1.0,-1.0,-0.4642,1.0,0.7903,1.0,1.0,-1.0,0.6693,0.198,-1.0,-1.0,0.0876,0.0,0.0,0.0,0.0,0.0,0.0,0.0,0.0,0.0,0.0,0.0,0.0,0.0,0
0.72,run,0.47,1.05,14.35,2.78,-22.11,0.0,0.0,0.0,0.273,-20.21,5.98,86.57,-22.68,-2.29,89.91,-19.25,16.61,85.08,22.94,-1.67,91.85,-16.44,11.07,80.42,-23.38,-1.93,91.23,-19.41,0.54,89.64,-28.41,-8.02,88.58,-25.41,13.24,89.01,28.59,3.71,94.49,-23.07,16.15,84.83,-28.59,-8.11,88.49,1.0,-1.0,-0.5759,-1.0,-1.0,1.0,-1.0,-0.1171,1.0,1.0,1.0,-1.0,-1.0,1.0,1.0,-1.0,-1.0,-1.0,0.0,0.0,0.019,0.006,0.006,0.0,0.019,0.006,0.0,0.033,0.0,0.026,0.123,0.273,0.078,0.013,0.026,0.0,-0.3267,-0.2209,0.27,-0.3743,-0.3774,0.3574,-0.3129,-0.0752,0.2347,0.3728,-0.3682,0.3743,-0.2638,-0.1657,0.1871,-0.382,-0.3651,0.3682,-0.2851,-0.284,0.2919,-0.2971,-0.3243,0.223,-0.2959,-0.0285,0.2512,0.2962,-0.2608,0.2924,-0.2844,-0.1242,0.2436,-0.2952,-0.2902,0.293,0.1049,-0.1334,0.176,0.0195,-0.2983,1.0,-0.5164,0.5161,-1.0,-1.0,0.0053,-1.0,-1.0,0.2649,1.0,1.0,1.0,-1.0,0.7863,1.0,-1.0,-1.0,-1.0,0.0,0.0,0.0,0.0,0.0,0.0,0.0,0.0,0.0,0.0,0.0,0.0,0.0,0
0.76,run,1.13,0.84,17.76,-5.84,-22.39,0.0,0.0,0.0,0.273,-21.09,4.66,87.8,-23.99,-3.69,90.0,-20.65,16.26,86.31,24.26,-2.2,93.16,-17.93,11.34,81.56,-24.87,-3.25,92.29,-17.91,2.04,91.14,-29.91,-9.52,90.08,-26.91,11.74,90.51,27.09,5.21,92.99,-24.57,17.65,83.33,-27.09,-6.61,86.99,1.0,0.6102,1.0,-1.0,-1.0,1.0,-1.0,-1.0,1.0,0.3513,1.0,0.1573,-1.0,1.0,-0.5723,0.133,0.8387,-1.0,0.0,0.0,0.019,0.006,0.006,0.0,0.019,0.006,0.0,0.033,0.0,0.026,0.123,0.273,0.078,0.013,0.026,0.0,-0.3543,-0.2454,0.2945,-0.3973,-0.3973,0.3636,-0.3375,-0.0721,0.2562,0.3988,-0.382,0.3988,-0.2869,-0.1672,0.201,-0.4065,-0.3896,0.3881,-0.3032,-0.2909,0.2964,-0.2943,-0.3018,0.1791,-0.2992,-0.0085,0.2564,0.3052,-0.2344,0.2968,-0.2854,-0.0927,0.2223,-0.2987,-0.2952,0.2799,0.1561,-0.1259,0.2505,0.0486,-0.3859,1.0,-1.0,-0.5759,-1.0,-1.0,1.0,-1.0,-0.1171,1.0,1.0,1.0,-1.0,-1.0,1.0,1.0,-1.0,-1.0,-1.0,0.0,0.0,0.0,0.0,0.0,0.0,0.0,0.0,0.0,0.0,0.0,0.0,0.0,0
0.8,run,2.29,0.6,29.37,-5.51,-14.1,0.0,0.0,0.0,0.273,-21.8,3.25,88.86,-25.49,-5.1,89.47,-22.06,15.64,87.54,25.75,-2.2,94.13,-19.34,12.13,82.53,-26.19,-4.66,92.55,-16.41,0.54,89.64,-31.41,-11.02,88.58,-28.41,10.24,92.01,28.59,6.71,91.49,-26.07,19.15,81.83,-25.59,-5.11,85.49,1.0,-1.0,0.2149,-1.0,-1.0,-0.0813,-1.0,0.5243,1.0,1.0,1.0,-0.896,-1.0,1.0,-1.0,0.7051,0.9218,-1.0,0.0,0.0,0.019,0.006,0.006,0.0,0.019,0.006,0.0,0.033,0.0,0.026,0.123,0.273,0.078,0.013,0.026,0.0,-0.3697,-0.2684,0.316,-0.4203,-0.4218,0.3651,-0.362,-0.0782,0.2777,0.4218,-0.3912,0.4218,-0.3129,-0.1626,0.2209,-0.4326,-0.4126,0.4065,-0.27,-0.2903,0.2884,-0.2927,-0.3037,0.1311,-0.3019,-0.029,0.2604,0.3003,-0.1987,0.2944,-0.298,-0.0475,0.2307,-0.3073,-0.2933,0.2653,0.2135,-0.1441,0.31,-0.102,-0.3907,1.0,0.6102,1.0,-1.0,-1.0,1.0,-1.0,-1.0,1.0,0.3513,1.0,0.1573,-1.0,1.0,-0.5723,0.133,0.8387,-1.0,0.0,0.0,0.0,0.0,0.0,0.0,0.0,0.0,0.0,0.0,0.0,0.0,0.0,0
0.84,run,3.45,0.04,30.34,-12.8,-10.15,0.0,0.0,0.0,0.338,-21.97,2.11,89.65,-26.89,-6.68,88.95,-23.47,14.59,88.95,26.81,-2.2,94.83,-20.65,13.36,83.23,-27.16,-5.8,92.72,-14.91,-0.96,91.14,-32.91,-12.52,90.08,-29.91,8.74,93.51,27.09,8.21,92.99,-27.57,20.65,80.33,-24.09,-3.61,83.99,1.0,-1.0,0.7612,-1.0,-1.0,1.0,-1.0,-0.4778,1.0,-0.2572,1.0,0.4963,-1.0,1.0,-1.0,1.0,1.0,-1.0,0.006,0.0,0.019,0.006,0.0,0.006,0.019,0.0,0.0,0.013,0.039,0.019,0.097,0.338,0.097,0.013,0.019,0.006,-0.382,-0.293,0.3344,-0.4464,-0.4464,0.3559,-0.3866,-0.089,0.2991,0.4479,-0.3912,0.4387,-0.3375,-0.1488,0.2378,-0.4556,-0.4372,0.4111,-0.2348,-0.2949,0.2706,-0.3023,-0.3043,0.0574,-0.303,-0.0604,0.2625,0.3076,-0.1391,0.2691,-0.3003,0.0183,0.2246,-0.3011,-0.297,0.2029,0.315,-0.1657,0.5126,-0.0963,-0.2462,1.0,-1.0,0.2149,-1.0,-1.0,-0.0813,-1.0,0.5243,1.0,1.0,1.0,-0.896,-1.0,1.0,-1.0,0.7051,0.9218,-1.0,0.0,0.0,0.0,0.0,0.0,0.0,0.0,0.0,0.0,0.0,0.0,0.0,0.0,0
0.88,run,4.76,-0.5,32.57,-12.48,-5.62,0.0,0.0,0.0,0.338,-22.06,1.23,90.26,-28.3,-8.17,88.68,-24.87,13.36,90.35,27.6,-1.85,95.19,-22.15,14.59,83.5,-27.95,-6.68,92.64,-13.41,-2.46,92.64,-34.41,-14.02,91.58,-31.41,10.24,95.01,25.59,9.71,94.49,-29.07,22.15,78.83,-22.59,-2.11,82.49,1.0,-1.0,1.0,-1.0,-1.0,1.0,-1.0,0.867,1.0,0.0756,1.0,0.6221,-1.0,1.0,-1.0,1.0,1.0,-1.0,0.006,0.0,0.019,0.006,0.0,0.006,0.019,0.0,0.0,0.013,0.039,0.019,0.097,0.338,0.097,0.013,0.019,0.006,-0.385,-0.3129,0.3482,-0.4709,-0.474,0.3467,-0.4111,-0.1074,0.3237,0.4663,-0.3912,0.451,-0.3605,-0.1273,0.25,-0.4725,-0.4571,0.4142,-0.176,-0.2819,0.2417,-0.3045,-0.3175,0.0054,-0.305,-0.1119,0.2766,0.285,-0.0974,0.2348,-0.2973,0.0941,0.2036,-0.2746,-0.2834,0.1536,0.4155,-0.2138,0.5296,-0.2234,-0.1772,1.0,-1.0,0.7612,-1.0,-1.0,1.0,-1.0,-0.4778,1.0,-0.2572,1.0,0.4963,-1.0,1.0,-1.0,1.0,1.0,-1.0,0.0,0.0,0.0,0.0,0.0,0.0,0.0,0.0,0.0,0.0,0.0,0.0,0.0,0
0.92,run,6.25,-1.0,37.62,-11.28,-4.01,0.0,0.0,0.0,0.338,-21.8,0.18,90.62,-29.62,-9.67,88.68,-26.19,11.95,91.76,28.21,-0.97,95.19,-23.64,15.91,83.5,-28.39,-7.21,91.93,-11.91,-3.96,94.14,-35.0,-15.52,93.08,-32.91,8.74,96.51,24.09,11.21,95.99,-30.57,23.65,77.33,-21.09,-0.61,80.99,0.9782,-1.0,1.0,-1.0,-1.0,1.0,-1.0,0.2912,1.0,0.3911,1.0,0.5488,-1.0,1.0,-1.0,1.0,1.0,-1.0,0.006,0.0,0.019,0.006,0.0,0.006,0.019,0.0,0.0,0.013,0.039,0.019,0.097,0.338,0.097,0.013,0.019,0.006,-0.3866,-0.3283,0.359,-0.4955,-0.5001,0.3421,-0.4357,-0.1289,0.3482,0.4801,-0.385,0.4571,-0.3866,-0.1058,0.2546,-0.4863,-0.4725,0.4126,-0.1289,-0.2546,0.2093,-0.3048,-0.3196,-0.0134,-0.3051,-0.1586,0.2853,0.251,-0.0452,0.1873,-0.3055,0.146,0.1597,-0.2438,-0.2556,0.1018,0.5301,-0.261,0.5685,-0.2178,-0.0981,1.0,-1.0,1.0,-1.0,-1.0,1.0,-1.0,0.867,1.0,0.0756,1.0,0.6221,-1.0,1.0,-1.0,1.0,1.0,-1.0,0.0,0.0,0.0,0.0,0.0,0.0,0.0,0.0,0.0,0.0,0.0,0.0,0.0,0
0.96,run,9.35,-1.9,72.7,-22.64,-11.72,0.0,0.0,0.0,0.338,-21.09,-1.05,91.14,-31.03,-11.25,89.21,-27.69,10.99,93.08,28.39,0.18,95.19,-24.96,17.4,83.5,-28.48,-7.38,90.97,-10.41,-5.46,95.64,-35.0,-17.02,91.58,-34.41,7.24,98.01,22.59,12.71,97.49,-32.07,25.15,75.83,-19.59,0.89,79.49,1.0,-1.0,1.0,-1.0,-1.0,0.2709,-1.0,0.0755,1.0,0.0769,1.0,0.5735,-1.0,1.0,-1.0,1.0,1.0,-1.0,0.026,0.0,0.019,0.019,0.0,0.026,0.006,0.019,0.0,0.006,0.065,0.026,0.045,0.227,0.0,0.006,0.006,0.026,-0.382,-0.3467,0.3651,-0.5185,-0.5262,0.3421,-0.4587,-0.1534,0.3728,0.4909,-0.3697,0.4571,-0.4126,-0.0828,0.2546,-0.4939,-0.4817,0.4004,-0.0731,-0.2469,0.1694,-0.2992,-0.321,-0.0094,-0.2995,-0.2026,0.2913,0.2158,0.0256,0.1311,-0.3111,0.1881,0.1118,-0.1993,-0.2133,0.0255,0.6601,-0.3047,0.6566,-0.1968,-0.07,0.9782,-1.0,1.0,-1.0,-1.0,1.0,-1.0,0.2912,1.0,0.3911,1.0,0.5488,-1.0,1.0,-1.0,1.0,1.0,-1.0,0.0,0.0,0.0,0.0,0.0,0.0,0.0,0.0,0.0,0.0,0.0,0.0,0.0,0
1.0,run,12.49,-3.65,79.41,-45.27,-3.93,0.0,0.0,0.0,0.338,-20.04,-2.37,91.93,-32.08,-12.92,89.74,-29.27,9.67,94.39,28.21,1.49,95.54,-26.54,19.16,82.62,-27.86,-7.38,89.74,-8.91,-6.96,97.14,-35.0,-18.52,90.08,-35.0,5.74,99.51,21.09,14.21,98.99,-33.57,26.65,74.33,-18.09,2.39,77.99,1.0,-1.0,1.0,-1.0,-1.0,-1.0,-1.0,-0.5647,1.0,-0.6032,1.0,1.0,-1.0,1.0,-0.5406,1.0,1.0,-1.0,0.026,0.0,0.019,0.019,0.0,0.026,0.006,0.019,0.0,0.006,0.065,0.026,0.045,0.227,0.0,0.006,0.006,0.026,-0.3697,-0.3682,0.3743,-0.543,-0.5538,0.3513,-0.4847,-0.1703,0.3958,0.4939,-0.3497,0.4571,-0.4357,-0.0568,0.2546,-0.4955,-0.4847,0.3835,-0.0052,-0.2533,0.1531,-0.3014,-0.3282,0.0279,-0.3073,-0.205,0.2901,0.1626,0.0926,0.0918,-0.304,0.2294,0.0783,-0.1452,-0.1608,-0.0454,0.9304,-0.3838,1.2688,-0.3952,-0.2046,1.0,-1.0,1.0,-1.0,-1.0,0.2709,-1.0,0.0755,1.0,0.0769,1.0,0.5735,-1.0,1.0,-1.0,1.0,1.0,-1.0,0.0,0.0,0.0,0.0,0.0,0.0,0.0,0.0,0.0,0.0,0.0,0.0,0.0,0
1.04,run,12.67,-3.67,-1.95,7.81,1.05,0.0,0.002,0.0,0.338,-18.72,-3.69,92.99,-33.57,-14.59,90.18,-30.5,9.23,95.71,27.25,2.64,96.15,-28.04,20.92,81.56,-27.16,-7.12,88.07,-7.41,-8.46,98.64,-35.0,-20.02,88.58,-35.0,7.24,101.01,19.59,15.71,100.49,-35.0,28.15,75.83,-16.59,3.89,76.49,1.0,-1.0,1.0,-1.0,-1.0,-1.0,-1.0,1.0,0.9256,-0.5479,1.0,1.0,-1.0,1.0,0.9215,1.0,1.0,-1.0,0.026,0.0,0.019,0.019,0.0,0.026,0.006,0.019,0.0,0.006,0.065,0.026,0.045,0.227,0.0,0.006,0.006,0.026,-0.3513,-0.3912,0.3881,-0.5614,-0.5829,0.3605,-0.5123,-0.1933,0.4188,0.4909,-0.3267,0.4633,-0.4633,-0.0261,0.2393,-0.4847,-0.4847,0.362,0.0658,-0.2641,0.1592,-0.2804,-0.3397,0.0543,-0.3193,-0.2303,0.2899,0.1022,0.1516,0.0874,-0.317,0.2763,-0.0031,-0.0611,-0.1126,-0.1128,1.2044,-0.5359,1.3859,-0.7901,-0.0686,1.0,-1.0,1.0,-1.0,-1.0,-1.0,-1.0,-0.5647,1.0,-0.6032,1.0,1.0,-1.0,1.0,-0.5406,1.0,1.0,-1.0,0.0,0.0,0.0,0.0,0.0,0.0,0.0,0.0,0.0,0.0133,0.0,0.0133,0.0,0
1.08,run,13.64,-4.71,20.35,-17.85,-8.94,0.0,0.004,0.0,0.338,-17.31,-4.92,94.31,-34.37,-15.91,90.26,-31.9,8.17,97.12,26.46,3.96,96.94,-29.36,22.32,80.33,-26.02,-6.24,87.19,-5.91,-9.96,100.14,-35.0,-21.52,90.08,-35.0,5.74,102.51,18.09,17.21,98.99,-35.0,29.65,74.33,-15.09,5.39,74.99,1.0,-1.0,1.0,-1.0,-1.0,1.0,-1.0,-0.0411,1.0,-1.0,1.0,-1.0,-1.0,1.0,-1.0,1.0,1.0,-1.0,0.013,0.006,0.026,0.006,0.0,0.078,0.026,0.091,0.0,0.026,0.111,0.084,0.065,0.182,0.0,0.006,0.026,0.026,-0.3283,-0.4142,0.4065,-0.5875,-0.6121,0.3682,-0.5338,-0.201,0.4418,0.474,-0.3068,0.474,-0.4893,0.0046,0.2209,-0.4725,-0.4801,0.3329,0.1319,-0.2707,0.1801,-0.2936,-0.3465,0.0666,-0.3036,-0.1899,0.2888,0.0086,0.1806,0.1012,-0.3192,0.3079,-0.0709,0.003,-0.0616,-0.1877,1.2204,-0.538,-0.034,0.1362,0.0183,1.0,-1.0,1.0,-1.0,-1.0,-1.0,-1.0,1.0,0.9256,-0.5479,1.0,1.0,-1.0,1.0,0.9215,1.0,1.0,-1.0,0.0,0.0,0.0,0.0,0.0,0.0,0.0,0.0,0.0,0.0267,0.0,0.0267,0.0,0
1.12,run,14.24,-5.24,16.2,-12.34,-11.01,0.0,0.006,0.0,0.338,-15.73,-6.24,95.71,-34.8,-17.23,90.26,-32.87,7.29,98.44,25.22,5.27,97.65,-31.03,23.82,78.84,-24.7,-5.01,85.52,-4.41,-11.46,101.64,-35.0,-23.02,88.58,-35.0,7.24,104.01,16.59,18.71,97.49,-35.0,30.0,72.83,-13.59,6.89,73.49,1.0,-1.0,1.0,-1.0,-1.0,-0.6584,-1.0,1.0,1.0,-1.0,1.0,-1.0,-1.0,1.0,-1.0,1.0,1.0,-1.0,0.013,0.006,0.026,0.006,0.0,0.078,0.026,0.091,0.0,0.026,0.111,0.084,0.065,0.182,0.0,0.006,0.026,0.026,-0.3037,-0.4357,0.4295,-0.6013,-0.6351,0.3697,-0.5584,-0.2194,0.4663,0.4602,-0.2838,0.4878,-0.5123,0.0291,0.1994,-0.4525,-0.4648,0.3175,0.1844,-0.27,0.2123,-0.2573,-0.3288,0.0524,-0.3045,-0.2019,0.2941,-0.0457,0.2126,0.1226,-0.3097,0.3075,-0.1301,0.0768,0.0144,-0.1889,1.3051,-0.6283,0.3552,-0.3116,-0.156,1.0,-1.0,1.0,-1.0,-1.0,1.0,-1.0,-0.0411,1.0,-1.0,1.0,-1.0,-1.0,1.0,-1.0,1.0,1.0,-1.0,0.0,0.0,0.0,0.0,0.0,0.0,0.0,0.0,0.0,0.04,0.0,0.04,0.0,0
1.16,run,14.88,-4.71,13.46,15.15,-8.12,0.0,0.008,0.0,0.338,-14.24,-7.56,97.12,-34.89,-18.54,90.26,-33.75,6.68,99.76,23.82,6.5,98.26,-32.34,25.4,77.34,-23.55,-4.04,84.11,-2.91,-12.96,103.14,-35.0,-24.52,87.08,-35.0,8.74,105.51,15.09,20.21,95.99,-35.0,30.0,71.33,-12.09,8.39,71.99,1.0,-1.0,1.0,-1.0,-1.0,0.2162,-1.0,1.0,1.0,-1.0,1.0,-1.0,-1.0,1.0,-1.0,1.0,1.0,-1.0,0.013,0.006,0.026,0.006,0.0,0.078,0.026,0.091,0.0,0.026,0.111,0.084,0.065,0.182,0.0,0.006,0.026,0.026,-0.2761,-0.4587,0.4541,-0.609,-0.6581,0.3697,-0.5752,-0.2347,0.4893,0.4387,-0.2608,0.5001,-0.5415,0.0552,0.1733,-0.4295,-0.4433,0.2884,0.233,-0.2756,0.241,-0.209,-0.3168,0.0367,-0.2767,-0.1991,0.2925,-0.1129,0.2355,0.132,-0.3265,0.3134,-0.1892,0.1404,0.0909,-0.2419,1.3575,-0.6748,0.2827,-0.2154,-0.1922,1.0,-1.0,1.0,-1.0,-1.0,-0.6584,-1.0,1.0,1.0,-1.0,1.0,-1.0,-1.0,1.0,-1.0,1.0,1.0,-1.0,0.0,0.0,0.0,0.0,0.0,0.0,0.0,0.0,0.0,0.0533,0.0,0.0533,0.0,0
1.2,run,15.29,-4.07,8.98,15.71,-9.64,0.0,0.01,0.0,0.338,-13.01,-8.96,98.61,-34.89,-19.86,89.82,-34.28,6.42,101.07,22.5,7.82,98.7,-33.31,26.63,76.03,-21.71,-2.02,82.71,-1.41,-14.46,104.64,-35.0,-26.02,88.58,-35.0,7.24,107.01,13.59,21.71,94.49,-35.0,30.0,69.83,-10.59,9.89,70.49,1.0,-1.0,1.0,-1.0,-1.0,1.0,-1.0,-1.0,1.0,-1.0,1.0,-1.0,-1.0,1.0,-1.0,1.0,1.0,-1.0,0.033,0.0,0.019,0.0,0.0,0.0,0.006,0.006,0.0,0.045,0.163,0.071,0.019,0.156,0.0,0.006,0.013,0.019,-0.25,-0.4817,0.4786,-0.6105,-0.6811,0.3697,-0.5906,-0.2454,0.5123,0.4142,-0.2393,0.5108,-0.5645,0.0828,0.1473,-0.4096,-0.4264,0.2638,0.2605,-0.2789,0.2604,-0.152,-0.3077,0.0257,-0.251,-0.1795,0.2907,-0.1707,0.2451,0.1325,-0.3145,0.3226,-0.2299,0.1728,0.1267,-0.2611,1.4137,-0.6285,0.2349,0.2644,-0.1417,1.0,-1.0,1.0,-1.0,-1.0,0.2162,-1.0,1.0,1.0,-1.0,1.0,-1.0,-1.0,1.0,-1.0,1.0,1.0,-1.0,0.0,0.0,0.0,0.0,0.0,0.0,0.0,0.0,0.0,0.0667,0.0,0.0667,0.0,0
1.24,run,16.03,-3.21,17.15,20.26,-9.29,0.0,0.012,0.0,0.338,-11.69,-10.63,100.2,-34.89,-21.27,88.95,-34.54,6.33,102.57,21.01,9.32,98.7,-34.1,27.6,74.53,-20.57,-0.7,81.21,0.09,-15.96,106.14,-35.0,-27.52,90.08,-35.0,5.74,105.51,12.09,23.21,92.99,-35.0,30.0,68.33,-9.09,11.39,68.99,1.0,-1.0,1.0,-1.0,-1.0,1.0,-1.0,-1.0,0.3042,-1.0,1.0,-1.0,-1.0,1.0,-1.0,1.0,1.0,-1.0,0.033,0.0,0.019,0.0,0.0,0.0,0.006,0.006,0.0,0.045,0.163,0.071,0.019,0.156,0.0,0.006,0.013,0.019,-0.2286,-0.5062,0.5047,-0.6105,-0.7041,0.362,-0.5998,-0.25,0.5354,0.3912,-0.2163,0.5185,-0.5814,0.1043,0.1243,-0.3774,-0.3912,0.2393,0.2631,-0.2875,0.2804,-0.1064,-0.3019,-0.0109,-0.2103,-0.1429,0.29,-0.206,0.2581,0.1216,-0.2836,0.3066,-0.2475,0.2421,0.2214,-0.275,1.4488,-0.5729,0.1567,0.2741,-0.1682,1.0,-1.0,1.0,-1.0,-1.0,1.0,-1.0,-1.0,1.0,-1.0,1.0,-1.0,-1.0,1.0,-1.0,1.0,1.0,-1.0,0.0,0.0,0.0,0.0,0.0,0.0,0.0,0.0,0.0,0.08,0.0,0.08,0.0,0
1.28,run,16.69,-2.8,17.01,8.83,-2.23,0.0,0.014,0.0,0.338,-10.37,-12.04,101.6,-34.89,-22.68,88.68,-34.54,6.86,103.8,19.69,10.72,98.7,-34.54,28.56,73.21,-18.81,0.62,79.8,1.59,-17.46,107.64,-35.0,-29.02,91.58,-35.0,4.24,104.01,10.59,24.71,91.49,-35.0,30.0,66.83,-7.59,12.89,67.49,1.0,-1.0,1.0,-1.0,-1.0,1.0,-1.0,-1.0,-0.2806,-1.0,1.0,-0.6283,-1.0,1.0,-0.6405,1.0,1.0,-1.0,0.033,0.0,0.019,0.0,0.0,0.0,0.006,0.006,0.0,0.045,0.163,0.071,0.019,0.156,0.0,0.006,0.013,0.019,-0.2056,-0.5354,0.5323,-0.6105,-0.7286,0.3467,-0.6044,-0.2516,0.5614,0.3651,-0.1902,0.5185,-0.5952,0.1212,0.0982,-0.3574,-0.3682,0.2132,0.2655,-0.3043,0.2939,-0.0745,-0.2981,-0.0618,-0.1635,-0.1055,0.2952,-0.2364,0.2728,0.0851,-0.2473,0.2742,-0.2654,0.24,0.2363,-0.2847,1.5141,-0.4982,0.2992,0.3537,-0.1621,1.0,-1.0,1.0,-1.0,-1.0,1.0,-1.0,-1.0,0.3042,-1.0,1.0,-1.0,-1.0,1.0,-1.0,1.0,1.0,-1.0,0.0,0.0,0.0,0.0,0.0,0.0,0.0,0.0,0.0,0.0933,0.0,0.0933,0.0,0
1.32,run,17.19,-2.21,12.95,14.23,6.06,0.0,0.016,0.0,0.338,-9.05,-13.36,102.92,-34.89,-24.08,88.42,-34.54,7.03,104.94,18.37,12.04,97.82,-34.72,29.09,71.98,-17.67,2.11,78.31,3.09,-18.96,109.14,-35.0,-30.52,93.08,-35.0,2.74,102.51,9.09,26.21,89.99,-35.0,30.0,65.33,-6.09,14.39,65.99,1.0,-1.0,1.0,-1.0,-1.0,1.0,-1.0,-1.0,-0.3028,-1.0,1.0,0.0768,-1.0,1.0,-0.1532,1.0,1.0,-1.0,0.058,0.0,0.026,0.0,0.0,0.033,0.006,0.0,0.006,0.091,0.201,0.0,0.013,0.026,0.006,0.026,0.013,0.013,-0.1825,-0.5599,0.5568,-0.6105,-0.7532,0.3421,-0.6044,-0.2424,0.5829,0.3421,-0.1657,0.5185,-0.6029,0.1381,0.0752,-0.3267,-0.3451,0.1887,0.2711,-0.3039,0.2966,-0.0521,-0.2996,-0.0603,-0.1144,-0.0397,0.2862,-0.2507,0.2819,0.0596,-0.2015,0.2545,-0.271,0.2816,0.2506,-0.2902,1.5712,-0.4624,0.2968,0.1541,-0.039,1.0,-1.0,1.0,-1.0,-1.0,1.0,-1.0,-1.0,-0.2806,-1.0,1.0,-0.6283,-1.0,1.0,-0.6405,1.0,1.0,-1.0,0.0,0.0,0.0,0.0,0.0,0.0,0.0,0.0,0.0,0.1067,0.0,0.1067,0.0,0
1.36,run,17.56,-1.76,10.68,11.44,9.04,0.0,0.018,0.0,0.338,-7.65,-14.85,104.24,-34.89,-25.49,88.59,-34.54,7.12,105.73,17.05,13.36,96.77,-34.72,29.44,70.49,-16.26,3.6,76.9,4.59,-20.46,110.64,-35.0,-32.02,94.58,-35.0,1.24,101.01,7.59,27.71,88.49,-35.0,30.0,63.83,-4.59,15.89,64.49,1.0,-1.0,1.0,-1.0,-1.0,1.0,-1.0,-1.0,-0.0876,-1.0,1.0,0.0993,-1.0,1.0,-0.0265,1.0,1.0,-1.0,0.058,0.0,0.026,0.0,0.0,0.033,0.006,0.0,0.006,0.091,0.201,0.0,0.013,0.026,0.006,0.026,0.013,0.013,-0.1595,-0.5829,0.5798,-0.6105,-0.7777,0.3375,-0.6044,-0.2393,0.6029,0.3191,-0.1427,0.5031,-0.6059,0.1473,0.0537,-0.3068,-0.3191,0.1626,0.2761,-0.299,0.2939,-0.0365,-0.3018,-0.0595,-0.0801,-0.0163,0.2751,-0.2618,0.2836,-0.0158,-0.1526,0.2126,-0.2703,0.2719,0.2732,-0.3009,1.6153,-0.4107,0.2261,0.2484,0.1058,1.0,-1.0,1.0,-1.0,-1.0,1.0,-1.0,-1.0,-0.3028,-1.0,1.0,0.0768,-1.0,1.0,-0.1532,1.0,1.0,-1.0,0.0,0.0,0.0,0.0,0.0,0.0,0.0,0.0,0.0,0.12,0.0,0.12,0.0,0
1.4,run,17.94,-1.35,10.22,11.27,1.16,0.0,0.02,0.0,0.338,-6.33,-16.26,105.64,-34.89,-26.89,89.38,-34.63,6.68,106.26,15.82,14.68,95.45,-34.72,29.62,69.26,-14.68,5.01,75.5,6.09,-21.96,112.14,-35.0,-33.52,96.08,-35.0,-0.26,99.51,6.09,29.21,86.99,-35.0,30.0,65.33,-3.09,17.39,62.99,1.0,-1.0,1.0,-1.0,-1.0,1.0,-1.0,-1.0,-0.0023,-1.0,1.0,0.1242,-1.0,1.0,0.0246,1.0,1.0,-1.0,0.058,0.0,0.026,0.0,0.0,0.033,0.006,0.0,0.006,0.091,0.201,0.0,0.013,0.026,0.006,0.026,0.013,0.013,-0.135,-0.609,0.6029,-0.6105,-0.8023,0.3405,-0.6044,-0.2378,0.6167,0.2961,-0.1197,0.4847,-0.6059,0.1534,0.0276,-0.2823,-0.293,0.1381,0.2861,-0.308,0.2928,-0.0255,-0.3041,-0.03,-0.0561,-0.0056,0.2448,-0.2703,0.2856,-0.0807,-0.1068,0.1721,-0.2878,0.2832,0.2899,-0.3035,1.6475,-0.3715,0.1864,0.1997,0.1578,1.0,-1.0,1.0,-1.0,-1.0,1.0,-1.0,-1.0,-0.0876,-1.0,1.0,0.0993,-1.0,1.0,-0.0265,1.0,1.0,-1.0,0.0,0.0,0.0,0.0,0.0,0.0,0.0,0.0,0.0,0.1333,0.0,0.1333,0.0,0
1.44,run,18.27,-0.94,7.44,10.72,-8.6,0.0,0.022,0.0,0.338,-4.92,-17.75,107.05,-34.89,-28.21,90.35,-34.63,5.89,106.52,14.5,16.0,94.04,-34.72,29.79,67.76,-13.45,6.33,74.09,7.59,-23.46,113.64,-35.0,-35.02,97.58,-35.0,-1.76,98.01,4.59,30.0,85.49,-35.0,30.0,66.83,-1.59,18.89,61.49,1.0,-1.0,1.0,-1.0,-1.0,1.0,-1.0,-1.0,0.2667,-1.0,1.0,0.0325,-1.0,1.0,0.2348,0.4626,1.0,-1.0,0.091,0.0,0.026,0.0,0.0,0.039,0.006,0.039,0.0,0.104,0.182,0.0,0.0,0.0,0.006,0.006,0.013,0.013,-0.112,-0.6335,0.6274,-0.6105,-0.8268,0.3543,-0.6059,-0.2454,0.6259,0.2746,-0.0966,0.4617,-0.6059,0.1565,0.0061,-0.2546,-0.2684,0.1135,0.2858,-0.3068,0.2962,-0.0179,-0.3041,0.0303,-0.045,-0.0325,0.2056,-0.2691,0.2855,-0.1421,-0.0748,0.1319,-0.2813,0.3009,0.2942,-0.3037,1.6805,-0.3357,0.1784,0.1967,0.0202,1.0,-1.0,1.0,-1.0,-1.0,1.0,-1.0,-1.0,-0.0023,-1.0,1.0,0.1242,-1.0,1.0,0.0246,1.0,1.0,-1.0,0.0,0.0,0.0,0.0,0.0,0.0,0.0,0.0,0.0,0.1467,0.0,0.1467,0.0,0
1.48,run,18.39,-0.47,2.94,12.2,-8.68,0.0,0.024,0.0,0.338,-3.69,-19.25,108.46,-34.89,-29.62,91.58,-34.63,4.92,106.88,13.1,17.49,92.55,-34.8,29.88,66.71,-11.6,7.73,72.69,9.09,-24.96,115.14,-35.0,-36.52,99.08,-35.0,-3.26,99.51,3.09,30.0,83.99,-35.0,30.0,68.33,-3.09,20.39,59.99,1.0,-1.0,1.0,-1.0,-0.7602,1.0,-1.0,-1.0,0.4895,-1.0,1.0,-0.6467,-1.0,1.0,0.0849,-0.5302,1.0,-1.0,0.091,0.0,0.026,0.0,0.0,0.039,0.006,0.039,0.0,0.104,0.182,0.0,0.0,0.0,0.006,0.006,0.013,0.013,-0.0874,-0.6596,0.6519,-0.6105,-0.8498,0.3712,-0.6059,-0.2592,0.6305,0.2516,-0.0736,0.4372,-0.6059,0.1595,-0.0199,-0.2332,-0.2454,0.089,0.2921,-0.3126,0.2994,-0.0125,-0.2992,0.0845,-0.0315,-0.0745,0.1612,-0.2746,0.2861,-0.1915,-0.0523,0.1038,-0.2947,0.2912,0.2922,-0.3047,1.7091,-0.2996,0.1299,0.1871,-0.1501,1.0,-1.0,1.0,-1.0,-1.0,1.0,-1.0,-1.0,0.2667,-1.0,1.0,0.0325,-1.0,1.0,0.2348,0.4626,1.0,-1.0,0.0,0.0,0.0,0.0,0.0,0.0,0.0,0.0,0.0,0.16,0.0,0.16,0.0,0
1.52,run,18.7,0.22,7.49,17.76,-5.8,0.0,0.026,0.0,0.338,-2.37,-20.65,109.95,-34.89,-31.11,92.9,-34.63,3.6,106.44,11.78,18.81,91.23,-34.8,29.97,65.92,-10.46,9.23,71.28,10.59,-26.46,116.64,-35.0,-35.02,100.58,-35.0,-4.76,100.35,1.59,30.0,82.49,-35.0,30.0,66.83,-4.59,21.89,58.49,1.0,-1.0,1.0,-1.0,0.0194,1.0,-1.0,-1.0,0.4159,-1.0,1.0,-1.0,-1.0,1.0,-0.5288,-1.0,1.0,-1.0,0.091,0.0,0.026,0.0,0.0,0.039,0.006,0.039,0.0,0.104,0.182,0.0,0.0,0.0,0.006,0.006,0.013,0.013,-0.066,-0.6857,0.6765,-0.6105,-0.8744,0.3927,-0.6059,-0.2761,0.6366,0.227,-0.0476,0.4111,-0.6075,0.1611,-0.0383,-0.201,-0.2209,0.0644,0.285,-0.3166,0.3016,-0.0088,-0.3014,0.1397,-0.022,-0.1154,0.1358,-0.2843,0.298,-0.2318,-0.0424,0.0784,-0.2753,0.3246,0.2966,-0.3053,1.7195,-0.2586,0.0513,0.213,-0.1514,1.0,-1.0,1.0,-1.0,-0.7602,1.0,-1.0,-1.0,0.4895,-1.0,1.0,-0.6467,-1.0,1.0,0.0849,-0.5302,1.0,-1.0,0.0,0.0,0.0,0.0,0.0,0.0,0.0,0.0,0.0,0.1733,0.0,0.1733,0.0,0
1.56,run,19.0,0.69,6.95,10.58,-6.23,0.0,0.028,0.0,0.338,-1.05,-22.06,111.36,-34.89,-32.43,94.31,-34.63,2.2,105.64,10.46,20.21,89.74,-34.8,30.15,65.57,-8.96,10.63,69.87,12.09,-27.96,118.14,-35.0,-33.52,102.08,-33.5,-6.26,98.85,0.09,30.0,80.99,-35.0,30.0,65.33,-6.09,23.39,56.99,1.0,-1.0,1.0,-1.0,0.0995,1.0,-0.5632,-1.0,0.2805,-1.0,1.0,-1.0,-1.0,1.0,-0.2421,-1.0,1.0,-1.0,0.084,0.0,0.019,0.0,0.0,0.065,0.0,0.084,0.039,0.163,0.208,0.0,0.006,0.006,0.0,0.0,0.013,0.013,-0.043,-0.7102,0.7026,-0.6105,-0.9004,0.4157,-0.6059,-0.2991,0.6289,0.204,-0.0245,0.3881,-0.6075,0.1626,-0.0522,-0.181,-0.1948,0.0399,0.2858,-0.3137,0.3089,-0.0061,-0.3088,0.1841,-0.0154,-0.1671,0.0663,-0.2853,0.2949,-0.2486,-0.0297,0.0606,-0.2445,0.302,0.3054,-0.3057,1.7471,-0.1989,0.1307,0.31,-0.1012,1.0,-1.0,1.0,-1.0,0.0194,1.0,-1.0,-1.0,0.4159,-1.0,1.0,-1.0,-1.0,1.0,-0.5288,-1.0,1.0,-1.0,0.0,0.0,0.0,0.0,0.0,0.0,0.0,0.0,0.0,0.1867,0.0,0.1867,0.0,0
1.6,run,19.4,1.05,9.68,9.57,-11.2,0.0,0.03,0.0,0.338,0.44,-23.47,112.76,-34.89,-33.66,95.62,-34.63,0.79,104.77,9.05,21.53,88.33,-34.8,30.15,65.3,-7.65,12.04,68.38,13.59,-29.46,119.64,-35.0,-35.02,103.58,-32.0,-7.76,100.35,-1.41,30.0,79.49,-35.0,30.0,63.83,-7.59,24.89,55.49,1.0,-1.0,1.0,-1.0,-0.2237,1.0,-0.527,-1.0,0.9042,-1.0,1.0,-1.0,-1.0,1.0,-0.6569,-1.0,1.0,-1.0,0.084,0.0,0.019,0.0,0.0,0.065,0.0,0.084,0.039,0.163,0.208,0.0,0.006,0.006,0.0,0.0,0.013,0.013,-0.0199,-0.7348,0.7271,-0.6105,-0.9235,0.4403,-0.6059,-0.3237,0.6151,0.181,0.0,0.362,-0.6075,0.1657,-0.0583,-0.1549,-0.1703,0.0153,0.2863,-0.3115,0.3082,-0.0043,-0.3024,0.2208,-0.0108,-0.2089,-0.0053,-0.2859,0.2984,-0.2717,-0.0208,0.0539,-0.1941,0.3091,0.3057,-0.306,1.7725,-0.1571,0.1213,0.1847,-0.1088,1.0,-1.0,1.0,-1.0,0.0995,1.0,-0.5632,-1.0,0.2805,-1.0,1.0,-1.0,-1.0,1.0,-0.2421,-1.0,1.0,-1.0,0.0,0.0,0.0,0.0,0.0,0.0,0.0,0.0,0.0,0.2,0.0,0.2,0.0,0
1.64,run,19.93,1.14,11.86,3.15,-4.44,0.0,0.032,0.0,0.338,1.76,-24.87,114.17,-34.89,-34.54,96.94,-34.54,-0.62,103.71,7.56,22.94,86.92,-34.8,30.15,65.21,-6.94,12.83,66.8,15.09,-30.96,121.14,-35.0,-36.52,105.08,-30.5,-9.26,101.85,-2.91,30.0,77.99,-35.0,30.0,62.33,-9.09,26.39,53.99,1.0,-1.0,1.0,-1.0,-0.4372,1.0,-0.1475,-1.0,1.0,-1.0,1.0,-1.0,-1.0,1.0,-1.0,-1.0,1.0,-1.0,0.084,0.0,0.019,0.0,0.0,0.065,0.0,0.084,0.039,0.163,0.208,0.0,0.006,0.006,0.0,0.0,0.013,0.013,0.0061,-0.7593,0.7517,-0.6105,-0.9449,0.4633,-0.6059,-0.3482,0.5998,0.1565,0.023,0.3375,-0.6075,0.1657,-0.0629,-0.1319,-0.1457,-0.0107,0.2981,-0.31,0.3077,-0.003,-0.2921,0.2408,-0.0076,-0.2382,-0.0612,-0.2921,0.2951,-0.2821,-0.0145,0.0378,-0.1531,0.3026,0.306,-0.3119,1.8075,-0.126,0.1689,0.167,-0.1954,1.0,-1.0,1.0,-1.0,-0.2237,1.0,-0.527,-1.0,0.9042,-1.0,1.0,-1.0,-1.0,1.0,-0.6569,-1.0,1.0,-1.0,0.0,0.0,0.0,0.0,0.0,0.0,0.0,0.0,0.0,0.2133,0.0,0.2133,0.0,0
1.68,run,20.37,1.07,11.96,-2.48,3.06,0.0,0.034,0.0,0.338,3.16,-26.28,115.66,-34.45,-35.33,98.26,-34.01,-2.02,102.74,6.15,24.35,85.52,-34.8,30.06,64.51,-5.89,14.59,65.3,16.59,-32.46,122.64,-35.0,-38.02,106.58,-29.0,-10.76,103.35,-4.41,30.0,76.49,-35.0,30.0,60.83,-10.59,27.89,52.49,1.0,-1.0,1.0,-1.0,-1.0,1.0,-0.0557,-1.0,1.0,-1.0,1.0,-1.0,-1.0,1.0,-1.0,-1.0,1.0,-1.0,0.143,0.0,0.026,0.019,0.0,0.111,0.013,0.052,0.058,0.104,0.182,0.0,0.006,0.0,0.006,0.006,0.006,0.013,0.0291,-0.7839,0.7762,-0.6105,-0.9603,0.4863,-0.6044,-0.3728,0.5814,0.1304,0.0476,0.3129,-0.6075,0.1657,-0.0644,-0.1197,-0.1319,-0.0383,0.2951,-0.3092,0.3076,-0.0021,-0.2621,0.255,0.0005,-0.259,-0.112,-0.3024,0.2988,-0.2897,-0.0102,0.0264,-0.113,0.2579,0.2661,-0.3221,1.8537,-0.1182,0.2071,0.055,-0.0775,1.0,-1.0,1.0,-1.0,-0.4372,1.0,-0.1475,-1.0,1.0,-1.0,1.0,-1.0,-1.0,1.0,-1.0,-1.0,1.0,-1.0,0.0,0.0,0.0,0.0,0.0,0.0,0.0,0.0,0.0,0.2267,0.0,0.2267,0.0,0
1.72,run,20.75,1.06,12.27,-2.9,4.99,0.0,0.036,0.0,0.338,4.66,-27.69,117.07,-34.37,-36.39,99.58,-32.78,-3.43,102.04,4.57,25.58,84.11,-34.8,30.15,63.81,-5.98,16.17,64.34,18.09,-33.96,124.14,-33.5,-39.52,108.08,-27.5,-12.26,104.85,-5.91,30.0,74.99,-35.0,30.0,59.33,-12.09,29.39,50.99,1.0,-1.0,1.0,-0.2412,-1.0,1.0,0.0192,-1.0,1.0,-1.0,1.0,-1.0,-1.0,1.0,-1.0,-1.0,1.0,-0.7193,0.143,0.0,0.026,0.019,0.0,0.111,0.013,0.052,0.058,0.104,0.182,0.0,0.006,0.0,0.006,0.006,0.006,0.013,0.0537,-0.8084,0.8023,-0.6029,-0.9741,0.5093,-0.5952,-0.3973,0.5645,0.1058,0.0721,0.2884,-0.6075,0.1641,-0.0767,-0.1012,-0.1012,-0.0644,0.2986,-0.3085,0.3131,0.0273,-0.2352,0.2648,0.0348,-0.2733,-0.1417,-0.3037,0.3012,-0.2948,-0.0071,0.0128,-0.1251,0.2496,0.3013,-0.3232,1.8928,-0.1245,0.2088,-0.0432,0.0533,1.0,-1.0,1.0,-1.0,-1.0,1.0,-0.0557,-1.0,1.0,-1.0,1.0,-1.0,-1.0,1.0,-1.0,-1.0,1.0,-1.0,0.0,0.0,0.0,0.0,0.0,0.0,0.0,0.0,0.0,0.24,0.0,0.24,0.0,0
1.76,run,20.91,1.3,5.55,2.96,4.93,0.0,0.038,0.0,0.338,5.98,-29.0,118.3,-34.54,-37.44,100.9,-31.55,-4.83,101.6,3.16,26.46,82.71,-34.8,30.06,62.67,-5.45,17.49,62.67,19.59,-35.46,125.64,-32.0,-41.02,109.58,-26.0,-13.76,106.35,-7.41,30.0,73.49,-35.0,30.0,57.83,-13.59,30.0,52.49,1.0,-1.0,1.0,1.0,-1.0,1.0,0.8656,-1.0,1.0,-1.0,1.0,-1.0,-1.0,1.0,-1.0,-1.0,1.0,0.4439,0.143,0.0,0.026,0.019,0.0,0.111,0.013,0.052,0.058,0.104,0.182,0.0,0.006,0.0,0.006,0.006,0.006,0.013,0.0798,-0.833,0.8268,-0.6013,-0.9925,0.5323,-0.5737,-0.4218,0.5522,0.0782,0.0936,0.2638,-0.6075,0.1657,-0.089,-0.1028,-0.0736,-0.0813,0.3067,-0.3078,0.3111,0.0248,-0.2336,0.2715,0.1048,-0.2832,-0.1451,-0.316,0.2912,-0.2983,-0.005,0.0147,-0.1335,0.1689,0.3143,-0.2894,1.9254,-0.1251,0.2141,-0.0506,0.087,1.0,-1.0,1.0,-0.2412,-1.0,1.0,0.0192,-1.0,1.0,-1.0,1.0,-1.0,-1.0,1.0,-1.0,-1.0,1.0,-0.7193,0.0,0.0,0.0,0.0,0.0,0.0,0.0,0.0,0.0,0.2533,0.0,0.2533,0.0,0
1.8,run,21.09,1.16,2.92,-2.09,1.4,0.0,0.04,0.0,0.338,7.38,-30.41,119.53,-34.45,-38.67,102.22,-30.15,-6.24,101.34,1.76,27.16,81.21,-34.8,30.15,61.26,-6.24,18.98,61.26,21.09,-36.96,127.14,-30.5,-42.52,111.08,-24.5,-15.26,107.85,-8.91,30.0,71.99,-35.0,30.0,56.33,-15.09,30.0,53.99,1.0,-1.0,1.0,1.0,-1.0,1.0,1.0,-1.0,1.0,-1.0,1.0,-1.0,-1.0,1.0,-1.0,-1.0,1.0,1.0,0.156,0.0,0.052,0.013,0.0,0.175,0.019,0.065,0.033,0.143,0.143,0.0,0.006,0.006,0.006,0.006,0.019,0.013,0.1028,-0.856,0.8483,-0.6044,-1.0109,0.5553,-0.5522,-0.4464,0.5446,0.0537,0.1089,0.2393,-0.6075,0.1641,-0.1089,-0.0936,-0.0506,-0.1104,0.3011,-0.3019,0.2984,0.0059,-0.2326,0.2765,0.154,-0.2904,-0.1304,-0.3134,0.2615,-0.301,-0.0035,0.0045,-0.1683,0.1528,0.3064,-0.3121,1.9398,-0.104,0.0969,0.0516,0.086,1.0,-1.0,1.0,1.0,-1.0,1.0,0.8656,-1.0,1.0,-1.0,1.0,-1.0,-1.0,1.0,-1.0,-1.0,1.0,0.4439,0.0,0.0,0.0,0.0,0.0,0.0,0.0,0.0,0.0,0.2667,0.0,0.2667,0.0,0
1.84,run,21.12,1.52,-0.84,6.37,-3.0,0.0,0.042,0.0,0.338,8.7,-31.82,120.76,-33.84,-39.99,103.71,-28.74,-7.65,101.34,0.35,27.51,79.8,-34.8,30.06,59.85,-6.94,20.39,59.85,22.59,-38.46,128.64,-29.0,-44.02,112.58,-23.0,-16.76,109.35,-10.41,30.0,70.49,-33.5,30.0,54.83,-16.59,30.0,55.49,1.0,-1.0,1.0,1.0,-1.0,1.0,1.0,-1.0,1.0,-1.0,1.0,-1.0,-0.8166,1.0,-1.0,-1.0,1.0,1.0,0.156,0.0,0.052,0.013,0.0,0.175,0.019,0.065,0.033,0.143,0.143,0.0,0.006,0.006,0.006,0.006,0.019,0.013,0.1273,-0.8805,0.8698,-0.6029,-1.0324,0.5783,-0.5277,-0.4709,0.54,0.0291,0.1212,0.2132,-0.6075,0.1657,-0.1335,-0.1074,-0.0245,-0.135,0.3025,-0.303,0.2891,0.0098,-0.2431,0.2795,0.1995,-0.295,-0.1085,-0.3111,0.2289,-0.3081,-0.0024,0.0089,-0.2095,0.0554,0.3119,-0.3101,1.9557,-0.1166,0.0509,-0.0364,0.0244,1.0,-1.0,1.0,1.0,-1.0,1.0,1.0,-1.0,1.0,-1.0,1.0,-1.0,-1.0,1.0,-1.0,-1.0,1.0,1.0,0.0,0.0,0.0,0.0,0.0,0.0,0.0,0.0,0.0,0.28,0.0,0.28,0.0,0
1.88,run,21.05,1.74,0.08,2.78,4.9,0.0,0.044,0.0,0.338,10.11,-33.22,121.99,-32.87,-41.22,105.12,-27.33,-9.14,101.34,-1.05,27.51,78.49,-34.8,30.15,58.45,-8.0,21.8,58.54,24.09,-39.96,130.14,-27.5,-45.52,114.08,-21.5,-18.26,110.85,-11.91,30.0,68.99,-32.0,30.0,53.33,-18.09,30.0,56.99,1.0,-1.0,0.8293,1.0,-1.0,1.0,1.0,-1.0,1.0,-1.0,1.0,-1.0,-0.7928,1.0,-1.0,-1.0,1.0,1.0,0.156,0.0,0.052,0.013,0.0,0.175,0.019,0.065,0.033,0.143,0.143,0.0,0.006,0.006,0.006,0.006,0.019,0.013,0.1503,-0.905,0.8912,-0.5921,-1.0554,0.6044,-0.5031,-0.4955,0.54,0.0046,0.1273,0.1887,-0.6075,0.1641,-0.158,-0.1197,0.0,-0.1595,0.2987,-0.3049,0.2835,0.0475,-0.2571,0.2942,0.2324,-0.2993,-0.0759,-0.3105,0.1834,-0.3084,-0.0017,0.0004,-0.2394,-0.0076,0.3111,-0.3099,1.9577,-0.0851,-0.0146,0.1112,-0.0523,1.0,-1.0,1.0,1.0,-1.0,1.0,1.0,-1.0,1.0,-1.0,1.0,-1.0,-0.8166,1.0,-1.0,-1.0,1.0,1.0,0.0,0.0,0.0,0.0,0.0,0.0,0.0,0.0,0.0,0.2933,0.0,0.2933,0.0,0
1.92,run,21.13,1.77,-2.79,4.9,8.91,0.0,0.046,0.0,0.338,11.51,-34.63,123.31,-31.73,-42.54,106.52,-25.93,-10.55,101.87,-2.46,27.6,77.08,-34.54,30.06,57.04,-9.32,23.2,57.3,25.59,-41.46,128.64,-26.0,-47.02,115.58,-20.0,-19.76,112.35,-13.41,30.0,67.49,-30.5,30.0,51.83,-19.59,30.0,58.49,1.0,-1.0,0.5798,1.0,-1.0,1.0,1.0,-1.0,1.0,-1.0,1.0,-1.0,-0.5402,1.0,-1.0,-1.0,1.0,1.0,0.163,0.006,0.136,0.006,0.0,0.123,0.006,0.052,0.0,0.189,0.104,0.0,0.006,0.006,0.006,0.019,0.013,0.0,0.1749,-0.9296,0.9127,-0.5752,-1.0769,0.6289,-0.4786,-0.5216,0.54,-0.0199,0.1273,0.1657,-0.6075,0.1657,-0.1825,-0.1381,0.0245,-0.1825,0.3008,-0.3051,0.2787,0.0963,-0.2602,0.2976,0.2544,-0.3069,-0.0531,-0.309,0.1284,-0.3019,-0.0012,0.006,-0.2593,-0.0741,0.3094,-0.3028,1.9521,-0.0656,0.0015,0.0486,0.0854,1.0,-1.0,0.8293,1.0,-1.0,1.0,1.0,-1.0,1.0,-1.0,1.0,-1.0,-0.7928,1.0,-1.0,-1.0,1.0,1.0,0.0,0.0,0.0,0.0,0.0,0.0,0.0,0.0,0.0,0.3067,0.0,0.3067,0.0,0
1.96,run,21.04,1.85,-1.62,1.58,5.29,0.0,0.048,0.0,0.338,16.26,-38.94,126.21,-27.6,-46.32,111.27,-21.8,-15.38,105.82,-6.86,27.95,72.51,-31.38,30.15,53.0,-14.06,27.51,55.63,27.09,-42.96,127.14,-24.5,-48.52,114.08,-18.5,-21.26,113.85,-14.91,30.0,65.99,-29.0,30.0,50.33,-21.09,30.0,59.99,1.0,-1.0,0.305,1.0,-1.0,0.5491,1.0,-1.0,1.0,-1.0,1.0,-1.0,-0.2427,1.0,-1.0,-1.0,1.0,1.0,0.136,0.0,0.111,0.006,0.0,0.149,0.013,0.033,0.0,0.136,0.104,0.0,0.006,0.006,0.006,0.013,0.013,0.006,0.1994,-0.9541,0.9357,-0.5553,-1.0999,0.6535,-0.4541,-0.5461,0.5492,-0.0445,0.1289,0.1411,-0.6029,0.1641,-0.2071,-0.1611,0.0491,-0.204,0.3027,-0.3057,0.2815,0.1422,-0.2685,0.3005,0.2702,-0.307,-0.0026,-0.3085,0.0956,-0.3034,0.0164,-0.0015,-0.2736,-0.1382,0.3088,-0.2926,1.9584,-0.0635,-0.0486,0.0855,0.1555,1.0,-1.0,0.5798,1.0,-1.0,1.0,1.0,-1.0,1.0,-1.0,1.0,-1.0,-0.5402,1.0,-1.0,-1.0,1.0,1.0,0.0,0.0,0.0,0.0,0.0,0.0,0.0,0.0,0.0,0.32,0.0,0.32,0.0,0
2.0,run,20.89,1.76,-2.21,-4.87,-4.58,0.0,0.05,0.0,0.338,17.75,-40.08,126.56,-26.81,-46.93,112.5,-21.01,-16.88,107.23,-8.17,27.95,71.1,-30.76,30.15,52.29,-15.47,28.48,55.63,25.59,-44.46,125.64,-23.0,-50.02,112.58,-17.0,-22.76,115.35,-16.41,30.0,64.49,-27.5,30.0,48.83,-22.59,30.0,61.49,0.0118,-1.0,-0.0377,1.0,-1.0,-0.144,1.0,-1.0,1.0,-1.0,1.0,-1.0,0.4829,1.0,-1.0,-1.0,1.0,1.0,0.136,0.0,0.111,0.006,0.0,0.149,0.013,0.033,0.0,0.136,0.104,0.0,0.006,0.006,0.006,0.013,0.013,0.006,0.2823,-1.0293,0.9863,-0.4832,-1.1658,0.7363,-0.382,-0.6305,0.6182,-0.1212,0.135,0.0614,-0.5476,0.1657,-0.2777,-0.2439,0.1243,-0.2332,0.3072,-0.3005,0.2553,0.1826,-0.2639,0.3057,0.2722,-0.312,0.0776,-0.3042,0.074,-0.3042,0.0751,0.0007,-0.2728,-0.1921,0.3027,-0.2384,1.9507,-0.0563,-0.0282,0.0277,0.0922,1.0,-1.0,0.305,1.0,-1.0,0.5491,1.0,-1.0,1.0,-1.0,1.0,-1.0,-0.2427,1.0,-1.0,-1.0,1.0,1.0,0.0,0.0,0.0,0.0,0.0,0.0,0.0,0.0,0.0,0.3333,0.0,0.3333,0.0,0
2.04,run,20.95,1.51,-3.49,-1.71,-4.67,0.0,0.05,0.0,0.338,19.16,-41.13,126.65,-26.02,-47.9,113.38,-20.04,-18.37,108.63,-9.58,27.95,69.7,-29.97,30.15,51.24,-16.88,29.0,56.34,24.09,-45.96,124.14,-21.5,-51.52,111.08,-15.5,-24.26,116.85,-17.91,28.5,62.99,-26.0,30.0,47.33,-24.09,30.0,62.99,-1.0,-1.0,-0.1292,1.0,-1.0,-0.6222,1.0,-1.0,0.8764,-1.0,0.4217,-0.6826,0.6123,1.0,-0.9262,-1.0,1.0,1.0,0.136,0.0,0.111,0.006,0.0,0.149,0.013,0.033,0.0,0.136,0.104,0.0,0.006,0.006,0.006,0.013,0.013,0.006,0.3083,-1.0492,0.9925,-0.4694,-1.1766,0.7578,-0.3682,-0.6565,0.6427,-0.1442,0.135,0.0368,-0.5369,0.1657,-0.2899,-0.2684,0.1411,-0.2332,0.3121,-0.2846,0.2016,0.1792,-0.2247,0.2939,0.2419,-0.3155,0.1457,-0.2986,0.0518,-0.3043,0.0925,0.0005,-0.2366,-0.2258,0.2747,-0.1669,1.9379,-0.0644,-0.0385,-0.0849,-0.0799,0.0118,-1.0,-0.0377,1.0,-1.0,-0.144,1.0,-1.0,1.0,-1.0,1.0,-1.0,0.4829,1.0,-1.0,-1.0,1.0,1.0,0.0,0.0,0.0,0.0,0.0,0.0,0.0,0.0,0.0,0.3333,0.0,0.3333,0.0,0
2.08,run,20.76,1.37,-3.11,-7.16,1.38,0.0,0.05,0.0,0.338,20.39,-42.54,126.74,-24.96,-48.96,114.08,-18.9,-19.69,110.04,-11.07,28.04,68.29,-28.83,30.15,50.01,-18.37,29.27,57.22,22.59,-47.46,122.64,-20.0,-53.02,109.58,-14.0,-25.76,115.35,-19.41,27.0,64.49,-24.5,30.0,45.83,-25.59,30.0,64.49,-1.0,-1.0,-0.0744,1.0,-1.0,-0.863,1.0,-1.0,0.2551,-1.0,-0.7104,0.7129,0.5271,1.0,-0.7615,-1.0,1.0,1.0,0.091,0.0,0.0,0.019,0.0,0.065,0.013,0.019,0.006,0.208,0.033,0.0,0.013,0.006,0.013,0.019,0.006,0.026,0.3329,-1.0677,0.994,-0.4556,-1.1934,0.7731,-0.3513,-0.6826,0.6673,-0.1687,0.135,0.0123,-0.5231,0.1657,-0.3083,-0.293,0.1503,-0.2209,0.3103,-0.2681,0.1468,0.1771,-0.2204,0.2631,0.2325,-0.3184,0.1938,-0.3009,0.0363,-0.3049,0.1164,0.0003,-0.2345,-0.2499,0.2267,-0.0709,1.9429,-0.0858,-0.0609,-0.0299,-0.0815,-1.0,-1.0,-0.1292,1.0,-1.0,-0.6222,1.0,-1.0,0.8764,-1.0,0.4217,-0.6826,0.6123,1.0,-0.9262,-1.0,1.0,1.0,0.0,0.0,0.0,0.0,0.0,0.0,0.0,0.0,0.0,0.3333,0.0,0.3333,0.0,0
2.12,run,20.43,1.27,-6.89,-4.68,-9.49,0.0,0.05,0.0,0.338,21.71,-44.03,126.65,-23.99,-50.01,114.52,-17.67,-21.27,111.45,-12.48,28.04,66.97,-27.6,30.15,48.69,-19.78,29.36,58.45,21.09,-48.96,121.14,-18.5,-54.52,108.08,-12.5,-27.26,113.85,-20.91,25.5,65.99,-23.0,30.0,44.33,-27.09,30.0,65.99,-1.0,-0.6765,-0.1952,1.0,-1.0,-0.0518,1.0,-1.0,-0.7051,-1.0,-1.0,1.0,1.0,1.0,-0.9337,-1.0,1.0,1.0,0.091,0.0,0.0,0.019,0.0,0.065,0.013,0.019,0.006,0.208,0.033,0.0,0.013,0.006,0.013,0.019,0.006,0.026,0.3543,-1.0922,0.9956,-0.4372,-1.2118,0.7854,-0.3313,-0.7056,0.6918,-0.1948,0.1365,-0.0123,-0.5031,0.1657,-0.3298,-0.3191,0.1549,-0.2056,0.2979,-0.2798,0.1085,0.1931,-0.2234,0.2303,0.2376,-0.3093,0.2278,-0.3085,0.0311,-0.3056,0.1564,0.0002,-0.2448,-0.2729,0.176,0.008,1.9263,-0.0982,-0.0542,-0.1249,0.0242,-1.0,-1.0,-0.0744,1.0,-1.0,-0.863,1.0,-1.0,0.2551,-1.0,-0.7104,0.7129,0.5271,1.0,-0.7615,-1.0,1.0,1.0,0.0,0.0,0.0,0.0,0.0,0.0,0.0,0.0,0.0,0.3333,0.0,0.3333,0.0,0
2.16,run,20.34,1.19,-4.04,-2.87,-16.59,0.0,0.05,0.0,0.338,22.59,-45.26,125.86,-22.59,-51.24,114.61,-16.35,-22.68,112.59,-13.89,27.77,65.83,-26.19,30.15,47.37,-21.18,29.36,59.77,19.59,-47.46,119.64,-17.0,-56.02,106.58,-11.0,-28.76,112.35,-22.41,24.0,67.49,-21.5,30.0,45.83,-28.59,30.0,67.49,-1.0,0.3177,-0.3,1.0,-1.0,0.0107,1.0,-0.62,-1.0,-1.0,-1.0,1.0,1.0,1.0,0.3697,-1.0,1.0,1.0,0.091,0.0,0.0,0.019,0.0,0.065,0.013,0.019,0.006,0.208,0.033,0.0,0.013,0.006,0.013,0.019,0.006,0.026,0.3774,-1.1183,0.994,-0.4203,-1.2303,0.7931,-0.3099,-0.7332,0.7164,-0.2194,0.1365,-0.0353,-0.4817,0.1657,-0.3528,-0.3436,0.1565,-0.1841,0.2949,-0.2938,0.0702,0.1985,-0.2255,0.19,0.2469,-0.3201,0.2516,-0.3081,0.0218,-0.3003,0.1901,0.0002,-0.2577,-0.2831,0.1289,0.0862,1.8976,-0.1069,-0.1203,-0.0817,-0.1656,-1.0,-0.6765,-0.1952,1.0,-1.0,-0.0518,1.0,-1.0,-0.7051,-1.0,-1.0,1.0,1.0,1.0,-0.9337,-1.0,1.0,1.0,0.0,0.0,0.0,0.0,0.0,0.0,0.0,0.0,0.0,0.3333,0.0,0.3333,0.0,0
2.2,run,20.18,1.21,-6.23,-1.27,-8.62,0.0,0.05,0.0,0.338,22.94,-46.49,124.72,-21.18,-52.47,114.43,-14.94,-24.08,113.64,-15.29,26.81,65.13,-24.87,30.15,46.14,-22.68,29.36,61.17,18.09,-45.96,118.14,-15.5,-57.52,105.08,-9.5,-30.26,110.85,-23.91,22.5,68.99,-20.0,30.0,47.33,-30.09,30.0,68.99,0.2153,0.8422,0.0334,1.0,-1.0,-0.3727,1.0,-0.2145,-1.0,-1.0,-1.0,1.0,1.0,1.0,0.759,-1.0,1.0,1.0,0.065,0.0,0.006,0.026,0.006,0.006,0.013,0.019,0.006,0.143,0.0,0.013,0.006,0.006,0.006,0.013,0.013,0.026,0.3927,-1.1397,0.9802,-0.3958,-1.2517,0.7946,-0.2869,-0.7578,0.7363,-0.2439,0.1319,-0.0552,-0.4571,0.1657,-0.3758,-0.3682,0.1565,-0.1611,0.2637,-0.2859,-0.0024,0.2307,-0.2381,0.1387,0.2588,-0.3158,0.2506,-0.3074,-0.0019,-0.2847,0.2248,0.0001,-0.2664,-0.2899,0.0903,0.1463,1.8897,-0.1137,-0.0705,-0.0502,-0.2895,-1.0,0.3177,-0.3,1.0,-1.0,0.0107,1.0,-0.62,-1.0,-1.0,-1.0,1.0,1.0,1.0,0.3697,-1.0,1.0,1.0,0.0,0.0,0.0,0.0,0.0,0.0,0.0,0.0,0.0,0.3333,0.0,0.3333,0.0,0
2.24,run,20.37,1.08,0.92,-2.1,-2.21,0.0,0.05,0.0,0.338,22.94,-47.55,123.49,-19.86,-53.7,113.55,-13.62,-25.58,114.26,-16.7,25.58,64.6,-23.38,30.15,45.18,-24.08,29.36,62.49,16.59,-44.46,116.64,-14.0,-59.02,103.58,-8.0,-28.76,109.35,-25.41,21.0,70.49,-18.5,30.0,48.83,-31.59,30.0,70.49,0.2849,1.0,-0.2841,1.0,-1.0,0.2018,1.0,0.1089,-0.9051,-1.0,-1.0,1.0,1.0,1.0,0.1796,-1.0,1.0,1.0,0.065,0.0,0.006,0.026,0.006,0.006,0.013,0.019,0.006,0.143,0.0,0.013,0.006,0.006,0.006,0.013,0.013,0.026,0.3988,-1.1612,0.9603,-0.3712,-1.2732,0.7915,-0.2623,-0.7823,0.7547,-0.2684,0.115,-0.0675,-0.4341,0.1657,-0.3973,-0.3942,0.1565,-0.1365,0.2077,-0.2809,-0.0767,0.2538,-0.2475,0.0856,0.2735,-0.3134,0.2447,-0.3075,-0.0649,-0.2455,0.2439,0.0001,-0.2673,-0.3011,0.0632,0.1948,1.8758,-0.1121,-0.1087,-0.0222,-0.1504,0.2153,0.8422,0.0334,1.0,-1.0,-0.3727,1.0,-0.2145,-1.0,-1.0,-1.0,1.0,1.0,1.0,0.759,-1.0,1.0,1.0,0.0,0.0,0.0,0.0,0.0,0.0,0.0,0.0,0.0,0.3333,0.0,0.3333,0.0,0
2.28,run,20.75,0.83,0.24,0.47,-10.22,0.0,0.05,0.0,0.338,22.94,-48.25,122.26,-18.37,-55.02,112.5,-12.22,-26.98,114.87,-18.11,24.35,64.34,-22.06,30.15,44.56,-25.4,29.36,63.81,15.09,-42.96,115.14,-12.5,-60.52,102.08,-6.5,-27.26,107.85,-26.91,19.5,71.99,-17.0,30.0,50.33,-33.09,30.0,71.99,-0.099,1.0,-0.5268,1.0,-1.0,0.2484,1.0,0.6621,-1.0,-1.0,-1.0,1.0,1.0,1.0,0.0775,-1.0,1.0,1.0,0.065,0.0,0.006,0.026,0.006,0.006,0.013,0.019,0.006,0.143,0.0,0.013,0.006,0.006,0.006,0.013,0.013,0.026,0.3988,-1.1796,0.9388,-0.3482,-1.2947,0.7762,-0.2393,-0.8084,0.7655,-0.293,0.0936,-0.0767,-0.408,0.1657,-0.4142,-0.4188,0.1565,-0.1135,0.1454,-0.2658,-0.1344,0.2641,-0.2539,0.0023,0.2779,-0.3173,0.2116,-0.3074,-0.126,-0.2064,0.2687,0.0001,-0.2505,-0.3029,0.0442,0.2227,1.8925,-0.1237,0.0161,-0.0366,-0.0386,0.2849,1.0,-0.2841,1.0,-1.0,0.2018,1.0,0.1089,-0.9051,-1.0,-1.0,1.0,1.0,1.0,0.1796,-1.0,1.0,1.0,0.0,0.0,0.0,0.0,0.0,0.0,0.0,0.0,0.0,0.3333,0.0,0.3333,0.0,0
2.32,run,20.27,0.82,-6.87,-3.32,-14.14,0.0,0.05,0.0,0.338,22.32,-48.78,121.38,-16.96,-56.25,111.18,-10.81,-28.21,115.05,-19.69,23.12,64.6,-20.74,30.15,44.38,-26.89,29.36,65.21,13.59,-41.46,113.64,-11.0,-62.02,103.58,-5.0,-25.76,106.35,-28.41,18.0,73.49,-15.5,30.0,51.83,-34.59,30.0,73.49,-0.1704,1.0,-0.534,1.0,-1.0,0.8541,0.9948,0.9231,-1.0,-1.0,-1.0,1.0,1.0,1.0,-0.0588,-1.0,1.0,1.0,0.0,0.006,0.019,0.013,0.019,0.013,0.019,0.006,0.013,0.163,0.0,0.026,0.019,0.006,0.006,0.026,0.013,0.033,0.3988,-1.1919,0.9173,-0.3221,-1.3177,0.7578,-0.2148,-0.833,0.7762,-0.3175,0.0721,-0.0813,-0.385,0.1657,-0.4249,-0.4418,0.1565,-0.0905,0.1018,-0.2319,-0.1744,0.2824,-0.2637,-0.0672,0.2863,-0.3139,0.1883,-0.307,-0.1685,-0.1617,0.2741,0.0,-0.2155,-0.2981,0.031,0.242,1.9256,-0.1451,0.0041,0.0082,-0.1784,-0.099,1.0,-0.5268,1.0,-1.0,0.2484,1.0,0.6621,-1.0,-1.0,-1.0,1.0,1.0,1.0,0.0775,-1.0,1.0,1.0,0.0,0.0,0.0,0.0,0.0,0.0,0.0,0.0,0.0,0.3333,0.0,0.3333,0.0,0
2.36,run,19.6,1.63,-12.71,21.36,-35.21,0.0,0.05,0.0,0.338,21.53,-48.96,118.74,-15.47,-57.22,109.78,-9.4,-28.92,115.05,-21.18,21.71,65.13,-19.25,30.06,44.47,-28.3,29.36,66.53,12.09,-39.96,112.14,-9.5,-63.52,105.08,-3.5,-24.26,104.85,-29.91,16.5,74.99,-14.0,30.0,50.33,-35.0,28.5,74.99,0.1591,1.0,-0.601,1.0,-1.0,1.0,0.5139,1.0,-1.0,-1.0,-1.0,1.0,1.0,1.0,-0.5217,-1.0,0.5698,1.0,0.0,0.006,0.019,0.013,0.019,0.013,0.019,0.006,0.013,0.163,0.0,0.026,0.019,0.006,0.006,0.026,0.013,0.033,0.3881,-1.2011,0.902,-0.2976,-1.3392,0.7348,-0.1902,-0.8544,0.7793,-0.3451,0.0506,-0.0767,-0.362,0.1657,-0.428,-0.4679,0.1565,-0.066,0.0309,-0.1969,-0.1796,0.2898,-0.2652,-0.1334,0.2925,-0.3003,0.1433,-0.3185,-0.1986,-0.0959,0.2782,0.0,-0.1623,-0.3065,0.0217,0.2615,1.8841,-0.1464,-0.1199,-0.0579,-0.2468,-0.1704,1.0,-0.534,1.0,-1.0,0.8541,0.9948,0.9231,-1.0,-1.0,-1.0,1.0,1.0,1.0,-0.0588,-1.0,1.0,1.0,0.0,0.0,0.0,0.0,0.0,0.0,0.0,0.0,0.0,0.3333,0.0,0.3333,0.0,0
2.4,run,18.68,1.48,-24.19,-3.45,-39.07,0.0,0.05,0.0,0.338,20.21,-48.96,118.39,-13.97,-58.89,108.37,-8.0,-29.27,114.35,-22.94,20.3,66.09,-17.75,30.15,45.0,-29.79,29.27,67.85,13.59,-38.46,110.64,-8.0,-65.02,106.58,-5.0,-22.76,103.35,-31.41,15.0,76.49,-12.5,30.0,48.83,-35.0,27.0,76.49,1.0,1.0,-1.0,1.0,-1.0,1.0,-0.2634,0.1747,-1.0,-1.0,-1.0,1.0,1.0,1.0,-0.4582,-1.0,0.863,1.0,0.0,0.006,0.019,0.013,0.019,0.013,0.019,0.006,0.013,0.163,0.0,0.026,0.019,0.006,0.006,0.026,0.013,0.033,0.3743,-1.2042,0.856,-0.2715,-1.356,0.7102,-0.1657,-0.8667,0.7793,-0.3712,0.0261,-0.0675,-0.3359,0.1641,-0.4264,-0.4924,0.1565,-0.043,-0.03,-0.1493,-0.2979,0.3004,-0.2488,-0.1852,0.2966,-0.2561,0.1003,-0.3205,-0.2308,-0.0327,0.2923,-0.0057,-0.1079,-0.3064,0.0152,0.2691,1.825,-0.0756,-0.2218,0.3729,-0.6146,0.1591,1.0,-0.601,1.0,-1.0,1.0,0.5139,1.0,-1.0,-1.0,-1.0,1.0,1.0,1.0,-0.5217,-1.0,0.5698,1.0,0.0,0.0,0.0,0.0,0.0,0.0,0.0,0.0,0.0,0.3333,0.0,0.3333,0.0,0
2.44,run,18.81,1.21,0.15,-8.35,-37.42,0.0,0.05,0.0,0.338,18.63,-48.43,116.89,-12.57,-60.38,107.14,-6.68,-29.36,113.55,-24.35,18.9,67.15,-16.35,30.15,46.14,-31.46,29.0,69.08,15.09,-36.96,109.14,-6.5,-66.52,108.08,-6.5,-21.26,101.85,-32.91,13.5,77.99,-11.0,30.0,47.33,-35.0,25.5,77.99,0.9842,1.0,-1.0,0.027,-1.0,1.0,-0.1874,1.0,-1.0,-1.0,-1.0,0.9484,1.0,1.0,-1.0,-1.0,-0.2675,1.0,0.0,0.039,0.019,0.013,0.019,0.0,0.019,0.0,0.052,0.071,0.0,0.058,0.006,0.006,0.006,0.0,0.0,0.058,0.3513,-1.2042,0.8498,-0.2454,-1.3852,0.6857,-0.1411,-0.8728,0.767,-0.4019,0.0015,-0.0506,-0.3099,0.1657,-0.4172,-0.5185,0.1549,-0.0199,-0.1076,-0.1045,-0.2316,0.3084,-0.2839,-0.222,0.3,-0.2024,0.024,-0.3399,-0.254,0.0406,0.3028,0.0018,-0.0409,-0.3126,0.0048,0.275,1.7451,-0.0886,-0.4222,-0.0601,-0.6818,1.0,1.0,-1.0,1.0,-1.0,1.0,-0.2634,0.1747,-1.0,-1.0,-1.0,1.0,1.0,1.0,-0.4582,-1.0,0.863,1.0,0.0,0.0,0.0,0.0,0.0,0.0,0.0,0.0,0.0,0.3333,0.0,0.3333,0.0,0
2.48,run,18.87,0.93,1.15,-9.11,-11.2,0.0,0.05,0.0,0.338,17.05,-47.37,115.22,-10.9,-62.05,106.0,-5.45,-29.0,112.24,-26.19,17.23,68.82,-14.68,30.15,47.2,-32.87,28.12,70.84,16.59,-35.46,107.64,-8.0,-68.02,109.58,-8.0,-19.76,100.35,-34.41,12.0,79.49,-9.5,30.0,45.83,-35.0,24.0,79.49,1.0,1.0,0.3046,-1.0,-1.0,1.0,-1.0,1.0,-1.0,-1.0,-1.0,1.0,1.0,1.0,-1.0,-1.0,-1.0,1.0,0.0,0.039,0.019,0.013,0.019,0.0,0.019,0.0,0.052,0.071,0.0,0.058,0.006,0.006,0.006,0.0,0.0,0.058,0.3237,-1.195,0.8237,-0.2209,-1.4113,0.6642,-0.1181,-0.8744,0.7532,-0.4264,-0.023,-0.0322,-0.2853,0.1657,-0.3973,-0.5476,0.1503,0.0015,-0.1787,-0.0387,-0.2598,0.3078,-0.2964,-0.2359,0.2962,-0.1474,-0.0349,-0.3298,-0.2697,0.0974,0.3039,0.0012,0.0461,-0.328,-0.0138,0.2729,1.7567,-0.1124,0.0027,-0.1457,-0.6532,0.9842,1.0,-1.0,0.027,-1.0,1.0,-0.1874,1.0,-1.0,-1.0,-1.0,0.9484,1.0,1.0,-1.0,-1.0,-0.2675,1.0,0.0,0.0,0.0,0.0,0.0,0.0,0.0,0.0,0.0,0.3333,0.0,0.3333,0.0,0
2.52,run,18.79,0.8,-3.4,-6.75,2.32,0.0,0.05,0.0,0.338,16.26,-46.14,113.82,-9.49,-63.37,105.38,-4.66,-28.12,111.09,-27.6,15.91,70.31,-13.27,30.15,47.72,-33.93,27.07,72.33,18.09,-33.96,106.14,-9.5,-69.52,111.08,-9.5,-18.26,98.85,-35.0,10.5,80.99,-8.0,30.0,44.33,-35.0,22.5,77.99,1.0,1.0,0.3981,-1.0,-1.0,1.0,-1.0,0.1995,-1.0,-1.0,-1.0,1.0,1.0,1.0,-1.0,-1.0,-1.0,-0.6521,0.0,0.039,0.019,0.013,0.019,0.0,0.019,0.0,0.052,0.071,0.0,0.058,0.006,0.006,0.006,0.0,0.0,0.058,0.2961,-1.1766,0.7946,-0.1917,-1.4404,0.6443,-0.0966,-0.8682,0.7302,-0.4587,-0.0522,-0.0031,-0.2562,0.1657,-0.3789,-0.5722,0.135,0.0322,-0.2121,0.0309,-0.2737,0.3073,-0.2993,-0.228,0.275,-0.0839,-0.0969,-0.3324,-0.2807,0.16,0.3046,0.0009,0.0903,-0.307,-0.058,0.2878,1.7617,-0.1362,0.0201,-0.159,-0.1955,1.0,1.0,0.3046,-1.0,-1.0,1.0,-1.0,1.0,-1.0,-1.0,-1.0,1.0,1.0,1.0,-1.0,-1.0,-1.0,1.0,0.0,0.0,0.0,0.0,0.0,0.0,0.0,0.0,0.0,0.3333,0.0,0.3333,0.0,0
2.56,run,18.47,1.2,-9.24,8.53,2.17,0.0,0.05,0.0,0.338,15.47,-44.74,112.41,-8.44,-64.78,105.21,-4.22,-27.16,109.86,-28.83,14.5,71.72,-11.95,30.15,47.99,-34.54,25.84,73.74,19.59,-32.46,107.64,-11.0,-71.02,112.58,-11.0,-19.76,97.35,-33.5,9.0,82.49,-6.5,30.0,42.83,-35.0,21.0,76.49,1.0,0.5747,1.0,-1.0,-1.0,1.0,-1.0,-0.0008,-1.0,0.0352,-1.0,1.0,0.0018,1.0,-1.0,-1.0,-1.0,-1.0,0.0,0.071,0.019,0.006,0.026,0.006,0.0,0.013,0.084,0.136,0.0,0.039,0.013,0.013,0.013,0.006,0.0,0.045,0.2823,-1.1551,0.7701,-0.1672,-1.4634,0.6335,-0.0828,-0.8529,0.7102,-0.4832,-0.0752,0.023,-0.2316,0.1657,-0.3697,-0.5906,0.1166,0.0583,-0.1995,0.101,-0.2823,0.3058,-0.2945,-0.1992,0.2435,-0.002,-0.1415,-0.3233,-0.2815,0.2084,0.3039,0.0006,0.0972,-0.2829,-0.1086,0.2978,1.7546,-0.1476,-0.0594,-0.1178,0.0405,1.0,1.0,0.3981,-1.0,-1.0,1.0,-1.0,0.1995,-1.0,-1.0,-1.0,1.0,1.0,1.0,-1.0,-1.0,-1.0,-0.6521,0.0,0.0,0.0,0.0,0.0,0.0,0.0,0.0,0.0,0.3333,0.0,0.3333,0.0,0
2.6,run,17.76,0.75,-17.88,-9.86,-4.68,0.0,0.05,0.0,0.338,15.29,-43.42,111.01,-7.65,-66.27,105.38,-4.13,-25.84,108.54,-30.06,12.92,73.21,-10.55,30.15,47.99,-34.8,24.43,74.97,21.09,-30.96,109.14,-12.5,-72.52,114.08,-12.5,-21.26,95.85,-32.0,7.5,83.99,-8.0,30.0,41.33,-35.0,19.5,74.99,1.0,-0.0442,1.0,-1.0,-1.0,1.0,-1.0,-1.0,-1.0,0.7176,-1.0,1.0,-1.0,1.0,-0.833,-1.0,-1.0,-1.0,0.0,0.071,0.019,0.006,0.026,0.006,0.0,0.013,0.084,0.136,0.0,0.039,0.013,0.013,0.013,0.006,0.0,0.045,0.2684,-1.1305,0.7455,-0.1488,-1.488,0.6305,-0.0752,-0.836,0.6888,-0.5047,-0.0997,0.0476,-0.2086,0.1657,-0.3651,-0.6013,0.0951,0.0828,-0.1918,0.1634,-0.2903,0.2836,-0.2989,-0.1511,0.1994,0.0623,-0.1802,-0.3075,-0.2898,0.2386,0.2997,0.0004,0.0854,-0.2386,-0.1572,0.3012,1.7263,-0.1127,-0.1612,0.1489,0.0379,1.0,0.5747,1.0,-1.0,-1.0,1.0,-1.0,-0.0008,-1.0,0.0352,-1.0,1.0,0.0018,1.0,-1.0,-1.0,-1.0,-1.0,0.0,0.0,0.0,0.0,0.0,0.0,0.0,0.0,0.0,0.3333,0.0,0.3333,0.0,0
2.64,run,17.23,0.68,-13.63,-2.28,-10.24,0.0,0.05,0.0,0.338,14.94,-42.01,109.86,-7.12,-67.68,105.91,-4.22,-24.43,107.23,-31.03,11.43,74.53,-9.14,30.15,47.02,-35.33,23.12,75.85,22.59,-32.46,110.64,-14.0,-74.02,115.58,-14.0,-22.76,94.35,-30.5,6.0,85.49,-9.5,30.0,42.83,-35.0,18.0,73.49,1.0,-1.0,1.0,-1.0,-1.0,1.0,-1.0,-0.4637,-1.0,1.0,-1.0,1.0,-1.0,1.0,-0.0857,-1.0,-1.0,-1.0,0.0,0.071,0.019,0.006,0.026,0.006,0.0,0.013,0.084,0.136,0.0,0.039,0.013,0.013,0.013,0.006,0.0,0.045,0.2654,-1.1075,0.721,-0.135,-1.514,0.6335,-0.0736,-0.813,0.6657,-0.5262,-0.1273,0.0736,-0.1841,0.1657,-0.3651,-0.6059,0.0706,0.1043,-0.1457,0.1998,-0.2943,0.2498,-0.306,-0.0944,0.1453,0.129,-0.2115,-0.2949,-0.3053,0.2638,0.3008,0.0003,0.0598,-0.1841,-0.2011,0.2905,1.6643,-0.1519,-0.3122,-0.1721,-0.0818,1.0,-0.0442,1.0,-1.0,-1.0,1.0,-1.0,-1.0,-1.0,0.7176,-1.0,1.0,-1.0,1.0,-0.833,-1.0,-1.0,-1.0,0.0,0.0,0.0,0.0,0.0,0.0,0.0,0.0,0.0,0.3333,0.0,0.3333,0.0,0
2.68,run,16.78,0.48,-11.06,-7.29,-11.24,0.0,0.05,0.0,0.338,15.38,-40.78,109.07,-6.94,-69.08,106.96,-4.92,-23.12,106.0,-31.73,9.93,75.85,-8.09,30.15,45.97,-35.07,21.8,76.64,24.09,-33.96,112.14,-15.5,-75.52,117.08,-15.5,-24.26,92.85,-29.0,4.5,86.99,-11.0,30.0,44.33,-35.0,16.5,71.99,1.0,-1.0,1.0,-1.0,-1.0,1.0,-1.0,-1.0,-1.0,1.0,-1.0,1.0,-1.0,1.0,-0.1197,-1.0,-1.0,-1.0,0.026,0.091,0.019,0.0,0.019,0.013,0.013,0.0,0.123,0.104,0.0,0.065,0.006,0.006,0.013,0.0,0.0,0.019,0.2592,-1.083,0.701,-0.1258,-1.5386,0.6427,-0.0752,-0.7885,0.6427,-0.543,-0.1534,0.0966,-0.1595,0.1657,-0.382,-0.6151,0.0476,0.1197,-0.125,0.2321,-0.281,0.2094,-0.3064,-0.0315,0.0959,0.1825,-0.2345,-0.2699,-0.3117,0.2711,0.3028,0.0002,-0.0215,-0.1634,-0.2272,0.261,1.6181,-0.1585,-0.2378,-0.0398,-0.1788,1.0,-1.0,1.0,-1.0,-1.0,1.0,-1.0,-0.4637,-1.0,1.0,-1.0,1.0,-1.0,1.0,-0.0857,-1.0,-1.0,-1.0,0.0,0.0,0.0,0.0,0.0,0.0,0.0,0.0,0.0,0.3333,0.0,0.3333,0.0,0
2.72,run,16.25,0.29,-13.34,-7.35,-2.71,0.0,0.05,0.0,0.338,16.0,-39.38,108.46,-6.94,-70.49,108.19,-5.62,-22.24,104.59,-32.17,8.53,77.26,-7.29,30.15,45.0,-35.16,20.39,77.08,25.59,-35.46,113.64,-17.0,-77.02,118.58,-17.0,-25.76,91.35,-27.5,3.0,88.49,-12.5,30.0,45.83,-35.0,15.0,70.49,1.0,-1.0,1.0,-1.0,-1.0,1.0,-1.0,-1.0,-1.0,1.0,-1.0,1.0,-1.0,1.0,0.9889,-1.0,-1.0,-1.0,0.026,0.091,0.019,0.0,0.019,0.013,0.013,0.0,0.123,0.104,0.0,0.065,0.006,0.006,0.013,0.0,0.0,0.019,0.2669,-1.0615,0.6872,-0.1227,-1.5631,0.6611,-0.0874,-0.7655,0.6213,-0.5553,-0.1795,0.1197,-0.1411,0.1657,-0.4004,-0.6105,0.0245,0.1335,-0.0587,0.2432,-0.2486,0.1581,-0.3068,0.0472,0.021,0.2143,-0.2449,-0.2351,-0.3163,0.2763,0.2812,0.0001,-0.0843,-0.0971,-0.2456,0.2346,1.5788,-0.1762,-0.193,-0.1272,-0.1962,1.0,-1.0,1.0,-1.0,-1.0,1.0,-1.0,-1.0,-1.0,1.0,-1.0,1.0,-1.0,1.0,-0.1197,-1.0,-1.0,-1.0,0.0,0.0,0.0,0.0,0.0,0.0,0.0,0.0,0.0,0.3333,0.0,0.3333,0.0,0
2.76,run,15.77,0.41,-11.46,1.42,2.06,0.0,0.05,0.0,0.338,17.05,-38.14,108.37,-7.12,-71.98,109.6,-7.21,-21.71,103.36,-32.17,7.21,78.66,-6.86,30.15,44.38,-35.16,19.07,77.17,27.09,-36.96,115.14,-18.5,-78.52,120.08,-18.5,-27.26,89.85,-26.0,1.5,89.99,-14.0,30.0,47.33,-35.0,13.5,68.99,1.0,-1.0,1.0,-1.0,-1.0,1.0,-1.0,-1.0,-1.0,1.0,-1.0,1.0,-1.0,1.0,0.8908,-1.0,-1.0,-1.0,0.026,0.091,0.019,0.0,0.019,0.013,0.013,0.0,0.123,0.104,0.0,0.065,0.006,0.006,0.013,0.0,0.0,0.019,0.2777,-1.037,0.6765,-0.1227,-1.5877,0.6826,-0.0997,-0.7501,0.5967,-0.563,-0.204,0.1442,-0.1273,0.1657,-0.4172,-0.6121,0.0,0.1411,-0.0006,0.2628,-0.2145,0.1107,-0.3073,0.114,-0.0316,0.2078,-0.264,-0.1935,-0.3139,0.2859,0.2489,0.0001,-0.1226,-0.0738,-0.2644,0.1932,1.5327,-0.1925,-0.2329,-0.1284,-0.0473,1.0,-1.0,1.0,-1.0,-1.0,1.0,-1.0,-1.0,-1.0,1.0,-1.0,1.0,-1.0,1.0,0.9889,-1.0,-1.0,-1.0,0.0,0.0,0.0,0.0,0.0,0.0,0.0,0.0,0.0,0.3333,0.0,0.3333,0.0,0
2.8,run,15.03,0.42,-18.52,-1.1,11.39,0.0,0.05,0.0,0.338,18.19,-37.0,108.37,-8.44,-73.3,111.01,-8.53,-21.45,102.04,-32.26,5.8,80.16,-6.68,30.15,44.03,-35.16,17.67,77.08,28.59,-38.46,116.64,-20.0,-80.0,121.58,-20.0,-28.76,88.35,-24.5,0.0,91.49,-15.5,30.0,48.83,-35.0,12.0,67.49,1.0,-1.0,1.0,-1.0,-1.0,1.0,-1.0,-1.0,-1.0,1.0,-1.0,1.0,-1.0,1.0,1.0,-1.0,-1.0,-1.0,0.052,0.071,0.0,0.019,0.026,0.006,0.019,0.0,0.163,0.0,0.0,0.045,0.013,0.013,0.006,0.006,0.006,0.006,0.2961,-1.0155,0.675,-0.1258,-1.6137,0.7072,-0.1273,-0.7409,0.5752,-0.563,-0.227,0.1687,-0.1197,0.1657,-0.428,-0.6121,-0.023,0.1427,0.0682,0.264,-0.1559,0.066,-0.3124,0.1713,-0.1251,0.1798,-0.2649,-0.1354,-0.3055,0.2917,0.2028,0.0001,-0.1259,-0.0516,-0.2709,0.1409,1.491,-0.1816,-0.2,0.0247,0.036,1.0,-1.0,1.0,-1.0,-1.0,1.0,-1.0,-1.0,-1.0,1.0,-1.0,1.0,-1.0,1.0,0.8908,-1.0,-1.0,-1.0,0.0,0.0,0.0,0.0,0.0,0.0,0.0,0.0,0.0,0.3333,0.0,0.3333,0.0,0
2.84,run,14.15,0.88,-21.7,10.37,8.71,0.0,0.05,0.0,0.338,19.6,-36.3,108.72,-9.76,-74.79,112.5,-9.93,-21.62,100.72,-31.9,4.31,81.56,-7.03,30.15,44.03,-35.16,16.26,76.29,30.09,-39.96,118.14,-21.5,-80.0,123.08,-21.5,-30.26,86.85,-23.0,-1.5,92.99,-17.0,30.0,50.33,-35.0,10.5,65.99,1.0,-1.0,1.0,-1.0,-1.0,1.0,-1.0,-1.0,-1.0,1.0,-1.0,1.0,-1.0,1.0,1.0,-1.0,-1.0,-1.0,0.052,0.071,0.0,0.019,0.026,0.006,0.019,0.0,0.163,0.0,0.0,0.045,0.013,0.013,0.006,0.006,0.006,0.006,0.316,-0.9956,0.675,-0.1488,-1.6368,0.7317,-0.1503,-0.7363,0.5522,-0.5645,-0.2516,0.1948,-0.1166,0.1657,-0.4341,-0.6121,-0.0476,0.1411,0.1226,0.2596,-0.1091,-0.0401,-0.305,0.212,-0.1739,0.1431,-0.2717,-0.1005,-0.306,0.302,0.1535,0.0001,-0.1111,-0.0361,-0.2817,0.0929,1.4263,-0.181,-0.3232,-0.0191,0.1988,1.0,-1.0,1.0,-1.0,-1.0,1.0,-1.0,-1.0,-1.0,1.0,-1.0,1.0,-1.0,1.0,1.0,-1.0,-1.0,-1.0,0.0,0.0,0.0,0.0,0.0,0.0,0.0,0.0,0.0,0.3333,0.0,0.3333,0.0,0
2.88,run,13.27,1.18,-25.92,8.29,11.39,0.0,0.05,0.0,0.338,21.01,-35.77,109.6,-11.07,-76.2,113.91,-11.34,-22.15,99.4,-31.03,2.9,83.06,-7.73,29.79,44.38,-35.07,14.85,75.15,31.59,-41.46,119.64,-23.0,-78.5,124.58,-23.0,-31.76,85.35,-21.5,-3.0,94.49,-18.5,30.0,51.83,-35.0,9.0,64.49,1.0,-1.0,1.0,-1.0,-0.3064,1.0,-1.0,-1.0,-1.0,1.0,-1.0,1.0,-1.0,1.0,1.0,-1.0,-1.0,-1.0,0.052,0.071,0.0,0.019,0.026,0.006,0.019,0.0,0.163,0.0,0.0,0.045,0.013,0.013,0.006,0.006,0.006,0.006,0.3405,-0.9833,0.6811,-0.1718,-1.6628,0.7578,-0.1749,-0.7394,0.5292,-0.5584,-0.2777,0.2194,-0.1227,0.1657,-0.4341,-0.6121,-0.0721,0.1273,0.1778,0.2278,-0.0534,-0.1143,-0.3112,0.2462,-0.2137,0.0887,-0.2765,-0.0474,-0.3119,0.3034,0.0844,0.0,-0.0778,-0.0253,-0.2892,0.0133,1.3497,-0.1411,-0.3788,0.181,0.1521,1.0,-1.0,1.0,-1.0,-1.0,1.0,-1.0,-1.0,-1.0,1.0,-1.0,1.0,-1.0,1.0,1.0,-1.0,-1.0,-1.0,0.0,0.0,0.0,0.0,0.0,0.0,0.0,0.0,0.0,0.3333,0.0,0.3333,0.0,0
2.92,run,12.72,1.16,-14.3,0.65,11.53,0.0,0.05,0.0,0.338,22.32,-35.6,110.65,-12.57,-77.43,115.31,-12.83,-23.12,98.09,-29.79,1.49,84.38,-8.61,29.79,45.53,-34.89,13.54,73.92,33.09,-42.96,121.14,-24.5,-77.0,123.08,-24.5,-33.26,83.85,-20.0,-4.5,95.99,-20.0,30.0,53.33,-35.0,7.5,62.99,1.0,-1.0,1.0,-1.0,0.6958,0.5165,-1.0,-1.0,-1.0,1.0,-1.0,1.0,-1.0,1.0,1.0,-1.0,-1.0,-1.0,0.065,0.026,0.019,0.019,0.013,0.013,0.013,0.006,0.195,0.0,0.0,0.058,0.026,0.006,0.019,0.0,0.013,0.006,0.3651,-0.9741,0.6964,-0.1948,-1.6874,0.7823,-0.1994,-0.7486,0.5062,-0.543,-0.3022,0.2454,-0.135,0.1595,-0.428,-0.6105,-0.0966,0.1074,0.2165,0.194,0.0202,-0.1663,-0.3099,0.2644,-0.2417,0.0276,-0.2798,0.0244,-0.3104,0.3102,0.0131,-0.023,-0.0314,-0.012,-0.2945,-0.0655,1.2725,-0.1151,-0.4523,0.1448,0.1988,1.0,-1.0,1.0,-1.0,-0.3064,1.0,-1.0,-1.0,-1.0,1.0,-1.0,1.0,-1.0,1.0,1.0,-1.0,-1.0,-1.0,0.0,0.0,0.0,0.0,0.0,0.0,0.0,0.0,0.0,0.3333,0.0,0.3333,0.0,0
2.96,run,12.12,1.33,-14.98,4.19,13.3,0.0,0.05,0.0,0.338,23.73,-35.6,111.62,-13.97,-78.4,116.72,-14.24,-24.17,96.77,-28.48,0.09,85.78,-9.84,29.71,46.32,-34.8,12.22,72.51,34.59,-44.46,122.64,-26.0,-75.5,121.58,-26.0,-34.76,82.35,-18.5,-6.0,97.49,-21.5,30.0,54.83,-34.54,6.0,61.49,1.0,-1.0,1.0,-1.0,0.3229,-0.953,-1.0,-1.0,-1.0,1.0,-1.0,1.0,-1.0,1.0,1.0,-0.9868,-1.0,-1.0,0.065,0.026,0.019,0.019,0.013,0.013,0.013,0.006,0.195,0.0,0.0,0.058,0.026,0.006,0.019,0.0,0.013,0.006,0.3881,-0.971,0.7148,-0.2209,-1.7089,0.8069,-0.2255,-0.7655,0.4832,-0.5216,-0.3267,0.2684,-0.1503,0.1595,-0.408,-0.6075,-0.1197,0.0859,0.2379,0.1473,0.0832,-0.2143,-0.2975,0.2771,-0.267,-0.044,-0.2822,0.0976,-0.3094,0.3035,-0.0484,-0.0161,0.0528,0.0031,-0.2925,-0.1264,1.2249,-0.1163,-0.2497,0.0113,0.2012,1.0,-1.0,1.0,-1.0,0.6958,0.5165,-1.0,-1.0,-1.0,1.0,-1.0,1.0,-1.0,1.0,1.0,-1.0,-1.0,-1.0,0.0,0.0,0.0,0.0,0.0,0.0,0.0,0.0,0.0,0.3333,0.0,0.3333,0.0,0
3.0,run,11.34,1.63,-21.04,7.11,13.62,0.0,0.05,0.0,0.338,25.22,-35.77,113.2,-15.38,-79.1,118.12,-15.64,-25.4,95.54,-27.07,-1.14,87.19,-11.16,29.62,47.55,-34.8,11.07,71.19,35.0,-45.96,124.14,-27.5,-74.0,120.08,-27.5,-36.26,80.85,-17.0,-7.5,98.99,-23.0,30.0,56.33,-33.04,4.5,59.99,1.0,-1.0,1.0,-1.0,0.9196,-1.0,-1.0,-0.3398,-1.0,1.0,-1.0,1.0,-1.0,1.0,1.0,0.4731,-1.0,-1.0,0.065,0.026,0.019,0.019,0.013,0.013,0.013,0.006,0.195,0.0,0.0,0.058,0.026,0.006,0.019,0.0,0.013,0.006,0.4126,-0.971,0.7317,-0.2454,-1.7257,0.8314,-0.25,-0.7839,0.4602,-0.4985,-0.3513,0.293,-0.1718,0.158,-0.3942,-0.6059,-0.1427,0.0614,0.2585,0.1031,0.1215,-0.242,-0.2715,0.286,-0.2789,-0.0998,-0.2838,0.1546,-0.3085,0.3044,-0.1144,-0.017,0.0887,0.0079,-0.291,-0.1805,1.1727,-0.1014,-0.2615,0.0732,0.2321,1.0,-1.0,1.0,-1.0,0.3229,-0.953,-1.0,-1.0,-1.0,1.0,-1.0,1.0,-1.0,1.0,1.0,-0.9868,-1.0,-1.0,0.0,0.0,0.0,0.0,0.0,0.0,0.0,0.0,0.0,0.3333,0.0,0.3333,0.0,0
3.04,run,10.95,1.9,-9.47,7.13,13.54,0.0,0.05,0.0,0.338,26.63,-36.56,114.61,-16.79,-79.54,119.44,-17.05,-26.63,94.22,-25.66,-2.46,88.59,-12.39,29.53,48.87,-34.54,9.84,69.79,35.0,-47.46,125.64,-29.0,-72.5,118.58,-29.0,-34.76,79.35,-15.5,-9.0,100.49,-24.5,30.0,57.83,-31.54,3.0,58.49,1.0,-1.0,1.0,-1.0,1.0,-1.0,-1.0,-0.0409,-1.0,1.0,-1.0,1.0,-1.0,1.0,0.3711,1.0,-0.5042,-1.0,0.058,0.0,0.019,0.013,0.0,0.006,0.013,0.045,0.273,0.006,0.0,0.039,0.045,0.026,0.104,0.013,0.013,0.013,0.4387,-0.9741,0.7593,-0.27,-1.738,0.856,-0.2746,-0.8053,0.4387,-0.474,-0.3728,0.3175,-0.1948,0.1565,-0.3728,-0.6059,-0.1626,0.0383,0.2788,0.0607,0.1886,-0.2614,-0.2361,0.2922,-0.2873,-0.1504,-0.2792,0.2003,-0.2965,0.3051,-0.1664,-0.0177,0.1426,0.0056,-0.2785,-0.2126,1.1041,-0.0752,-0.3672,0.1241,0.2377,1.0,-1.0,1.0,-1.0,0.9196,-1.0,-1.0,-0.3398,-1.0,1.0,-1.0,1.0,-1.0,1.0,1.0,0.4731,-1.0,-1.0,0.0,0.0,0.0,0.0,0.0,0.0,0.0,0.0,0.0,0.3333,0.0,0.3333,0.0,0
3.08,run,11.24,2.13,10.47,6.61,13.64,0.0,0.05,0.0,0.338,28.12,-37.71,116.02,-18.19,-79.54,120.41,-18.37,-27.95,92.81,-24.7,-3.96,90.18,-13.62,29.44,50.36,-33.49,8.35,68.38,35.0,-48.96,127.14,-30.5,-71.0,117.08,-30.5,-35.86,77.85,-14.0,-10.5,101.99,-26.0,30.0,59.33,-30.04,1.5,56.99,1.0,-1.0,1.0,-1.0,1.0,-1.0,-1.0,-0.1974,-1.0,1.0,-1.0,1.0,-1.0,1.0,0.362,1.0,0.4284,-1.0,0.058,0.0,0.019,0.013,0.0,0.006,0.013,0.045,0.273,0.006,0.0,0.039,0.045,0.026,0.104,0.013,0.013,0.013,0.4633,-0.9879,0.7839,-0.2945,-1.7457,0.879,-0.2991,-0.8268,0.4157,-0.4495,-0.3958,0.3421,-0.2163,0.1549,-0.3497,-0.6013,-0.1841,0.0138,0.2869,-0.0092,0.2238,-0.2748,-0.1939,0.2906,-0.2929,-0.1856,-0.2815,0.2319,-0.2936,0.3054,-0.1967,-0.0181,0.1859,0.0211,-0.2752,-0.2406,1.0703,-0.0519,-0.1652,0.1245,0.2364,1.0,-1.0,1.0,-1.0,1.0,-1.0,-1.0,-0.0409,-1.0,1.0,-1.0,1.0,-1.0,1.0,0.3711,1.0,-0.5042,-1.0,0.0,0.0,0.0,0.0,0.0,0.0,0.0,0.0,0.0,0.3333,0.0,0.3333,0.0,0
3.12,run,11.43,1.92,5.54,-3.5,-1.82,0.0,0.05,0.0,0.338,29.53,-39.02,117.33,-19.6,-79.54,121.03,-19.78,-29.27,91.58,-23.12,-5.19,91.76,-14.77,29.44,51.68,-32.52,7.03,67.41,35.0,-50.46,128.64,-32.0,-69.5,115.58,-32.0,-37.36,76.35,-12.5,-12.0,103.49,-27.5,30.0,60.83,-28.54,3.0,55.49,1.0,-1.0,1.0,-1.0,1.0,-1.0,-1.0,-0.2284,-1.0,1.0,-0.5343,1.0,-1.0,1.0,0.6411,1.0,1.0,-1.0,0.058,0.0,0.019,0.013,0.0,0.006,0.013,0.045,0.273,0.006,0.0,0.039,0.045,0.026,0.104,0.013,0.013,0.013,0.4893,-1.0078,0.8084,-0.3191,-1.7457,0.8958,-0.3221,-0.8498,0.3912,-0.4326,-0.4218,0.3697,-0.2378,0.1534,-0.3237,-0.5829,-0.2102,-0.0107,0.2989,-0.0814,0.249,-0.2846,-0.1358,0.2669,-0.2915,-0.2164,-0.2893,0.2258,-0.3036,0.3176,-0.2185,-0.0184,0.2282,0.084,-0.2907,-0.2607,1.0957,-0.0316,0.1827,0.1153,0.2381,1.0,-1.0,1.0,-1.0,1.0,-1.0,-1.0,-0.1974,-1.0,1.0,-1.0,1.0,-1.0,1.0,0.362,1.0,0.4284,-1.0,0.0,0.0,0.0,0.0,0.0,0.0,0.0,0.0,0.0,0.3333,0.0,0.3333,0.0,0
3.16,run,11.67,2.05,4.73,6.6,-15.64,0.0,0.05,0.0,0.338,30.94,-40.34,118.74,-21.01,-78.84,121.29,-21.18,-30.67,90.26,-21.62,-6.5,93.25,-16.35,29.44,53.0,-31.2,5.62,65.65,35.0,-51.96,130.14,-33.5,-68.0,114.08,-33.5,-35.86,74.85,-11.0,-10.5,104.99,-29.0,30.0,59.33,-27.04,4.5,53.99,1.0,-0.9884,1.0,-1.0,1.0,-1.0,-1.0,1.0,-1.0,0.2625,1.0,1.0,-1.0,1.0,-0.3898,1.0,1.0,-1.0,0.065,0.0,0.033,0.019,0.013,0.006,0.019,0.045,0.279,0.026,0.013,0.013,0.078,0.019,0.091,0.006,0.019,0.013,0.5139,-1.0308,0.8314,-0.3436,-1.7457,0.9066,-0.3467,-0.8728,0.3697,-0.405,-0.4433,0.3973,-0.2577,0.1534,-0.3007,-0.566,-0.2332,-0.0276,0.3012,-0.1432,0.2605,-0.2913,-0.095,0.2271,-0.2961,-0.2378,-0.283,0.2616,-0.293,0.3258,-0.2277,-0.0129,0.246,0.1221,-0.2898,-0.2458,1.1126,-0.0505,0.0967,-0.0611,-0.0318,1.0,-1.0,1.0,-1.0,1.0,-1.0,-1.0,-0.2284,-1.0,1.0,-0.5343,1.0,-1.0,1.0,0.6411,1.0,1.0,-1.0,0.0,0.0,0.0,0.0,0.0,0.0,0.0,0.0,0.0,0.3333,0.0,0.3333,0.0,0
3.2,run,11.9,2.09,3.05,1.65,-16.49,0.0,0.05,0.0,0.338,32.17,-42.01,120.15,-22.5,-77.43,121.29,-22.59,-32.17,88.77,-20.13,-7.38,94.83,-18.11,29.44,54.49,-29.71,4.48,64.16,35.0,-50.46,131.64,-35.0,-66.5,112.58,-35.0,-34.36,73.35,-12.5,-9.0,106.49,-30.5,30.0,57.83,-25.54,6.0,52.49,1.0,0.2312,1.0,-1.0,1.0,-1.0,-1.0,0.5021,-1.0,-1.0,1.0,1.0,-1.0,1.0,-1.0,1.0,1.0,-1.0,0.065,0.0,0.033,0.019,0.013,0.006,0.019,0.045,0.279,0.026,0.013,0.013,0.078,0.019,0.091,0.006,0.019,0.013,0.5384,-1.0538,0.856,-0.3682,-1.7334,0.9112,-0.3712,-0.8974,0.3467,-0.3789,-0.4663,0.4234,-0.2853,0.1534,-0.2777,-0.543,-0.2577,-0.0583,0.3027,-0.1863,0.2742,-0.2957,-0.0206,0.1762,-0.2991,-0.2582,-0.2842,0.2807,-0.2912,0.3256,-0.2627,-0.009,0.2583,0.1715,-0.2947,-0.2868,1.1335,-0.0388,0.0825,0.1152,-0.2729,1.0,-0.9884,1.0,-1.0,1.0,-1.0,-1.0,1.0,-1.0,0.2625,1.0,1.0,-1.0,1.0,-0.3898,1.0,1.0,-1.0,0.0,0.0,0.0,0.0,0.0,0.0,0.0,0.0,0.0,0.3333,0.0,0.3333,0.0,0
3.24,run,12.19,2.13,6.05,-0.13,-12.29,0.0,0.05,0.0,0.338,33.22,-43.51,121.46,-23.91,-76.29,120.76,-23.91,-33.57,87.36,-18.72,-8.7,96.33,-19.69,29.44,55.9,-28.56,3.78,62.67,35.0,-48.96,133.14,-35.0,-65.0,111.08,-35.0,-32.86,71.85,-14.0,-7.5,107.99,-32.0,30.0,56.33,-24.04,7.5,50.99,1.0,0.0514,1.0,-1.0,1.0,-1.0,-1.0,1.0,-1.0,-1.0,1.0,1.0,-1.0,1.0,-1.0,1.0,1.0,-1.0,0.065,0.0,0.033,0.019,0.013,0.006,0.019,0.045,0.279,0.026,0.013,0.013,0.078,0.019,0.091,0.006,0.019,0.013,0.5599,-1.083,0.8805,-0.3942,-1.7089,0.9112,-0.3958,-0.9235,0.3206,-0.3528,-0.4817,0.451,-0.316,0.1534,-0.2516,-0.517,-0.2777,-0.0844,0.2884,-0.2343,0.2794,-0.2999,0.073,0.1233,-0.2968,-0.2737,-0.2918,0.2894,-0.2585,0.3263,-0.2932,-0.0063,0.2737,0.213,-0.2773,-0.2937,1.1533,-0.0351,0.0533,0.0287,-0.2877,1.0,0.2312,1.0,-1.0,1.0,-1.0,-1.0,0.5021,-1.0,-1.0,1.0,1.0,-1.0,1.0,-1.0,1.0,1.0,-1.0,0.0,0.0,0.0,0.0,0.0,0.0,0.0,0.0,0.0,0.3333,0.0,0.3333,0.0,0
3.28,run,12.7,2.52,11.59,7.36,-2.49,0.0,0.05,0.0,0.338,34.1,-45.0,122.87,-25.4,-74.71,119.79,-25.22,-34.54,85.87,-17.31,-9.58,97.73,-21.36,29.44,57.13,-27.16,3.25,61.26,33.5,-47.46,134.64,-35.0,-63.5,109.58,-35.0,-31.36,70.35,-15.5,-6.0,109.49,-33.5,30.0,54.83,-22.54,9.0,49.49,0.9304,0.1949,1.0,-1.0,1.0,-1.0,-1.0,1.0,-0.4102,-1.0,1.0,1.0,-1.0,1.0,-1.0,1.0,1.0,-1.0,0.006,0.0,0.039,0.013,0.0,0.013,0.045,0.019,0.319,0.013,0.006,0.006,0.006,0.026,0.033,0.0,0.013,0.006,0.5783,-1.1091,0.9035,-0.4188,-1.6889,0.902,-0.4188,-0.948,0.2961,-0.3283,-0.5047,0.4771,-0.3436,0.1534,-0.227,-0.497,-0.2899,-0.1104,0.2703,-0.2609,0.2811,-0.3011,0.1252,0.0521,-0.2932,-0.2828,-0.2955,0.2938,-0.2664,0.3253,-0.3078,-0.0044,0.2828,0.2232,-0.2397,-0.3025,1.1788,-0.0321,0.1055,-0.0022,-0.2145,1.0,0.0514,1.0,-1.0,1.0,-1.0,-1.0,1.0,-1.0,-1.0,1.0,1.0,-1.0,1.0,-1.0,1.0,1.0,-1.0,0.0,0.0,0.0,0.0,0.0,0.0,0.0,0.0,0.0,0.3333,0.0,0.3333,0.0,0
3.32,run,12.93,3.16,5.09,12.19,-8.81,0.0,0.05,0.0,0.338,34.63,-46.41,124.28,-26.81,-73.3,118.74,-26.54,-35.24,84.2,-16.08,-10.2,99.14,-22.85,29.44,58.01,-25.84,3.08,59.85,33.91,-45.96,136.14,-35.0,-62.0,108.08,-35.0,-29.86,71.85,-17.0,-4.5,110.99,-35.0,30.0,53.33,-21.04,10.5,47.99,0.969,0.5476,1.0,-1.0,0.8973,-1.0,-1.0,0.0657,0.6112,-1.0,1.0,1.0,-1.0,1.0,-1.0,1.0,1.0,-1.0,0.006,0.0,0.039,0.013,0.0,0.013,0.045,0.019,0.319,0.013,0.006,0.006,0.006,0.026,0.033,0.0,0.013,0.006,0.5937,-1.1351,0.9281,-0.4449,-1.6613,0.8851,-0.4418,-0.9649,0.27,-0.3037,-0.52,0.5016,-0.3728,0.1534,-0.2056,-0.4725,-0.2991,-0.135,0.2467,-0.2804,0.2888,-0.3086,0.1912,-0.0268,-0.2916,-0.2612,-0.3046,0.2977,-0.244,0.3198,-0.3248,-0.0031,0.2785,0.2483,-0.2023,-0.3038,1.2232,0.0026,0.2023,0.1284,-0.0434,0.9304,0.1949,1.0,-1.0,1.0,-1.0,-1.0,1.0,-0.4102,-1.0,1.0,1.0,-1.0,1.0,-1.0,1.0,1.0,-1.0,0.0,0.0,0.0,0.0,0.0,0.0,0.0,0.0,0.0,0.3333,0.0,0.3333,0.0,0
3.36,run,12.77,3.92,-6.32,14.09,-23.01,0.0,0.05,0.0,0.338,34.45,-47.46,125.68,-28.21,-71.98,117.25,-27.77,-35.51,82.53,-15.12,-10.2,100.55,-24.61,29.44,58.54,-24.52,3.16,58.45,35.0,-44.46,137.64,-35.0,-60.5,106.58,-35.0,-28.36,73.35,-18.5,-3.0,109.49,-35.0,30.0,51.83,-19.54,12.0,46.49,1.0,1.0,1.0,-1.0,1.0,-1.0,-1.0,0.3123,1.0,-1.0,1.0,0.1198,-1.0,1.0,-1.0,1.0,1.0,-1.0,0.006,0.0,0.039,0.013,0.0,0.013,0.045,0.019,0.319,0.013,0.006,0.006,0.006,0.026,0.033,0.0,0.013,0.006,0.6029,-1.1597,0.9526,-0.4694,-1.6368,0.8667,-0.4648,-0.9771,0.2408,-0.2823,-0.5308,0.5262,-0.3988,0.1534,-0.1902,-0.4495,-0.3022,-0.1595,0.2072,-0.2884,0.2943,-0.3081,0.2259,-0.0878,-0.2904,-0.2289,-0.3226,0.289,-0.2111,0.3159,-0.3252,-0.0022,0.2525,0.2601,-0.1531,-0.3047,1.2433,0.058,0.0889,0.2127,-0.1537,0.969,0.5476,1.0,-1.0,0.8973,-1.0,-1.0,0.0657,0.6112,-1.0,1.0,1.0,-1.0,1.0,-1.0,1.0,1.0,-1.0,0.0,0.0,0.0,0.0,0.0,0.0,0.0,0.0,0.0,0.3333,0.0,0.3333,0.0,0
3.4,run,12.36,4.88,-11.21,21.68,-36.09,0.0,0.05,0.0,0.338,34.28,-48.16,126.91,-29.62,-70.49,115.93,-29.18,-35.33,81.04,-14.5,-10.11,102.04,-25.31,29.44,58.62,-22.94,3.69,56.95,35.0,-42.96,139.14,-35.0,-59.0,105.08,-35.0,-26.86,74.85,-20.0,-1.5,107.99,-35.0,30.0,50.33,-18.04,13.5,44.99,1.0,1.0,1.0,-1.0,1.0,-0.442,-1.0,0.4238,1.0,-1.0,1.0,-1.0,-1.0,1.0,-1.0,1.0,1.0,-1.0,0.013,0.0,0.084,0.013,0.013,0.013,0.045,0.0,0.143,0.006,0.013,0.013,0.026,0.033,0.006,0.006,0.013,0.013,0.5998,-1.1781,0.9771,-0.4939,-1.6137,0.8406,-0.4863,-0.9817,0.2117,-0.2654,-0.5308,0.5507,-0.4295,0.1534,-0.181,-0.4264,-0.3007,-0.1841,0.1336,-0.2707,0.2978,-0.3075,0.2442,-0.159,-0.2836,-0.1774,-0.3348,0.2654,-0.1478,0.3129,-0.3424,-0.0015,0.2112,0.2681,-0.1015,-0.3051,1.2293,0.1241,-0.1103,0.2459,-0.4016,1.0,1.0,1.0,-1.0,1.0,-1.0,-1.0,0.3123,1.0,-1.0,1.0,0.1198,-1.0,1.0,-1.0,1.0,1.0,-1.0,0.0,0.0,0.0,0.0,0.0,0.0,0.0,0.0,0.0,0.3333,0.0,0.3333,0.0,0
3.44,run,11.7,5.79,-16.31,22.65,-36.0,0.0,0.05,0.0,0.338,34.63,-48.69,128.06,-31.03,-69.17,114.52,-30.85,-34.98,79.54,-14.15,-9.67,103.36,-27.25,29.36,58.45,-21.36,4.57,55.55,35.0,-41.46,140.64,-35.0,-57.5,106.58,-33.5,-28.36,76.35,-21.5,0.0,106.49,-35.0,28.5,48.83,-16.54,15.0,43.49,1.0,1.0,1.0,-1.0,1.0,0.6851,-0.557,-0.6821,1.0,-1.0,1.0,-1.0,-1.0,0.617,-1.0,1.0,1.0,-1.0,0.013,0.0,0.084,0.013,0.013,0.013,0.045,0.0,0.143,0.006,0.013,0.013,0.026,0.033,0.006,0.006,0.013,0.013,0.5967,-1.1904,0.9986,-0.5185,-1.5877,0.8176,-0.5108,-0.9787,0.1856,-0.2546,-0.5292,0.5768,-0.4418,0.1534,-0.1795,-0.3988,-0.2915,-0.2102,0.082,-0.2356,0.2892,-0.3075,0.269,-0.1978,-0.2908,-0.1127,-0.3324,0.2261,-0.0977,0.3171,-0.2858,-0.0011,0.1536,0.2915,-0.0364,-0.3116,1.1937,0.2082,-0.1956,0.3784,-0.6299,1.0,1.0,1.0,-1.0,1.0,-0.442,-1.0,0.4238,1.0,-1.0,1.0,-1.0,-1.0,1.0,-1.0,1.0,1.0,-1.0,0.0,0.0,0.0,0.0,0.0,0.0,0.0,0.0,0.0,0.3333,0.0,0.3333,0.0,0
3.48,run,10.92,6.76,-20.08,24.6,-21.75,0.0,0.05,0.0,0.338,34.8,-48.87,129.11,-32.34,-67.76,113.03,-32.17,-34.19,78.31,-14.15,-8.88,104.77,-28.74,29.27,57.57,-20.39,5.71,53.7,35.0,-39.96,142.14,-35.0,-56.0,108.08,-32.0,-29.86,77.85,-23.0,1.5,104.99,-35.0,27.0,47.33,-15.04,16.5,41.99,1.0,1.0,1.0,-1.0,1.0,0.6806,0.3269,-1.0,1.0,-1.0,1.0,-1.0,-1.0,-0.5545,-1.0,1.0,1.0,-1.0,0.013,0.0,0.084,0.013,0.013,0.013,0.045,0.0,0.143,0.006,0.013,0.013,0.026,0.033,0.006,0.006,0.013,0.013,0.6029,-1.1996,1.0186,-0.543,-1.5647,0.7931,-0.54,-0.9725,0.1595,-0.2485,-0.5216,0.5998,-0.4755,0.1519,-0.1825,-0.3712,-0.2761,-0.2347,0.0804,-0.1994,0.2771,-0.3072,0.2745,-0.2304,-0.3128,-0.0559,-0.3304,0.1813,-0.0396,0.3082,-0.3265,-0.0065,0.096,0.3075,0.032,-0.3101,1.1358,0.2879,-0.2847,0.3952,-0.6283,1.0,1.0,1.0,-1.0,1.0,0.6851,-0.557,-0.6821,1.0,-1.0,1.0,-1.0,-1.0,0.617,-1.0,1.0,1.0,-1.0,0.0,0.0,0.0,0.0,0.0,0.0,0.0,0.0,0.0,0.3333,0.0,0.3333,0.0,0
3.52,run,10.43,7.33,-13.24,14.58,-3.71,0.0,0.05,0.0,0.338,34.8,-48.96,130.08,-33.4,-66.36,111.62,-33.22,-32.87,77.34,-14.59,-7.38,105.82,-29.97,28.56,56.69,-18.81,6.59,52.47,33.5,-38.46,143.64,-33.5,-54.5,106.58,-30.5,-31.36,79.35,-24.5,3.0,103.49,-35.0,25.5,45.83,-13.54,18.0,40.49,0.8441,1.0,1.0,0.1257,1.0,-0.0348,1.0,-1.0,1.0,-1.0,1.0,-1.0,-1.0,-0.6379,-1.0,0.6584,1.0,-1.0,0.0,0.078,0.221,0.0,0.006,0.013,0.019,0.006,0.078,0.006,0.019,0.0,0.006,0.006,0.0,0.0,0.019,0.013,0.6059,-1.2026,1.037,-0.566,-1.5401,0.767,-0.563,-0.9587,0.1381,-0.2485,-0.5077,0.6243,-0.5016,0.1503,-0.1979,-0.3543,-0.2562,-0.2669,0.0678,-0.1511,0.2631,-0.3014,0.2843,-0.2592,-0.3053,0.0127,-0.3119,0.1269,0.0241,0.3079,-0.3264,-0.0103,0.0096,0.2786,0.0972,-0.338,1.0679,0.3721,-0.3505,0.4293,-0.3795,1.0,1.0,1.0,-1.0,1.0,0.6806,0.3269,-1.0,1.0,-1.0,1.0,-1.0,-1.0,-0.5545,-1.0,1.0,1.0,-1.0,0.0,0.0,0.0,0.0,0.0,0.0,0.0,0.0,0.0,0.3333,0.0,0.3333,0.0,0
3.56,run,10.1,7.87,-7.69,11.61,0.0,0.0,0.05,0.0,0.338,35.07,-48.96,131.13,-34.1,-64.86,110.21,-33.84,-31.64,76.64,-16.0,-6.06,106.61,-31.46,27.77,55.28,-17.31,8.17,51.15,32.0,-36.96,145.14,-32.0,-53.0,105.08,-29.0,-32.86,80.85,-26.0,4.5,101.99,-35.0,24.0,44.33,-12.04,19.5,38.99,-0.1975,1.0,1.0,1.0,1.0,0.2717,1.0,-1.0,1.0,-1.0,1.0,-1.0,-1.0,-0.8962,-1.0,0.2583,1.0,-1.0,0.0,0.078,0.221,0.0,0.006,0.013,0.019,0.006,0.078,0.006,0.019,0.0,0.006,0.006,0.0,0.0,0.019,0.013,0.6059,-1.2042,1.0538,-0.5844,-1.5156,0.7424,-0.5814,-0.9357,0.1212,-0.2562,-0.4817,0.6427,-0.5231,0.1381,-0.2132,-0.3267,-0.2408,-0.2884,0.0474,-0.1115,0.2474,-0.28,0.291,-0.2734,-0.2827,0.0951,-0.2816,0.0601,0.1146,0.2845,-0.309,-0.0532,-0.0507,0.2985,0.1256,-0.3171,1.0248,0.4221,-0.231,0.2544,-0.0647,0.8441,1.0,1.0,0.1257,1.0,-0.0348,1.0,-1.0,1.0,-1.0,1.0,-1.0,-1.0,-0.6379,-1.0,0.6584,1.0,-1.0,0.0,0.0,0.0,0.0,0.0,0.0,0.0,0.0,0.0,0.3333,0.0,0.3333,0.0,0
3.6,run,9.54,8.48,-9.98,12.62,-5.68,0.0,0.05,0.0,0.338,34.19,-48.34,132.01,-34.54,-63.37,108.81,-34.28,-30.85,76.29,-16.79,-4.92,107.05,-32.78,26.72,53.88,-16.0,9.58,49.66,30.5,-35.46,143.64,-30.5,-51.5,103.58,-27.5,-34.36,82.35,-27.5,6.0,100.49,-35.0,22.5,42.83,-13.54,21.0,37.49,-1.0,1.0,-0.1739,1.0,1.0,-0.3901,1.0,-1.0,1.0,-1.0,1.0,-1.0,-1.0,-1.0,-1.0,-1.0,1.0,-1.0,0.0,0.078,0.221,0.0,0.006,0.013,0.019,0.006,0.078,0.006,0.019,0.0,0.006,0.006,0.0,0.0,0.019,0.013,0.6105,-1.2042,1.0723,-0.5967,-1.4895,0.7179,-0.5921,-0.9143,0.1089,-0.2807,-0.4587,0.6565,-0.5492,0.1243,-0.2378,-0.3007,-0.2132,-0.3114,0.0505,-0.0781,0.2423,-0.242,0.3015,-0.2835,-0.2382,0.1472,-0.2431,-0.05,0.1666,0.2509,-0.3141,-0.089,-0.1276,0.3068,0.1915,-0.3083,0.9963,0.4692,-0.1343,0.2026,0.0,-0.1975,1.0,1.0,1.0,1.0,0.2717,1.0,-1.0,1.0,-1.0,1.0,-1.0,-1.0,-0.8962,-1.0,0.2583,1.0,-1.0,0.0,0.0,0.0,0.0,0.0,0.0,0.0,0.0,0.0,0.3333,0.0,0.3333,0.0,0
3.64,run,8.79,8.78,-14.3,4.48,-14.31,0.0,0.05,0.0,0.676,33.22,-47.02,132.8,-34.72,-61.88,107.31,-34.37,-30.23,76.2,-18.37,-3.52,107.23,-33.84,25.4,52.38,-14.68,11.07,48.16,29.0,-33.96,142.14,-29.0,-50.0,102.08,-26.0,-35.86,83.85,-29.0,7.5,98.99,-35.0,21.0,41.33,-15.04,22.5,35.99,-1.0,1.0,-0.6421,1.0,1.0,-0.3087,1.0,-1.0,1.0,-1.0,1.0,-1.0,-1.0,-1.0,-1.0,-1.0,1.0,-0.7211,0.026,0.149,0.676,0.013,0.013,0.013,0.0,0.006,0.0,0.0,0.058,0.006,0.0,0.0,0.0,0.013,0.039,0.0,0.5952,-1.1934,1.0876,-0.6044,-1.4634,0.6934,-0.5998,-0.9004,0.1028,-0.2945,-0.4387,0.6642,-0.5722,0.1058,-0.2623,-0.2777,-0.1887,-0.3375,-0.0222,-0.0144,0.2271,-0.1982,0.3089,-0.2905,-0.1955,0.1548,-0.1932,-0.0868,0.1914,0.2044,-0.3062,-0.1314,-0.1814,0.301,0.2261,-0.3136,0.9478,0.5227,-0.1741,0.2203,-0.0991,-1.0,1.0,-0.1739,1.0,1.0,-0.3901,1.0,-1.0,1.0,-1.0,1.0,-1.0,-1.0,-1.0,-1.0,-1.0,1.0,-1.0,0.0,0.0,0.0,0.0,0.0,0.0,0.0,0.0,0.0,0.3333,0.0,0.3333,0.0,0
3.68,run,8.41,8.92,-6.26,1.37,-9.42,0.0,0.05,0.0,0.676,32.26,-45.7,133.42,-34.63,-60.64,106.0,-34.28,-30.06,76.2,-19.51,-2.55,106.79,-34.54,24.17,51.15,-13.89,12.13,46.85,27.5,-32.46,140.64,-27.5,-48.5,100.58,-24.5,-37.36,85.35,-30.5,9.0,97.49,-35.0,19.5,39.83,-16.54,24.0,37.49,-1.0,0.6971,-0.9915,1.0,1.0,-0.2621,1.0,-1.0,1.0,-1.0,0.7076,-1.0,-1.0,-1.0,-1.0,-1.0,1.0,0.3268,0.026,0.149,0.676,0.013,0.013,0.013,0.0,0.006,0.0,0.0,0.058,0.006,0.0,0.0,0.0,0.013,0.039,0.0,0.5783,-1.1704,1.1014,-0.6075,-1.4373,0.6673,-0.6013,-0.8897,0.1012,-0.3221,-0.4142,0.6673,-0.5906,0.0828,-0.2884,-0.2546,-0.1626,-0.3636,-0.0733,0.0688,0.2063,-0.1492,0.3056,-0.2927,-0.1421,0.1451,-0.1405,-0.1554,0.218,0.1536,-0.2774,-0.1708,-0.2163,0.2896,0.2476,-0.3089,0.8816,0.5489,-0.2495,0.0781,-0.2498,-1.0,1.0,-0.6421,1.0,1.0,-0.3087,1.0,-1.0,1.0,-1.0,1.0,-1.0,-1.0,-1.0,-1.0,-1.0,1.0,-0.7211,0.0,0.0,0.0,0.0,0.0,0.0,0.0,0.0,0.0,0.3333,0.0,0.3333,0.0,0
3.72,run,7.81,8.9,-12.04,-1.39,-8.68,0.0,0.05,0.0,0.676,30.85,-44.38,133.95,-34.19,-59.15,104.5,-33.66,-30.23,76.9,-20.83,-1.41,106.08,-34.89,22.85,49.75,-13.27,13.45,45.44,26.0,-30.96,139.14,-26.0,-47.0,99.08,-23.0,-38.86,86.85,-32.0,7.5,95.99,-35.0,18.0,38.33,-18.04,25.5,38.99,-1.0,-0.0051,-1.0,1.0,1.0,-0.5025,1.0,-1.0,1.0,-1.0,-0.0363,-1.0,-1.0,-1.0,-1.0,-1.0,1.0,1.0,0.026,0.149,0.676,0.013,0.013,0.013,0.0,0.006,0.0,0.0,0.058,0.006,0.0,0.0,0.0,0.013,0.039,0.0,0.5614,-1.1474,1.1121,-0.6059,-1.4159,0.6443,-0.5998,-0.8866,0.1012,-0.3421,-0.3973,0.6596,-0.6029,0.0614,-0.3099,-0.2408,-0.1442,-0.3866,-0.1216,0.144,0.1891,-0.0981,0.3033,-0.3007,-0.0931,0.1144,-0.0984,-0.1918,0.2229,0.0756,-0.2453,-0.209,-0.2409,0.2602,0.25,-0.312,0.8488,0.5606,-0.1092,0.0239,-0.1644,-1.0,0.6971,-0.9915,1.0,1.0,-0.2621,1.0,-1.0,1.0,-1.0,0.7076,-1.0,-1.0,-1.0,-1.0,-1.0,1.0,0.3268,0.0,0.0,0.0,0.0,0.0,0.0,0.0,0.0,0.0,0.3333,0.0,0.3333,0.0,0
3.76,run,7.37,9.16,-10.0,5.94,-10.65,0.0,0.05,0.0,1.371,29.62,-43.07,134.21,-32.87,-57.92,103.1,-32.78,-30.94,77.96,-22.24,-0.26,105.12,-34.98,21.62,48.43,-12.92,14.77,43.95,24.5,-32.46,137.64,-24.5,-45.5,97.58,-21.5,-40.36,88.35,-33.5,6.0,94.49,-35.0,16.5,36.83,-19.54,27.0,40.49,-1.0,-0.6452,-1.0,1.0,1.0,0.0249,1.0,-1.0,1.0,-1.0,-1.0,-1.0,-1.0,-1.0,-0.7829,-1.0,1.0,1.0,0.033,0.24,1.371,0.019,0.006,0.013,0.026,0.013,0.013,0.039,0.123,0.0,0.0,0.0,0.006,0.006,0.078,0.0,0.5369,-1.1244,1.1213,-0.5983,-1.3898,0.6182,-0.589,-0.8897,0.1135,-0.3651,-0.3774,0.6473,-0.609,0.0383,-0.3344,-0.2301,-0.1212,-0.4111,-0.1765,0.1865,0.1667,-0.0401,0.3095,-0.3076,-0.0252,0.0686,-0.0231,-0.22,0.2303,0.0072,-0.1946,-0.232,-0.26,0.2221,0.2607,-0.3098,0.7961,0.5592,-0.2101,-0.0243,-0.1514,-1.0,-0.0051,-1.0,1.0,1.0,-0.5025,1.0,-1.0,1.0,-1.0,-0.0363,-1.0,-1.0,-1.0,-1.0,-1.0,1.0,1.0,0.0,0.0,0.0,0.0,0.0,0.0,0.0,0.0,0.0,0.3333,0.0,0.3333,0.0,0
3.8,run,7.26,9.38,-2.37,4.52,-9.59,0.0,0.05,0.0,1.371,28.3,-41.92,134.21,-31.55,-56.34,101.69,-31.55,-31.73,79.28,-23.38,0.97,104.06,-34.98,20.57,47.11,-12.83,16.0,42.63,23.0,-33.96,136.14,-23.0,-44.0,96.08,-20.0,-41.86,89.85,-35.0,4.5,92.99,-35.0,15.0,38.33,-21.04,28.5,41.99,-1.0,-0.285,-1.0,1.0,1.0,0.2108,1.0,-1.0,1.0,-1.0,-1.0,-1.0,-1.0,-1.0,0.4039,-1.0,1.0,1.0,0.033,0.24,1.371,0.019,0.006,0.013,0.026,0.013,0.013,0.039,0.123,0.0,0.0,0.0,0.006,0.006,0.078,0.0,0.5154,-1.1014,1.1259,-0.5752,-1.3683,0.5937,-0.5737,-0.902,0.1319,-0.3896,-0.3574,0.6305,-0.6105,0.0169,-0.3574,-0.224,-0.0982,-0.4372,-0.2042,0.217,0.1339,0.0584,0.2973,-0.3075,0.04,0.002,0.0529,-0.2462,0.2361,-0.0583,-0.142,-0.2431,-0.2684,0.1785,0.2689,-0.3148,0.7579,0.582,-0.1745,0.1036,-0.1858,-1.0,-0.6452,-1.0,1.0,1.0,0.0249,1.0,-1.0,1.0,-1.0,-1.0,-1.0,-1.0,-1.0,-0.7829,-1.0,1.0,1.0,0.0,0.0,0.0,0.0,0.0,0.0,0.0,0.0,0.0,0.3333,0.0,0.3333,0.0,0
3.84,run,6.87,9.58,-10.1,6.55,-16.68,0.0,0.05,0.0,1.371,26.98,-40.87,134.3,-30.23,-54.93,100.28,-30.23,-32.96,80.33,-24.7,1.93,102.74,-34.98,19.07,46.14,-13.27,17.31,41.48,21.5,-35.46,134.64,-21.5,-42.5,94.58,-18.5,-43.36,91.35,-35.0,3.0,91.49,-35.0,13.5,39.83,-22.54,30.0,43.49,-1.0,-0.3253,-1.0,1.0,1.0,-0.6546,1.0,-1.0,1.0,-1.0,-1.0,-1.0,-1.0,-1.0,1.0,-1.0,1.0,1.0,0.033,0.24,1.371,0.019,0.006,0.013,0.026,0.013,0.013,0.039,0.123,0.0,0.0,0.0,0.006,0.006,0.078,0.0,0.4924,-1.0815,1.1259,-0.5522,-1.3407,0.5691,-0.5522,-0.9158,0.1549,-0.4096,-0.3359,0.6121,-0.6105,-0.0015,-0.3804,-0.2224,-0.0767,-0.4602,-0.2296,0.227,0.0938,0.1275,0.3121,-0.3077,0.1089,-0.0506,0.1237,-0.2474,0.2462,-0.1102,-0.0994,-0.2395,-0.2746,0.1308,0.2691,-0.307,0.7486,0.6011,-0.0413,0.0788,-0.1674,-1.0,-0.285,-1.0,1.0,1.0,0.2108,1.0,-1.0,1.0,-1.0,-1.0,-1.0,-1.0,-1.0,0.4039,-1.0,1.0,1.0,0.0,0.0,0.0,0.0,0.0,0.0,0.0,0.0,0.0,0.3333,0.0,0.3333,0.0,0
3.88,run,5.77,7.9,-27.21,-42.45,-15.42,0.0,0.05,0.0,1.371,25.66,-39.55,134.3,-28.83,-53.44,98.88,-28.65,-34.28,81.56,-26.19,2.81,100.72,-34.98,17.67,44.21,-14.15,18.63,40.61,20.0,-36.96,133.14,-20.0,-41.0,93.08,-17.0,-44.86,92.85,-35.0,1.5,89.99,-35.0,12.0,41.33,-24.04,30.0,44.99,-1.0,-0.764,-1.0,1.0,1.0,-0.3417,1.0,-1.0,1.0,-1.0,-1.0,-1.0,-1.0,-1.0,1.0,-1.0,1.0,1.0,0.058,0.221,1.313,0.006,0.006,0.019,0.013,0.013,0.006,0.039,0.149,0.0,0.0,0.019,0.0,0.0,0.149,0.0,0.4694,-1.063,1.1275,-0.5292,-1.3162,0.5446,-0.5292,-0.9373,0.1733,-0.4326,-0.3191,0.589,-0.6105,-0.0276,-0.3973,-0.2301,-0.0537,-0.4801,-0.2466,0.2276,0.0714,0.1751,0.3101,-0.307,0.1621,-0.1156,0.1553,-0.2591,0.2353,-0.163,-0.0696,-0.265,-0.2552,0.0629,0.2743,-0.2894,0.7143,0.6187,-0.1763,0.1143,-0.2912,-1.0,-0.3253,-1.0,1.0,1.0,-0.6546,1.0,-1.0,1.0,-1.0,-1.0,-1.0,-1.0,-1.0,1.0,-1.0,1.0,1.0,0.0,0.0,0.0,0.0,0.0,0.0,0.0,0.0,0.0,0.3333,0.0,0.3333,0.0,0
3.92,run,5.57,7.36,-5.29,-14.91,-19.35,0.0,0.05,0.0,1.371,24.26,-38.32,134.3,-27.25,-52.38,97.38,-27.25,-35.68,83.14,-27.51,3.16,99.49,-34.98,16.26,42.98,-15.21,19.86,40.08,18.5,-38.46,131.64,-18.5,-39.5,91.58,-15.5,-46.36,94.35,-35.0,0.0,88.49,-35.0,10.5,39.83,-25.54,28.5,46.49,-1.0,-1.0,-1.0,1.0,1.0,-1.0,1.0,-0.8204,1.0,-1.0,-0.9725,-1.0,-1.0,-1.0,-1.0,-1.0,-0.1022,1.0,0.058,0.221,1.313,0.006,0.006,0.019,0.013,0.013,0.006,0.039,0.149,0.0,0.0,0.019,0.0,0.0,0.149,0.0,0.4464,-1.04,1.1275,-0.5047,-1.2901,0.52,-0.5016,-0.9603,0.1948,-0.4587,-0.3037,0.5538,-0.6105,-0.0522,-0.431,-0.2454,-0.0307,-0.4955,-0.259,0.2457,0.05,0.2147,0.3149,-0.307,0.2171,-0.1673,0.1893,-0.2792,0.2223,-0.2465,-0.0487,-0.2776,-0.3053,-0.0135,0.2783,-0.2601,0.6182,0.4718,-0.4748,-0.741,-0.2692,-1.0,-0.764,-1.0,1.0,1.0,-0.3417,1.0,-1.0,1.0,-1.0,-1.0,-1.0,-1.0,-1.0,1.0,-1.0,1.0,1.0,0.0,0.0,0.0,0.0,0.0,0.0,0.0,0.0,0.0,0.3333,0.0,0.3333,0.0,0
3.96,run,5.54,7.42,2.59,-1.16,-24.63,0.0,0.05,0.0,1.371,22.94,-37.44,134.3,-26.02,-50.54,95.98,-25.84,-37.09,84.55,-28.92,3.25,97.91,-34.98,14.85,41.92,-16.61,21.09,40.08,17.0,-39.96,130.14,-17.0,-38.0,90.08,-14.0,-47.86,95.85,-35.0,-1.5,86.99,-35.0,9.0,41.33,-27.04,30.0,47.99,-1.0,-1.0,-1.0,1.0,1.0,-1.0,1.0,-1.0,1.0,-1.0,-1.0,-1.0,-1.0,0.0964,-0.224,-1.0,1.0,1.0,0.058,0.221,1.313,0.006,0.006,0.019,0.013,0.013,0.006,0.039,0.149,0.0,0.0,0.019,0.0,0.0,0.149,0.0,0.4218,-1.0186,1.1275,-0.4771,-1.2717,0.4939,-0.4771,-0.9848,0.2224,-0.4817,-0.2976,0.5323,-0.6105,-0.0767,-0.4525,-0.2638,-0.0092,-0.5047,-0.2738,0.2529,0.035,0.2544,0.2898,-0.3132,0.2445,-0.2096,0.2366,-0.2822,0.1787,-0.2535,-0.0341,-0.2868,-0.2947,-0.0789,0.2758,-0.2168,0.6013,0.4245,-0.0923,-0.2603,-0.3377,-1.0,-1.0,-1.0,1.0,1.0,-1.0,1.0,-0.8204,1.0,-1.0,-0.9725,-1.0,-1.0,-1.0,-1.0,-1.0,-0.1022,1.0,0.0,0.0,0.0,0.0,0.0,0.0,0.0,0.0,0.0,0.3333,0.0,0.3333,0.0,0
4.0,run,5.21,6.41,-5.17,-25.83,-22.5,0.0,0.05,0.0,1.371,21.53,-36.83,134.3,-24.52,-49.39,94.48,-24.43,-38.41,85.96,-30.5,3.25,96.5,-34.98,13.45,40.87,-18.02,22.41,40.08,15.5,-41.46,128.64,-15.5,-36.5,88.58,-12.5,-49.36,97.35,-35.0,-3.0,85.49,-35.0,7.5,42.83,-28.54,30.0,49.49,-1.0,-1.0,-1.0,1.0,0.8687,-1.0,1.0,-1.0,1.0,-1.0,-1.0,-1.0,-1.0,0.2693,0.4207,-1.0,1.0,1.0,0.058,0.143,0.435,0.026,0.006,0.019,0.019,0.019,0.033,0.026,0.058,0.0,0.0,0.019,0.0,0.0,0.208,0.065,0.3988,-1.0032,1.1275,-0.4556,-1.2395,0.4694,-0.4525,-1.0094,0.247,-0.5062,-0.2961,0.5047,-0.6105,-0.1012,-0.4709,-0.2884,0.0123,-0.5047,-0.2775,0.2343,0.0245,0.2582,0.323,-0.3108,0.2627,-0.2383,0.2572,-0.2891,0.1308,-0.2804,-0.0239,-0.2923,-0.2749,-0.1467,0.2732,-0.1518,0.5981,0.4302,0.0452,-0.0202,-0.4299,-1.0,-1.0,-1.0,1.0,1.0,-1.0,1.0,-1.0,1.0,-1.0,-1.0,-1.0,-1.0,0.0964,-0.224,-1.0,1.0,1.0,0.0,0.0,0.0,0.0,0.0,0.0,0.0,0.0,0.0,0.3333,0.0,0.3333,0.0,0
4.04,run,5.35,5.5,2.85,-20.16,-13.74,0.0,0.05,0.0,1.371,19.78,-36.74,134.3,-22.85,-47.46,92.81,-22.76,-40.25,87.63,-32.08,3.25,94.75,-34.89,11.87,40.17,-19.78,23.91,40.34,14.0,-42.96,127.14,-14.0,-35.0,87.08,-11.0,-47.86,98.85,-35.0,-4.5,83.99,-35.0,9.0,41.33,-30.04,28.5,50.99,-1.0,-1.0,-1.0,1.0,0.2423,-1.0,1.0,-0.1405,1.0,-1.0,-0.269,-1.0,-1.0,0.8905,-0.6729,-1.0,-0.3052,1.0,0.058,0.143,0.435,0.026,0.006,0.019,0.019,0.019,0.033,0.026,0.058,0.0,0.0,0.019,0.0,0.0,0.208,0.065,0.3743,-0.9925,1.1275,-0.4295,-1.2195,0.4433,-0.428,-1.0324,0.2715,-0.5338,-0.2961,0.4801,-0.6105,-0.1258,-0.4893,-0.3129,0.0353,-0.5047,-0.2863,0.2042,0.0171,0.2785,0.3009,-0.3153,0.2759,-0.2531,0.272,-0.3059,0.0916,-0.2883,-0.0167,-0.2966,-0.2614,-0.1947,0.2775,-0.1062,0.5694,0.3413,-0.0902,-0.4508,-0.3927,-1.0,-1.0,-1.0,1.0,0.8687,-1.0,1.0,-1.0,1.0,-1.0,-1.0,-1.0,-1.0,0.2693,0.4207,-1.0,1.0,1.0,0.0,0.0,0.0,0.0,0.0,0.0,0.0,0.0,0.0,0.3333,0.0,0.3333,0.0,0
4.08,run,5.69,5.01,9.58,-14.66,-13.01,0.0,0.05,0.0,1.371,18.54,-36.74,134.3,-21.36,-46.14,91.32,-21.36,-41.66,89.03,-33.13,2.81,93.25,-34.89,10.46,39.9,-21.18,25.14,41.13,12.5,-44.46,125.64,-12.5,-36.5,85.58,-9.5,-46.36,100.35,-35.0,-6.0,82.49,-35.0,10.5,42.83,-31.54,27.0,52.49,-1.0,-1.0,-1.0,1.0,-0.3738,-0.4016,1.0,-0.0034,1.0,-1.0,0.0058,-1.0,-1.0,1.0,-0.1341,-1.0,0.0761,1.0,0.058,0.143,0.435,0.026,0.006,0.019,0.019,0.019,0.033,0.026,0.058,0.0,0.0,0.019,0.0,0.0,0.208,0.065,0.3436,-0.991,1.1275,-0.4004,-1.1858,0.4142,-0.3988,-1.0646,0.3007,-0.5614,-0.2961,0.4495,-0.609,-0.1534,-0.5016,-0.3436,0.0614,-0.5001,-0.2954,0.1477,0.012,0.2852,0.3151,-0.311,0.2834,-0.2769,0.2807,-0.2996,0.0641,-0.2968,-0.0069,-0.2931,-0.221,-0.2313,0.275,-0.0601,0.5818,0.2626,0.0497,-0.3518,-0.2398,-1.0,-1.0,-1.0,1.0,0.2423,-1.0,1.0,-0.1405,1.0,-1.0,-0.269,-1.0,-1.0,0.8905,-0.6729,-1.0,-0.3052,1.0,0.0,0.0,0.0,0.0,0.0,0.0,0.0,0.0,0.0,0.3333,0.0,0.3333,0.0,0
4.12,run,5.71,4.32,3.13,-18.22,-15.08,0.0,0.05,0.0,1.371,17.14,-36.74,133.77,-19.95,-44.74,89.91,-19.95,-43.15,90.44,-34.01,1.49,91.93,-34.89,9.23,40.08,-22.5,26.1,42.28,11.0,-45.96,124.14,-11.0,-38.0,84.08,-8.0,-44.86,101.85,-35.0,-7.5,80.99,-35.0,12.0,44.33,-33.04,25.5,53.99,-1.0,-1.0,-1.0,1.0,-1.0,0.1887,1.0,0.1662,1.0,-1.0,0.0261,-1.0,-1.0,1.0,0.3463,-1.0,-0.2877,1.0,0.078,0.0,0.006,0.006,0.013,0.013,0.019,0.0,0.039,0.013,0.0,0.0,0.0,0.013,0.006,0.006,0.214,0.123,0.3221,-0.991,1.1275,-0.3743,-1.1628,0.3881,-0.3743,-1.0891,0.3252,-0.5798,-0.3037,0.4234,-0.609,-0.1779,-0.5062,-0.3682,0.0828,-0.4863,-0.2865,0.1034,0.0084,0.2964,0.306,-0.3145,0.2895,-0.2849,0.2876,-0.2781,0.0164,-0.3046,-0.0049,-0.2963,-0.1718,-0.253,0.2722,0.0092,0.6114,0.2197,0.1672,-0.2559,-0.227,-1.0,-1.0,-1.0,1.0,-0.3738,-0.4016,1.0,-0.0034,1.0,-1.0,0.0058,-1.0,-1.0,1.0,-0.1341,-1.0,0.0761,1.0,0.0,0.0,0.0,0.0,0.0,0.0,0.0,0.0,0.0,0.3333,0.0,0.3333,0.0,0
4.16,run,5.63,2.97,-1.85,-35.26,-12.07,0.0,0.05,0.0,1.371,15.64,-37.35,133.07,-18.46,-43.24,88.59,-18.54,-44.47,91.76,-34.54,0.26,90.44,-34.89,8.44,40.43,-23.91,26.72,43.59,9.5,-47.46,122.64,-9.5,-39.5,85.58,-6.5,-43.36,103.35,-35.0,-6.0,79.49,-33.5,13.5,45.83,-34.54,24.0,55.49,-1.0,-0.5068,-1.0,1.0,-1.0,1.0,1.0,0.6179,1.0,-1.0,0.5371,-1.0,-0.475,1.0,0.5565,-1.0,-1.0,1.0,0.078,0.0,0.006,0.006,0.013,0.013,0.019,0.0,0.039,0.013,0.0,0.0,0.0,0.013,0.006,0.006,0.214,0.123,0.2976,-0.991,1.1183,-0.3497,-1.1382,0.3636,-0.3497,-1.1152,0.3497,-0.5952,-0.3267,0.4004,-0.609,-0.1994,-0.5031,-0.3912,0.0997,-0.4663,-0.2932,0.0724,-0.0289,0.3002,0.3069,-0.3128,0.2953,-0.2979,0.294,-0.2526,-0.0754,-0.3001,-0.0034,-0.2885,-0.1087,-0.264,0.2543,0.0817,0.6133,0.1592,0.0546,-0.318,-0.2632,-1.0,-1.0,-1.0,1.0,-1.0,0.1887,1.0,0.1662,1.0,-1.0,0.0261,-1.0,-1.0,1.0,0.3463,-1.0,-0.2877,1.0,0.0,0.0,0.0,0.0,0.0,0.0,0.0,0.0,0.0,0.3333,0.0,0.3333,0.0,0
4.2,run,6.0,2.66,10.49,-12.97,-6.48,0.0,0.05,0.0,1.371,14.24,-38.32,132.01,-17.05,-41.92,87.1,-17.23,-45.35,93.16,-34.8,-0.97,88.95,-34.89,7.91,41.75,-25.22,27.16,44.91,8.0,-48.96,121.14,-8.0,-41.0,87.08,-5.0,-41.86,104.85,-35.0,-4.5,77.99,-32.0,15.0,47.33,-35.0,22.5,56.99,-1.0,-0.6395,-1.0,1.0,-1.0,0.3232,1.0,1.0,1.0,-1.0,1.0,-1.0,0.7486,1.0,0.62,-1.0,-1.0,1.0,0.078,0.0,0.006,0.006,0.013,0.013,0.019,0.0,0.039,0.013,0.0,0.0,0.0,0.013,0.006,0.006,0.214,0.123,0.2715,-1.0017,1.106,-0.3237,-1.1121,0.3405,-0.3252,-1.1382,0.3728,-0.6044,-0.3482,0.3743,-0.609,-0.2132,-0.497,-0.4157,0.1104,-0.4433,-0.3023,0.0107,-0.0659,0.3072,0.3119,-0.3046,0.2981,-0.2942,0.2915,-0.2111,-0.1327,-0.3072,-0.0024,-0.2534,-0.0532,-0.2762,0.218,0.1429,0.6065,0.0412,-0.0322,-0.6153,-0.2107,-1.0,-0.5068,-1.0,1.0,-1.0,1.0,1.0,0.6179,1.0,-1.0,0.5371,-1.0,-0.475,1.0,0.5565,-1.0,-1.0,1.0,0.0,0.0,0.0,0.0,0.0,0.0,0.0,0.0,0.0,0.3333,0.0,0.3333,0.0,0
4.24,run,6.01,2.85,4.78,3.54,10.43,0.0,0.05,0.0,1.371,12.48,-39.55,131.04,-15.64,-40.69,86.04,-15.91,-45.97,94.48,-34.98,-2.2,87.63,-34.45,7.73,42.8,-26.46,27.16,46.23,6.5,-47.46,119.64,-6.5,-42.5,88.58,-3.5,-40.36,106.35,-35.0,-3.0,76.49,-30.5,16.5,48.83,-35.0,21.0,58.49,-1.0,0.7113,-1.0,1.0,-1.0,1.0,1.0,0.4867,1.0,-1.0,1.0,-1.0,1.0,1.0,1.0,-1.0,-1.0,1.0,0.039,0.0,0.0,0.019,0.006,0.006,0.026,0.0,0.045,0.006,0.0,0.0,0.013,0.0,0.019,0.013,0.104,0.13,0.247,-1.0186,1.0876,-0.2991,-1.0891,0.3145,-0.3022,-1.1536,0.3973,-0.609,-0.3697,0.3482,-0.609,-0.2224,-0.474,-0.4387,0.1181,-0.4203,-0.3038,-0.0559,-0.1152,0.3072,0.3047,-0.3112,0.2951,-0.2635,0.2962,-0.165,-0.1736,-0.3129,-0.0017,-0.2119,0.0491,-0.2797,0.1814,0.1864,0.638,0.014,0.1831,-0.2264,-0.1131,-1.0,-0.6395,-1.0,1.0,-1.0,0.3232,1.0,1.0,1.0,-1.0,1.0,-1.0,0.7486,1.0,0.62,-1.0,-1.0,1.0,0.0,0.0,0.0,0.0,0.0,0.0,0.0,0.0,0.0,0.3333,0.0,0.3333,0.0,0
4.28,run,5.97,2.95,0.7,-0.26,5.51,0.0,0.05,0.0,1.371,11.07,-40.87,129.99,-14.41,-39.9,85.25,-14.5,-46.23,95.89,-34.98,-3.16,86.22,-33.49,8.0,44.21,-27.86,27.16,47.64,5.0,-45.96,118.14,-5.0,-44.0,87.08,-2.0,-38.86,107.85,-35.0,-1.5,74.99,-29.0,18.0,50.33,-35.0,19.5,59.99,-1.0,1.0,-1.0,1.0,-1.0,0.1845,1.0,0.7338,1.0,-1.0,1.0,-1.0,1.0,0.8733,1.0,-1.0,-0.969,1.0,0.039,0.0,0.0,0.019,0.006,0.006,0.026,0.0,0.045,0.006,0.0,0.0,0.013,0.0,0.019,0.013,0.104,0.13,0.2163,-1.04,1.0707,-0.2746,-1.0677,0.2961,-0.2792,-1.1643,0.4203,-0.6121,-0.3912,0.3252,-0.6013,-0.2255,-0.4556,-0.4602,0.1181,-0.3973,-0.3277,-0.1196,-0.1439,0.3071,0.2938,-0.2868,0.2928,-0.2247,0.2936,-0.127,-0.202,-0.3053,0.0276,-0.1598,0.1034,-0.2763,0.127,0.2167,0.6393,0.0312,0.0834,0.0618,0.182,-1.0,0.7113,-1.0,1.0,-1.0,1.0,1.0,0.4867,1.0,-1.0,1.0,-1.0,1.0,1.0,1.0,-1.0,-1.0,1.0,0.0,0.0,0.0,0.0,0.0,0.0,0.0,0.0,0.0,0.3333,0.0,0.3333,0.0,0
4.32,run,6.47,3.09,12.6,2.87,-3.1,0.0,0.05,0.0,1.371,9.49,-42.19,128.58,-12.92,-39.29,84.81,-13.18,-46.05,97.29,-34.98,-3.96,84.99,-32.52,8.61,45.62,-29.09,27.16,48.96,3.5,-44.46,116.64,-3.5,-45.5,88.58,-0.5,-37.36,109.35,-35.0,0.0,73.49,-27.5,19.5,51.83,-35.0,18.0,61.49,-1.0,1.0,-1.0,1.0,-1.0,0.8538,1.0,1.0,1.0,-1.0,1.0,-1.0,1.0,0.8963,1.0,-1.0,-1.0,1.0,0.039,0.0,0.0,0.019,0.006,0.006,0.026,0.0,0.045,0.006,0.0,0.0,0.013,0.0,0.019,0.013,0.104,0.13,0.1917,-1.063,1.0523,-0.2531,-1.0538,0.2823,-0.2546,-1.1689,0.4449,-0.6121,-0.408,0.3007,-0.5844,-0.2209,-0.431,-0.4847,0.1181,-0.3728,-0.322,-0.1706,-0.1702,0.296,0.2578,-0.2529,0.2976,-0.1747,0.2981,-0.0889,-0.2051,-0.3063,0.083,-0.0945,0.165,-0.286,0.0889,0.2443,0.6354,0.04,0.0121,-0.0045,0.0962,-1.0,1.0,-1.0,1.0,-1.0,0.1845,1.0,0.7338,1.0,-1.0,1.0,-1.0,1.0,0.8733,1.0,-1.0,-0.969,1.0,0.0,0.0,0.0,0.0,0.0,0.0,0.0,0.0,0.0,0.3333,0.0,0.3333,0.0,0
4.36,run,6.77,3.06,10.82,-2.53,-14.04,0.0,0.05,0.0,1.371,8.09,-43.42,127.18,-11.51,-38.94,84.73,-11.69,-45.7,98.7,-35.33,-4.31,83.67,-31.2,9.32,47.02,-30.5,26.46,50.36,2.0,-42.96,115.14,-2.0,-47.0,90.08,1.0,-35.86,110.85,-35.0,1.5,71.99,-26.0,18.0,53.33,-35.0,16.5,62.99,-1.0,1.0,-1.0,1.0,-1.0,0.6684,1.0,1.0,1.0,-1.0,0.7272,-1.0,1.0,0.636,1.0,-1.0,-0.3585,1.0,0.026,0.0,0.006,0.019,0.0,0.0,0.033,0.026,0.045,0.013,0.0,0.013,0.019,0.033,0.013,0.033,0.0,0.143,0.1641,-1.0861,1.0278,-0.227,-1.0431,0.2746,-0.2316,-1.1658,0.4694,-0.6121,-0.4218,0.2792,-0.5676,-0.2102,-0.4065,-0.5062,0.1181,-0.3497,-0.3284,-0.2052,-0.2107,0.3044,0.2205,-0.2056,0.2941,-0.1108,0.3002,-0.0622,-0.195,-0.2945,0.121,-0.0261,0.207,-0.2803,0.0622,0.2569,0.6793,0.0516,0.22,0.05,-0.0542,-1.0,1.0,-1.0,1.0,-1.0,0.8538,1.0,1.0,1.0,-1.0,1.0,-1.0,1.0,0.8963,1.0,-1.0,-1.0,1.0,0.0,0.0,0.0,0.0,0.0,0.0,0.0,0.0,0.0,0.3333,0.0,0.3333,0.0,0
4.4,run,6.86,3.33,1.39,8.23,-10.04,0.0,0.05,0.0,1.371,6.68,-44.38,125.77,-10.02,-38.94,85.08,-10.2,-44.65,100.11,-35.16,-4.39,82.18,-29.79,10.55,48.34,-31.9,25.14,51.77,0.5,-41.46,113.64,-0.5,-48.5,91.58,2.5,-34.36,112.35,-35.0,0.0,70.49,-24.5,16.5,54.83,-35.0,15.0,64.49,-1.0,1.0,-1.0,1.0,-1.0,1.0,1.0,1.0,1.0,-1.0,0.428,-0.8226,1.0,0.2982,0.376,-1.0,-0.2578,1.0,0.026,0.0,0.006,0.019,0.0,0.0,0.033,0.026,0.045,0.013,0.0,0.013,0.019,0.033,0.013,0.033,0.0,0.143,0.1396,-1.1075,1.0032,-0.2025,-1.037,0.273,-0.2056,-1.1597,0.4939,-0.6182,-0.428,0.2562,-0.5446,-0.1979,-0.382,-0.5308,0.1058,-0.3252,-0.3223,-0.2246,-0.24,0.3056,0.1775,-0.1497,0.3041,-0.0545,0.3026,-0.0667,-0.1596,-0.2929,0.1714,0.028,0.2374,-0.2887,-0.0027,0.2723,0.7056,0.0495,0.1888,-0.0442,-0.2451,-1.0,1.0,-1.0,1.0,-1.0,0.6684,1.0,1.0,1.0,-1.0,0.7272,-1.0,1.0,0.636,1.0,-1.0,-0.3585,1.0,0.0,0.0,0.0,0.0,0.0,0.0,0.0,0.0,0.0,0.3333,0.0,0.3333,0.0,0
4.44,run,7.26,3.52,11.09,5.33,-1.76,0.0,0.05,0.0,1.371,5.1,-45.09,124.37,-8.61,-39.29,85.78,-8.7,-43.51,101.43,-35.16,-4.39,80.77,-28.39,11.95,49.66,-33.05,24.08,53.26,-1.0,-39.96,112.14,1.0,-50.0,93.08,4.0,-32.86,113.85,-35.0,-1.5,68.99,-23.0,15.0,56.33,-35.0,13.5,65.99,-1.0,1.0,-1.0,1.0,-1.0,1.0,1.0,1.0,1.0,-1.0,-1.0,-0.5009,1.0,-0.2118,0.829,-1.0,0.2013,1.0,0.026,0.0,0.006,0.019,0.0,0.0,0.033,0.026,0.045,0.013,0.0,0.013,0.019,0.033,0.013,0.033,0.0,0.143,0.115,-1.1244,0.9787,-0.1764,-1.037,0.2792,-0.1795,-1.1413,0.5185,-0.6151,-0.4295,0.2301,-0.52,-0.1764,-0.359,-0.5553,0.0828,-0.3007,-0.3172,-0.2202,-0.2596,0.3112,0.1242,-0.0819,0.3102,0.0306,0.3034,-0.0352,-0.1175,-0.3023,0.2116,0.0997,0.252,-0.2937,-0.0877,0.2822,0.7132,0.0726,0.0243,0.1436,-0.1752,-1.0,1.0,-1.0,1.0,-1.0,1.0,1.0,1.0,1.0,-1.0,0.428,-0.8226,1.0,0.2982,0.376,-1.0,-0.2578,1.0,0.0,0.0,0.0,0.0,0.0,0.0,0.0,0.0,0.0,0.3333,0.0,0.3333,0.0,0
4.48,run,7.59,3.82,9.61,6.62,2.97,0.0,0.05,0.0,1.371,3.69,-45.62,123.05,-7.21,-40.17,86.92,-7.38,-42.19,102.83,-35.16,-3.87,79.45,-26.98,13.1,51.06,-33.84,22.59,54.76,-2.5,-38.46,110.64,2.5,-51.5,94.58,5.5,-31.36,115.35,-35.0,-3.0,70.49,-21.5,13.5,54.83,-35.0,12.0,67.49,-1.0,1.0,-1.0,1.0,-1.0,1.0,1.0,1.0,1.0,-1.0,-1.0,1.0,1.0,0.2633,-0.438,-1.0,0.2811,1.0,0.013,0.0,0.013,0.019,0.026,0.013,0.026,0.019,0.052,0.013,0.013,0.013,0.013,0.026,0.033,0.033,0.0,0.111,0.0874,-1.1367,0.9541,-0.1519,-1.0431,0.2915,-0.1534,-1.1213,0.5415,-0.6151,-0.4295,0.2056,-0.4955,-0.1519,-0.3359,-0.5752,0.0644,-0.2746,-0.3253,-0.2,-0.2734,0.3096,0.064,-0.0115,0.3146,0.0959,0.2984,-0.0247,-0.0822,-0.3034,0.2399,0.1615,0.2624,-0.2801,-0.1302,0.295,0.7487,0.0898,0.1936,0.0931,-0.0307,-1.0,1.0,-1.0,1.0,-1.0,1.0,1.0,1.0,1.0,-1.0,-1.0,-0.5009,1.0,-0.2118,0.829,-1.0,0.2013,1.0,0.0,0.0,0.0,0.0,0.0,0.0,0.0,0.0,0.0,0.3333,0.0,0.3333,0.0,0
4.52,run,7.97,4.23,9.86,9.02,8.89,0.0,0.05,0.0,1.371,2.29,-45.7,121.64,-5.8,-41.31,88.07,-5.98,-40.96,104.24,-35.24,-3.08,78.22,-25.58,13.97,52.29,-34.45,21.27,56.34,-4.0,-36.96,109.14,4.0,-53.0,96.08,7.0,-29.86,113.85,-35.0,-4.5,71.99,-20.0,15.0,53.33,-35.0,13.5,68.99,-1.0,1.0,-1.0,1.0,-1.0,1.0,1.0,1.0,0.5516,-1.0,-1.0,0.9515,1.0,1.0,-1.0,-1.0,0.9378,1.0,0.013,0.0,0.013,0.019,0.026,0.013,0.026,0.019,0.052,0.013,0.013,0.013,0.013,0.026,0.033,0.033,0.0,0.111,0.0629,-1.1459,0.9311,-0.1273,-1.0584,0.3114,-0.1304,-1.0983,0.566,-0.6151,-0.4203,0.1825,-0.4709,-0.1319,-0.3114,-0.589,0.0383,-0.2485,-0.32,-0.1746,-0.278,0.3091,-0.0129,0.067,0.3068,0.1537,0.3012,-0.0173,-0.0229,-0.2989,0.2602,0.1881,0.2761,-0.248,-0.1893,0.3046,0.7771,0.1157,0.1677,0.1156,0.0519,-1.0,1.0,-1.0,1.0,-1.0,1.0,1.0,1.0,1.0,-1.0,-1.0,1.0,1.0,0.2633,-0.438,-1.0,0.2811,1.0,0.0,0.0,0.0,0.0,0.0,0.0,0.0,0.0,0.0,0.3333,0.0,0.3333,0.0,0
4.56,run,8.35,4.62,10.05,9.37,12.35,0.0,0.05,0.0,1.371,0.88,-45.7,120.15,-4.39,-42.71,89.65,-4.57,-39.9,105.64,-35.07,-2.46,76.64,-24.17,14.59,53.26,-34.63,19.95,57.83,-5.5,-35.46,107.64,5.5,-54.5,97.58,8.5,-28.36,112.35,-35.0,-6.0,73.49,-18.5,16.5,51.83,-35.0,15.0,70.49,-1.0,1.0,-1.0,1.0,-1.0,1.0,1.0,1.0,-0.3261,-1.0,-1.0,1.0,1.0,1.0,-1.0,-1.0,1.0,1.0,0.013,0.0,0.013,0.019,0.026,0.013,0.026,0.019,0.052,0.013,0.013,0.013,0.013,0.026,0.033,0.033,0.0,0.111,0.0383,-1.1474,0.9066,-0.1028,-1.0784,0.3313,-0.1058,-1.0769,0.5906,-0.6167,-0.4065,0.1611,-0.4464,-0.1166,-0.2899,-0.5998,0.0153,-0.2209,-0.316,-0.128,-0.2866,0.3084,-0.0838,0.1217,0.3068,0.1881,0.3029,-0.0178,0.0357,-0.2898,0.2742,0.1892,0.2737,-0.2139,-0.2188,0.3167,0.8105,0.1512,0.172,0.1574,0.1551,-1.0,1.0,-1.0,1.0,-1.0,1.0,1.0,1.0,0.5516,-1.0,-1.0,0.9515,1.0,1.0,-1.0,-1.0,0.9378,1.0,0.0,0.0,0.0,0.0,0.0,0.0,0.0,0.0,0.0,0.3333,0.0,0.3333,0.0,0
4.6,run,8.56,4.85,6.33,5.72,7.96,0.0,0.05,0.0,1.371,-0.53,-45.18,118.74,-2.99,-44.12,90.97,-3.16,-38.76,107.05,-35.16,-2.02,75.41,-22.76,15.29,53.96,-34.72,18.63,59.33,-7.0,-33.96,106.14,7.0,-56.0,99.08,10.0,-26.86,110.85,-35.0,-7.5,74.99,-17.0,18.0,50.33,-35.0,16.5,71.99,-1.0,1.0,-1.0,1.0,-1.0,1.0,1.0,0.8028,-0.82,-1.0,-1.0,1.0,1.0,1.0,-1.0,-1.0,1.0,1.0,0.013,0.026,0.006,0.019,0.026,0.013,0.033,0.111,0.065,0.006,0.006,0.006,0.019,0.039,0.019,0.006,0.0,0.084,0.0138,-1.1474,0.8805,-0.0782,-1.1029,0.359,-0.0813,-1.0584,0.6151,-0.6136,-0.3958,0.1335,-0.4218,-0.1058,-0.273,-0.6029,-0.0077,-0.1948,-0.3133,-0.0896,-0.2985,0.308,-0.1508,0.1888,0.3069,0.2008,0.3041,-0.001,0.0653,-0.3065,0.284,0.1727,0.2549,-0.1612,-0.2395,0.3196,0.8438,0.1851,0.1753,0.1635,0.2155,-1.0,1.0,-1.0,1.0,-1.0,1.0,1.0,1.0,-0.3261,-1.0,-1.0,1.0,1.0,1.0,-1.0,-1.0,1.0,1.0,0.0,0.0,0.0,0.0,0.0,0.0,0.0,0.0,0.0,0.3333,0.0,0.3333,0.0,0
4.64,run,8.58,4.95,1.0,2.17,3.9,0.0,0.05,0.0,1.371,-1.93,-44.3,117.33,-1.58,-45.53,92.37,-1.85,-37.53,108.19,-35.16,-2.29,74.44,-21.45,16.0,54.32,-34.72,17.4,60.73,-8.5,-32.46,104.64,8.5,-57.5,100.58,11.5,-25.36,109.35,-35.0,-9.0,76.49,-15.5,19.5,48.83,-35.0,18.0,73.49,-1.0,1.0,-1.0,1.0,-1.0,1.0,1.0,0.6072,-1.0,-1.0,-1.0,1.0,1.0,1.0,-1.0,-1.0,1.0,1.0,0.013,0.026,0.006,0.019,0.026,0.013,0.033,0.111,0.065,0.006,0.006,0.006,0.019,0.039,0.019,0.006,0.0,0.084,-0.0107,-1.1382,0.856,-0.0537,-1.1275,0.382,-0.0568,-1.0385,0.6397,-0.6151,-0.3881,0.112,-0.3973,-0.0936,-0.2608,-0.6044,-0.0307,-0.1687,-0.3113,-0.0282,-0.3009,0.3076,-0.1975,0.2184,0.3068,0.2153,0.3049,-0.0064,0.0744,-0.295,0.2908,0.1669,0.2245,-0.1186,-0.2539,0.3215,0.8621,0.2058,0.1105,0.0999,0.1389,-1.0,1.0,-1.0,1.0,-1.0,1.0,1.0,0.8028,-0.82,-1.0,-1.0,1.0,1.0,1.0,-1.0,-1.0,1.0,1.0,0.0,0.0,0.0,0.0,0.0,0.0,0.0,0.0,0.0,0.3333,0.0,0.3333,0.0,0
4.68,run,8.44,5.02,-2.37,0.15,2.32,0.0,0.05,0.0,1.371,-3.34,-43.07,115.93,-0.18,-46.93,93.87,-0.53,-36.12,109.25,-35.07,-3.08,73.65,-20.04,16.7,54.32,-34.72,16.26,62.23,-10.0,-30.96,103.14,10.0,-59.0,102.08,13.0,-23.86,107.85,-35.0,-10.5,77.99,-14.0,21.0,47.33,-35.0,19.5,74.99,-1.0,1.0,-1.0,1.0,-1.0,1.0,1.0,0.5013,-1.0,-1.0,-1.0,1.0,1.0,1.0,-1.0,-1.0,1.0,1.0,0.013,0.026,0.006,0.019,0.026,0.013,0.033,0.111,0.065,0.006,0.006,0.006,0.019,0.039,0.019,0.006,0.0,0.084,-0.0353,-1.1229,0.8314,-0.0291,-1.152,0.4065,-0.0337,-1.017,0.6596,-0.6151,-0.3927,0.0951,-0.3743,-0.0813,-0.2546,-0.6044,-0.0522,-0.1442,-0.3098,0.0377,-0.3025,0.3072,-0.2302,0.2448,0.3009,0.2311,0.2881,-0.0045,0.0349,-0.2697,0.2897,0.1628,0.1801,-0.083,-0.2581,0.3169,0.8635,0.214,0.0175,0.0379,0.068,-1.0,1.0,-1.0,1.0,-1.0,1.0,1.0,0.6072,-1.0,-1.0,-1.0,1.0,1.0,1.0,-1.0,-1.0,1.0,1.0,0.0,0.0,0.0,0.0,0.0,0.0,0.0,0.0,0.0,0.3333,0.0,0.3333,0.0,0
4.72,run,8.47,5.23,2.52,4.25,6.19,0.0,0.05,0.0,1.371,-4.66,-41.75,114.52,1.23,-48.43,95.36,0.88,-34.98,110.04,-35.07,-4.04,73.3,-18.81,17.84,53.79,-34.72,15.64,63.63,-11.5,-29.46,101.64,8.5,-60.5,103.58,14.5,-22.36,106.35,-35.0,-12.0,79.49,-12.5,22.5,45.83,-35.0,21.0,76.49,-1.0,1.0,-1.0,-0.6154,-1.0,1.0,1.0,0.2238,-1.0,-1.0,-1.0,1.0,1.0,1.0,-1.0,-1.0,1.0,1.0,0.019,0.045,0.006,0.019,0.026,0.013,0.039,0.201,0.045,0.0,0.013,0.006,0.045,0.078,0.0,0.013,0.0,0.084,-0.0598,-1.1014,0.8069,-0.0046,-1.1766,0.4326,-0.0107,-0.9925,0.678,-0.6136,-0.4065,0.0813,-0.3497,-0.069,-0.2546,-0.6044,-0.0721,-0.1181,-0.3091,0.107,-0.304,0.3072,-0.2533,0.2693,0.2971,0.254,0.2708,0.0026,-0.0274,-0.2406,0.295,0.16,0.1261,-0.0581,-0.2556,0.3198,0.8517,0.2203,-0.0414,0.0026,0.0405,-1.0,1.0,-1.0,1.0,-1.0,1.0,1.0,0.5013,-1.0,-1.0,-1.0,1.0,1.0,1.0,-1.0,-1.0,1.0,1.0,0.0,0.0,0.0,0.0,0.0,0.0,0.0,0.0,0.0,0.3333,0.0,0.3333,0.0,0
4.76,run,8.46,5.47,1.25,5.16,9.42,0.0,0.05,0.0,1.371,-6.06,-40.43,113.12,2.64,-49.83,96.68,2.29,-33.84,110.48,-34.98,-5.1,73.39,-17.4,18.9,53.17,-34.72,15.21,65.04,-13.0,-27.96,100.14,7.0,-62.0,105.08,16.0,-23.86,104.85,-35.0,-13.5,80.99,-11.0,24.0,44.33,-35.0,22.5,74.99,-0.5242,1.0,-0.6474,-1.0,-1.0,0.7877,1.0,-1.0,-1.0,-1.0,-1.0,1.0,1.0,1.0,-1.0,-1.0,1.0,-0.1098,0.019,0.045,0.006,0.019,0.026,0.013,0.039,0.201,0.045,0.0,0.013,0.006,0.045,0.078,0.0,0.013,0.0,0.084,-0.0828,-1.0784,0.7823,0.0199,-1.2026,0.4587,0.0138,-0.9725,0.6918,-0.6136,-0.4234,0.0752,-0.3283,-0.0491,-0.2638,-0.6044,-0.0828,-0.0936,-0.3027,0.1612,-0.3048,0.3071,-0.2751,0.2863,0.3,0.2526,0.2413,0.0018,-0.0825,-0.1915,0.2871,0.1868,0.0537,-0.0407,-0.2192,0.3159,0.8536,0.2391,0.044,0.0741,0.1081,-1.0,1.0,-1.0,-0.6154,-1.0,1.0,1.0,0.2238,-1.0,-1.0,-1.0,1.0,1.0,1.0,-1.0,-1.0,1.0,1.0,0.0,0.0,0.0,0.0,0.0,0.0,0.0,0.0,0.0,0.3333,0.0,0.3333,0.0,0
4.8,run,8.35,5.62,-1.74,2.84,11.98,0.0,0.05,0.0,1.371,-7.47,-39.11,111.62,3.96,-51.15,98.09,3.6,-32.61,110.65,-34.98,-6.42,73.65,-16.0,20.13,51.94,-34.72,14.94,66.45,-11.5,-26.46,98.64,5.5,-63.5,103.58,14.5,-25.36,103.35,-33.5,-15.0,82.49,-9.5,25.5,42.83,-35.0,21.0,73.49,0.9109,1.0,-0.3785,-1.0,-1.0,0.2928,0.3875,-1.0,-1.0,-0.372,-1.0,1.0,0.4211,1.0,-1.0,-1.0,0.5917,-1.0,0.019,0.045,0.006,0.019,0.026,0.013,0.039,0.201,0.045,0.0,0.013,0.006,0.045,0.078,0.0,0.013,0.0,0.084,-0.1074,-1.0554,0.7578,0.0445,-1.2272,0.4817,0.0383,-0.9526,0.6995,-0.6121,-0.4418,0.0767,-0.3037,-0.0307,-0.2746,-0.6044,-0.0905,-0.069,-0.3038,0.1991,-0.3054,0.307,-0.2846,0.2867,0.302,0.2515,0.1977,0.007,-0.1267,-0.1283,0.2929,0.1998,-0.0026,-0.0285,-0.1822,0.3131,0.8534,0.2597,0.0219,0.09,0.1645,-0.5242,1.0,-0.6474,-1.0,-1.0,0.7877,1.0,-1.0,-1.0,-1.0,-1.0,1.0,1.0,1.0,-1.0,-1.0,1.0,-0.1098,0.0,0.0,0.0,0.0,0.0,0.0,0.0,0.0,0.0,0.3333,0.0,0.3333,0.0,0
4.84,run,8.44,5.88,3.27,5.32,18.19,0.0,0.05,0.0,1.371,-8.79,-37.79,110.21,5.19,-52.65,99.58,5.1,-31.29,110.65,-34.98,-7.82,74.62,-14.59,21.53,50.54,-34.72,14.94,67.76,-10.0,-24.96,97.14,4.0,-65.0,105.08,13.0,-26.86,101.85,-32.0,-16.5,83.99,-11.0,27.0,41.33,-35.0,19.5,71.99,1.0,1.0,-0.0769,-1.0,-1.0,1.0,-0.8392,-1.0,-1.0,1.0,-1.0,1.0,-1.0,1.0,-1.0,-1.0,-0.6439,-1.0,0.006,0.052,0.006,0.013,0.019,0.013,0.033,0.338,0.0,0.026,0.019,0.0,0.045,0.078,0.0,0.006,0.071,0.123,-0.1319,-1.0324,0.7317,0.0675,-1.2502,0.5062,0.0614,-0.9311,0.7026,-0.6121,-0.4648,0.0813,-0.2792,-0.0092,-0.2961,-0.6044,-0.0951,-0.0445,-0.3047,0.2256,-0.3115,0.3012,-0.2855,0.2927,0.2977,0.2566,0.1499,0.0049,-0.175,-0.0725,0.2971,0.2204,-0.0824,-0.0199,-0.1448,0.3112,0.8439,0.2725,-0.0304,0.0495,0.2091,0.9109,1.0,-0.3785,-1.0,-1.0,0.2928,0.3875,-1.0,-1.0,-0.372,-1.0,1.0,0.4211,1.0,-1.0,-1.0,0.5917,-1.0,0.0,0.0,0.0,0.0,0.0,0.0,0.0,0.0,0.0,0.3333,0.0,0.3333,0.0,0
4.88,run,8.71,6.19,7.38,9.01,17.95,0.0,0.05,0.0,1.371,-9.84,-36.39,108.72,6.06,-54.05,100.9,6.5,-30.15,110.48,-34.19,-9.23,75.67,-13.27,22.85,49.04,-34.72,14.94,68.99,-8.5,-23.46,95.64,2.5,-66.5,106.58,11.5,-28.36,100.35,-30.5,-18.0,85.49,-12.5,28.5,39.83,-35.0,18.0,70.49,1.0,1.0,-0.0889,-1.0,-1.0,1.0,-1.0,-1.0,-1.0,1.0,-0.6789,1.0,-1.0,1.0,-0.7597,-1.0,-1.0,-1.0,0.006,0.052,0.006,0.013,0.019,0.013,0.033,0.338,0.0,0.026,0.019,0.0,0.045,0.078,0.0,0.006,0.071,0.123,-0.1549,-1.0094,0.7072,0.089,-1.2763,0.5323,0.0874,-0.9081,0.7026,-0.6121,-0.4893,0.0982,-0.2546,0.0153,-0.3206,-0.6044,-0.0951,-0.0215,-0.2997,0.2443,-0.3102,0.2914,-0.2977,0.3028,0.3062,0.266,0.1049,0.0034,-0.2146,0.0126,0.3001,0.2464,-0.1498,-0.014,-0.1013,0.3042,0.8515,0.2954,0.057,0.0929,0.3174,1.0,1.0,-0.0769,-1.0,-1.0,1.0,-0.8392,-1.0,-1.0,1.0,-1.0,1.0,-1.0,1.0,-1.0,-1.0,-0.6439,-1.0,0.0,0.0,0.0,0.0,0.0,0.0,0.0,0.0,0.0,0.3333,0.0,0.3333,0.0,0
4.92,run,8.89,6.45,5.79,6.67,13.1,0.0,0.05,0.0,1.371,-10.55,-35.16,107.31,6.68,-55.46,102.39,7.91,-29.18,109.69,-33.4,-10.63,77.08,-12.13,24.17,47.64,-34.72,15.47,70.05,-7.0,-21.96,94.14,1.0,-68.0,108.08,10.0,-29.86,98.85,-29.0,-19.5,86.99,-14.0,30.0,41.33,-35.0,16.5,68.99,1.0,1.0,0.2781,-1.0,-1.0,1.0,-1.0,-1.0,-1.0,1.0,-0.5524,1.0,-1.0,1.0,0.0069,-1.0,-1.0,-1.0,0.006,0.052,0.006,0.013,0.019,0.013,0.033,0.338,0.0,0.026,0.019,0.0,0.045,0.078,0.0,0.006,0.071,0.123,-0.1733,-0.9848,0.6811,0.1043,-1.3008,0.5553,0.112,-0.8882,0.6995,-0.5983,-0.5139,0.1166,-0.2316,0.0383,-0.3467,-0.6044,-0.0951,0.0,-0.2788,0.2631,-0.3149,0.2615,-0.3004,0.2982,0.3064,0.261,0.0619,0.0542,-0.2423,0.0778,0.2963,0.2587,-0.2026,-0.0098,-0.0709,0.2935,0.8752,0.3225,0.1288,0.1573,0.3133,1.0,1.0,-0.0889,-1.0,-1.0,1.0,-1.0,-1.0,-1.0,1.0,-0.6789,1.0,-1.0,1.0,-0.7597,-1.0,-1.0,-1.0,0.0,0.0,0.0,0.0,0.0,0.0,0.0,0.0,0.0,0.3333,0.0,0.3333,0.0,0
4.96,run,9.23,6.69,4.19,5.74,5.53,0.0,0.05,0.0,1.371,-11.07,-33.84,105.82,6.94,-56.95,103.89,9.14,-28.48,108.54,-32.17,-12.13,78.4,-11.51,25.49,46.23,-34.72,16.0,70.75,-5.5,-20.46,95.64,-0.5,-69.5,109.58,8.5,-31.36,97.35,-27.5,-21.0,88.49,-15.5,30.0,42.83,-35.0,15.0,67.49,1.0,1.0,0.6439,-1.0,-1.0,1.0,-1.0,-1.0,-1.0,1.0,-0.2265,1.0,-1.0,1.0,-0.1811,-1.0,-1.0,-1.0,0.006,0.052,0.006,0.0,0.019,0.013,0.019,0.364,0.006,0.019,0.026,0.013,0.019,0.078,0.0,0.006,0.136,0.104,-0.1856,-0.9633,0.6565,0.115,-1.3254,0.5814,0.1365,-0.8713,0.6857,-0.5844,-0.5384,0.1411,-0.2117,0.0614,-0.3712,-0.6044,-0.0859,0.0184,-0.2411,0.2645,-0.3123,0.2232,-0.3021,0.3063,0.3063,0.2458,-0.0083,0.0896,-0.2614,0.1463,0.282,0.2672,-0.2337,-0.0068,-0.0152,0.2743,0.8906,0.3452,0.1011,0.1164,0.2287,1.0,1.0,0.2781,-1.0,-1.0,1.0,-1.0,-1.0,-1.0,1.0,-0.5524,1.0,-1.0,1.0,0.0069,-1.0,-1.0,-1.0,0.0,0.0,0.0,0.0,0.0,0.0,0.0,0.0,0.0,0.3333,0.0,0.3333,0.0,0
5.0,run,9.85,7.09,11.73,7.42,10.19,0.0,0.05,0.0,1.371,-11.25,-32.17,104.15,6.86,-58.62,105.56,10.11,-28.21,107.05,-30.59,-13.8,80.16,-10.9,27.07,44.65,-34.72,16.26,71.28,-4.0,-18.96,97.14,-2.0,-71.0,111.08,7.0,-32.86,95.85,-26.0,-22.5,89.99,-17.0,30.0,44.33,-35.0,13.5,65.99,1.0,1.0,0.6816,-1.0,-1.0,1.0,-1.0,-1.0,-1.0,1.0,-0.0255,1.0,-1.0,1.0,0.1657,-1.0,-1.0,-1.0,0.006,0.052,0.006,0.0,0.019,0.013,0.019,0.364,0.006,0.019,0.026,0.013,0.019,0.078,0.0,0.006,0.136,0.104,-0.1948,-0.9403,0.6305,0.1197,-1.3514,0.6075,0.158,-0.859,0.6657,-0.563,-0.5645,0.1641,-0.201,0.0844,-0.3958,-0.6044,-0.0767,0.0307,-0.2033,0.2716,-0.3165,0.1735,-0.3094,0.3124,0.2951,0.2182,-0.0807,0.1434,-0.2809,0.1888,0.2378,0.2735,-0.2557,-0.0048,0.0239,0.2381,0.9204,0.3665,0.0732,0.1003,0.0965,1.0,1.0,0.6439,-1.0,-1.0,1.0,-1.0,-1.0,-1.0,1.0,-0.2265,1.0,-1.0,1.0,-0.1811,-1.0,-1.0,-1.0,0.0,0.0,0.0,0.0,0.0,0.0,0.0,0.0,0.0,0.3333,0.0,0.3333,0.0,0
5.04,run,10.09,7.22,5.08,3.46,1.32,0.0,0.048,0.0,1.371,-10.9,-30.94,102.66,6.77,-60.12,106.96,10.63,-28.04,105.73,-29.36,-15.29,81.65,-11.07,28.12,43.77,-34.72,16.26,71.46,-2.5,-17.46,98.64,-3.5,-72.5,112.58,5.5,-34.36,94.35,-24.5,-21.33,91.49,-18.5,30.0,45.83,-35.0,12.0,64.49,1.0,1.0,0.7928,-1.0,-1.0,1.0,-1.0,-1.0,-1.0,1.0,0.0667,1.0,-1.0,1.0,0.8417,-1.0,-1.0,-1.0,0.006,0.052,0.006,0.0,0.019,0.013,0.019,0.364,0.006,0.019,0.026,0.013,0.019,0.078,0.0,0.006,0.136,0.104,-0.1979,-0.9112,0.6013,0.1181,-1.3806,0.6366,0.1749,-0.8544,0.6397,-0.5354,-0.5937,0.1948,-0.1902,0.112,-0.4234,-0.6044,-0.0721,0.0399,-0.1518,0.28,-0.3115,0.1167,-0.3065,0.3086,0.2586,0.1669,-0.137,0.1856,-0.2866,0.2268,0.1996,0.2766,-0.2642,-0.0034,0.0309,0.1951,0.9741,0.4007,0.2048,0.1296,0.1779,1.0,1.0,0.6816,-1.0,-1.0,1.0,-1.0,-1.0,-1.0,1.0,-0.0255,1.0,-1.0,1.0,0.1657,-1.0,-1.0,-1.0,0.0,0.0,0.0,0.0,0.0,0.0,0.0,0.0,0.0,0.32,0.0,0.32,0.0,0
5.08,run,10.15,7.42,0.24,2.4,2.3,0.0,0.046,0.0,1.371,-10.28,-29.53,101.25,5.62,-61.44,108.37,10.72,-27.95,104.68,-28.04,-16.7,82.97,-11.34,28.74,43.07,-34.72,16.26,71.46,-1.0,-15.96,100.14,-5.0,-74.0,114.08,4.0,-35.86,92.85,-23.0,-19.83,92.99,-20.0,30.0,47.33,-35.0,10.5,62.99,1.0,1.0,0.8422,-1.0,-1.0,1.0,-1.0,-1.0,-1.0,1.0,0.3681,1.0,-1.0,1.0,0.261,-1.0,-1.0,-1.0,0.006,0.104,0.0,0.019,0.026,0.013,0.006,0.019,0.026,0.019,0.019,0.013,0.019,0.052,0.0,0.013,0.019,0.006,-0.1917,-0.8897,0.5752,0.1166,-1.4067,0.6611,0.1841,-0.8514,0.6167,-0.5139,-0.6197,0.2209,-0.1933,0.1304,-0.4387,-0.6044,-0.0721,0.043,-0.0835,0.2757,-0.3148,0.076,-0.3113,0.307,0.2152,0.1282,-0.1812,0.2095,-0.2973,0.2555,0.1283,0.2619,-0.2418,-0.0023,0.0217,0.1479,0.995,0.4124,0.0887,0.0604,0.0231,1.0,1.0,0.7928,-1.0,-1.0,1.0,-1.0,-1.0,-1.0,1.0,0.0667,1.0,-1.0,1.0,0.8417,-1.0,-1.0,-1.0,0.0,0.0,0.0,0.0,0.0,0.0,0.0,0.0,0.0,0.3067,0.0,0.3067,0.0,0
5.12,run,10.22,7.53,2.47,1.1,-0.46,0.0,0.044,0.0,1.371,-9.05,-28.21,100.11,4.13,-62.84,109.86,10.72,-28.04,103.36,-26.54,-18.02,84.38,-12.13,29.0,42.54,-34.72,16.17,71.28,0.5,-14.46,101.64,-6.5,-75.5,115.58,2.5,-37.36,91.35,-21.5,-18.33,94.49,-21.5,30.0,48.83,-35.0,9.0,61.49,1.0,1.0,0.6823,-1.0,-1.0,1.0,-1.0,-1.0,-1.0,1.0,0.6513,1.0,-1.0,1.0,0.6726,-1.0,-1.0,-1.0,0.006,0.104,0.0,0.019,0.026,0.013,0.006,0.019,0.026,0.019,0.019,0.013,0.019,0.052,0.0,0.013,0.019,0.006,-0.181,-0.8652,0.5507,0.0966,-1.4297,0.6857,0.1856,-0.8498,0.5983,-0.4909,-0.6443,0.2439,-0.1979,0.1411,-0.451,-0.6044,-0.0721,0.043,-0.0181,0.2852,-0.3126,-0.0217,-0.3044,0.3072,0.1564,0.0955,-0.196,0.2332,-0.3004,0.2654,0.0725,0.2237,-0.2154,-0.0016,0.0152,0.1035,1.0004,0.4301,0.0043,0.0419,0.0401,1.0,1.0,0.8422,-1.0,-1.0,1.0,-1.0,-1.0,-1.0,1.0,0.3681,1.0,-1.0,1.0,0.261,-1.0,-1.0,-1.0,0.0,0.0,0.0,0.0,0.0,0.0,0.0,0.0,0.0,0.2933,0.0,0.2933,0.0,0
