t_s,phase,roll_deg,pitch_deg,gyro_x_dps,gyro_y_dps,gyro_z_dps,height_ref_mm,vx_ref_mps,vy_ref_mps,max_cur_a,q0_deg,q1_deg,q2_deg,q3_deg,q4_deg,q5_deg,q6_deg,q7_deg,q8_deg,q9_deg,q10_deg,q11_deg,q12_deg,q13_deg,q14_deg,q15_deg,q16_deg,q17_deg,cmd0_deg,cmd1_deg,cmd2_deg,cmd3_deg,cmd4_deg,cmd5_deg,cmd6_deg,cmd7_deg,cmd8_deg,cmd9_deg,cmd10_deg,cmd11_deg,cmd12_deg,cmd13_deg,cmd14_deg,cmd15_deg,cmd16_deg,cmd17_deg,act0,act1,act2,act3,act4,act5,act6,act7,act8,act9,act10,act11,act12,act13,act14,act15,act16,act17,cur0_a,cur1_a,cur2_a,cur3_a,cur4_a,cur5_a,cur6_a,cur7_a,cur8_a,cur9_a,cur10_a,cur11_a,cur12_a,cur13_a,cur14_a,cur15_a,cur16_a,cur17_a,obs0,obs1,obs2,obs3,obs4,obs5,obs6,obs7,obs8,obs9,obs10,obs11,obs12,obs13,obs14,obs15,obs16,obs17,obs18,obs19,obs20,obs21,obs22,obs23,obs24,obs25,obs26,obs27,obs28,obs29,obs30,obs31,obs32,obs33,obs34,obs35,obs36,obs37,obs38,obs39,obs40,obs41,obs42,obs43,obs44,obs45,obs46,obs47,obs48,obs49,obs50,obs51,obs52,obs53,obs54,obs55,obs56,obs57,obs58,obs59,obs60,obs61,obs62,obs63,obs64,obs65,obs66,obs67,obs68,obs69,obs70,obs71,rot60_k
0.0,run,1.19,0.65,-0.16,0.11,-0.67,0.0,-0.0,0.0,0.019,-0.09,18.81,80.07,-0.09,15.82,78.66,-0.26,19.42,80.42,0.35,16.08,79.01,-0.09,18.54,79.28,-0.09,17.4,78.66,-1.59,17.4,78.57,-1.59,14.58,80.16,1.24,17.92,81.74,1.76,14.85,80.51,1.41,17.22,77.78,-1.59,16.08,80.07,-1.0,-1.0,-0.4283,-1.0,-1.0,1.0,1.0,-1.0,1.0,1.0,-1.0,1.0,0.2651,-1.0,-0.322,-1.0,-1.0,1.0,0.013,0.006,0.006,0.006,0.0,0.013,0.006,0.013,0.0,0.006,0.0,0.006,0.013,0.006,0.013,0.019,0.0,0.006,0.0,-0.0015,0.0,0.0,-0.0015,0.0,0.0,0.0,0.0,0.0015,-0.0015,0.0,0.0,-0.0015,0.0,0.0,-0.0031,0.0015,0.0,-0.0037,0.0,0.0,-0.0037,0.0,0.0,0.0,0.0,0.0037,-0.0037,0.0,0.0,-0.0032,0.0,0.0,-0.0075,0.0037,0.0,0.0,0.0004,-0.0039,0.0148,0.0,0.0,0.0,0.0,0.0,0.0,0.0,0.0,0.0,0.0,0.0,0.0,0.0,0.0,0.0,0.0,0.0,0.0,0.0,0.0,0.0,0.0,0.0,0.0,0.0,0.0,0.0,-0.0,0.0,-0.0,0.0,0
0.04,run,1.14,0.69,-0.93,-0.03,0.07,0.0,-0.0,0.0,0.019,-0.53,18.54,80.07,-0.26,15.56,78.84,-0.26,19.07,80.6,0.53,15.64,79.19,0.09,18.54,79.19,-0.44,17.23,78.75,-3.09,18.9,80.07,-3.09,13.08,81.66,-0.26,16.42,80.24,3.26,13.35,82.01,-0.09,15.72,79.28,-3.09,14.58,81.57,-1.0,1.0,1.0,-1.0,-1.0,1.0,-1.0,-1.0,-1.0,1.0,-1.0,1.0,-1.0,0.1433,1.0,-1.0,-1.0,1.0,0.013,0.006,0.006,0.006,0.0,0.013,0.006,0.013,0.0,0.006,0.0,0.006,0.013,0.006,0.013,0.019,0.0,0.006,0.0,-0.0015,0.0,0.0,-0.0046,0.0,0.0,0.0,0.0031,0.0015,-0.0046,0.0,0.0,-0.0031,0.0,0.0,-0.0031,0.0015,0.0,-0.0026,0.0,0.0,-0.0077,0.0,0.0,0.0,0.005,0.0026,-0.0077,0.0,0.0,-0.0047,0.0,0.0,-0.0052,0.0026,-0.0006,0.0011,-0.0028,0.0019,-0.0117,-1.0,-1.0,-0.4283,-1.0,-1.0,1.0,1.0,-1.0,1.0,1.0,-1.0,1.0,0.2651,-1.0,-0.322,-1.0,-1.0,1.0,0.0,0.0,0.0,0.0,0.0,0.0,0.0,0.0,0.0,-0.0,0.0,-0.0,0.0,0
0.08,run,0.94,0.73,-3.28,-0.48,1.2,0.0,-0.0,0.0,0.019,-1.23,18.02,79.8,-0.79,15.03,79.54,0.09,18.28,81.04,1.05,15.21,79.89,0.7,17.75,78.31,-1.05,16.7,79.28,-4.59,20.4,81.57,-4.59,11.58,83.16,-1.76,17.92,81.74,4.76,11.85,83.51,-1.59,17.22,80.78,-4.59,13.08,83.07,-0.3861,1.0,0.2976,-1.0,-1.0,0.7748,-1.0,1.0,1.0,1.0,-1.0,1.0,-1.0,1.0,1.0,-1.0,-1.0,1.0,0.013,0.006,0.006,0.006,0.0,0.013,0.006,0.013,0.0,0.006,0.0,0.006,0.013,0.006,0.013,0.019,0.0,0.006,-0.0077,-0.0061,0.0,-0.0031,-0.0092,0.0031,0.0,-0.0061,0.0061,0.0046,-0.0123,0.0031,0.0031,-0.0031,-0.0015,-0.0061,-0.0061,0.0031,-0.0289,-0.0192,0.0,-0.0116,-0.0227,0.0116,0.0,-0.0232,0.0151,0.0134,-0.0343,0.0116,0.0116,-0.0033,-0.0058,-0.0232,-0.0152,0.0076,-0.0049,0.0046,-0.0162,-0.0005,0.0012,-1.0,1.0,1.0,-1.0,-1.0,1.0,-1.0,-1.0,-1.0,1.0,-1.0,1.0,-1.0,0.1433,1.0,-1.0,-1.0,1.0,0.0,0.0,0.0,0.0,0.0,0.0,0.0,0.0,0.0,-0.0,0.0,-0.0,0.0,0
0.12,run,0.85,0.61,-0.64,-3.43,-4.35,0.0,-0.0,0.0,0.026,-2.02,17.75,79.63,-1.41,14.24,80.68,0.53,17.58,81.39,2.37,14.33,81.04,0.88,16.88,78.31,-2.02,15.91,80.07,-6.09,21.9,80.07,-6.09,10.08,84.66,-3.26,19.42,83.24,6.26,10.35,85.01,-0.09,15.72,79.28,-6.09,11.58,84.57,-1.0,1.0,0.133,-1.0,-1.0,1.0,-1.0,1.0,1.0,1.0,-1.0,1.0,0.8624,0.3089,-1.0,-1.0,-1.0,1.0,0.026,0.006,0.0,0.019,0.006,0.013,0.0,0.0,0.006,0.013,0.0,0.013,0.0,0.006,0.0,0.019,0.013,0.019,-0.0199,-0.0153,-0.0046,-0.0123,-0.0184,0.0153,0.0061,-0.0199,0.0138,0.0138,-0.0199,0.0153,0.0138,-0.0169,-0.0169,-0.0169,-0.0153,0.0123,-0.066,-0.0478,-0.0172,-0.0424,-0.0502,0.0539,0.0229,-0.0677,0.0392,0.0437,-0.0526,0.0539,0.0482,-0.0538,-0.0613,-0.0563,-0.045,0.0397,-0.0224,0.008,-0.0573,-0.0083,0.021,-0.3861,1.0,0.2976,-1.0,-1.0,0.7748,-1.0,1.0,1.0,1.0,-1.0,1.0,-1.0,1.0,1.0,-1.0,-1.0,1.0,0.0,0.0,0.0,0.0,0.0,0.0,0.0,0.0,0.0,-0.0,0.0,-0.0,0.0,0
0.16,run,0.72,0.67,-1.92,1.52,-7.68,0.0,-0.0,0.0,0.026,-3.34,17.75,79.54,-2.55,13.1,81.83,0.53,17.31,81.83,3.34,13.1,82.09,0.7,16.17,78.49,-3.25,14.77,80.68,-7.59,23.4,78.57,-7.59,8.58,86.16,-4.76,20.92,81.74,7.76,8.85,86.51,1.41,17.22,80.78,-7.59,10.08,86.07,-1.0,1.0,0.1073,-1.0,-1.0,1.0,-0.706,0.8589,-0.3492,1.0,-1.0,1.0,1.0,1.0,1.0,-1.0,-1.0,1.0,0.026,0.006,0.0,0.019,0.006,0.013,0.0,0.0,0.006,0.013,0.0,0.013,0.0,0.006,0.0,0.019,0.013,0.019,-0.0337,-0.0199,-0.0077,-0.023,-0.0322,0.0353,0.0138,-0.0322,0.0199,0.0368,-0.0353,0.0353,0.0169,-0.0322,-0.0169,-0.0337,-0.0291,0.0261,-0.098,-0.0507,-0.0235,-0.0699,-0.0869,0.1124,0.0448,-0.0934,0.0504,0.1168,-0.0943,0.1124,0.0452,-0.0952,-0.0429,-0.1026,-0.0832,0.0795,-0.0305,-0.0018,-0.0112,-0.0599,-0.0759,-1.0,1.0,0.133,-1.0,-1.0,1.0,-1.0,1.0,1.0,1.0,-1.0,1.0,0.8624,0.3089,-1.0,-1.0,-1.0,1.0,0.0,0.0,0.0,0.0,0.0,0.0,0.0,0.0,0.0,-0.0,0.0,-0.0,0.0,0
0.2,run,0.61,0.45,-2.81,-6.16,-4.59,0.0,-0.0,0.0,0.026,-4.83,17.84,79.72,-3.87,11.87,83.23,0.53,17.4,82.44,4.57,11.87,83.41,0.09,15.82,78.93,-4.48,13.89,82.35,-9.09,24.9,80.07,-9.09,7.08,87.66,-6.26,22.42,83.24,9.26,7.35,88.01,2.91,15.72,82.28,-9.09,8.58,87.57,-1.0,1.0,0.7625,-1.0,-1.0,1.0,-1.0,1.0,0.7359,1.0,-1.0,1.0,1.0,0.3713,1.0,-1.0,-1.0,1.0,0.026,0.006,0.0,0.019,0.006,0.013,0.0,0.0,0.006,0.013,0.0,0.013,0.0,0.006,0.0,0.019,0.013,0.019,-0.0568,-0.0199,-0.0092,-0.043,-0.0522,0.0552,0.0138,-0.0368,0.0276,0.0537,-0.0568,0.0537,0.0138,-0.0445,-0.0138,-0.0552,-0.0491,0.0368,-0.1549,-0.0355,-0.0222,-0.1238,-0.1356,0.1535,0.0313,-0.0826,0.0641,0.1451,-0.1466,0.1478,0.0201,-0.1126,-0.0185,-0.1524,-0.1331,0.0959,-0.0415,0.0034,-0.0336,0.0266,-0.134,-1.0,1.0,0.1073,-1.0,-1.0,1.0,-0.706,0.8589,-0.3492,1.0,-1.0,1.0,1.0,1.0,1.0,-1.0,-1.0,1.0,0.0,0.0,0.0,0.0,0.0,0.0,0.0,0.0,0.0,-0.0,0.0,-0.0,0.0,0
0.24,run,0.51,0.08,-2.15,-9.55,-7.76,0.0,-0.0,0.0,0.091,-5.98,18.46,79.98,-5.19,10.55,84.73,-0.7,18.02,82.97,5.89,10.46,84.73,0.0,15.64,80.07,-5.89,12.92,83.67,-10.59,23.4,78.57,-10.59,5.58,89.16,-7.76,23.92,84.74,10.76,5.85,89.51,4.41,14.22,80.78,-10.59,7.08,89.07,-1.0,0.5838,0.0314,-1.0,-0.767,1.0,-1.0,1.0,0.3571,1.0,-1.0,1.0,1.0,0.4474,0.1113,-1.0,-1.0,1.0,0.013,0.091,0.0,0.013,0.0,0.0,0.006,0.006,0.0,0.026,0.0,0.013,0.0,0.006,0.019,0.019,0.013,0.019,-0.0828,-0.0184,-0.0061,-0.066,-0.0736,0.0798,0.0138,-0.0353,0.0383,0.0752,-0.0782,0.0767,0.0031,-0.0506,-0.0061,-0.0767,-0.0644,0.066,-0.2063,-0.0191,-0.004,-0.173,-0.1755,0.1996,0.0219,-0.0521,0.0851,0.1821,-0.1832,0.1898,-0.0262,-0.1019,0.0158,-0.1873,-0.1507,0.1765,-0.0511,-0.0161,-0.049,-0.1074,-0.08,-1.0,1.0,0.7625,-1.0,-1.0,1.0,-1.0,1.0,0.7359,1.0,-1.0,1.0,1.0,0.3713,1.0,-1.0,-1.0,1.0,0.0,0.0,0.0,0.0,0.0,0.0,0.0,0.0,0.0,-0.0,0.0,-0.0,0.0,0
0.28,run,0.46,-0.47,-1.18,-12.22,-3.2,0.0,-0.0,0.0,0.091,-7.47,19.42,79.98,-6.94,8.96,86.22,-2.02,18.81,83.5,7.38,8.88,86.4,0.53,15.21,80.95,-7.65,10.99,85.34,-12.09,21.9,80.07,-12.09,4.08,90.66,-9.26,25.42,83.24,12.26,4.35,91.01,5.91,15.72,82.28,-12.09,5.58,90.57,-1.0,0.3055,0.9784,-1.0,-0.725,1.0,-1.0,1.0,-1.0,1.0,-1.0,1.0,1.0,0.8742,0.3134,-1.0,-1.0,1.0,0.013,0.091,0.0,0.013,0.0,0.0,0.006,0.006,0.0,0.026,0.0,0.013,0.0,0.006,0.019,0.019,0.013,0.019,-0.1028,-0.0077,-0.0015,-0.089,-0.0966,0.1058,-0.0077,-0.0245,0.0476,0.0982,-0.1028,0.0997,0.0015,-0.0537,0.0138,-0.1012,-0.0813,0.089,-0.2194,0.027,0.0145,-0.2076,-0.2094,0.2378,-0.0654,0.0039,0.0942,0.2141,-0.2206,0.2194,-0.0241,-0.0829,0.0861,-0.2234,-0.169,0.2101,-0.0602,-0.0485,-0.0376,-0.1667,-0.1355,-1.0,0.5838,0.0314,-1.0,-0.767,1.0,-1.0,1.0,0.3571,1.0,-1.0,1.0,1.0,0.4474,0.1113,-1.0,-1.0,1.0,0.0,0.0,0.0,0.0,0.0,0.0,0.0,0.0,0.0,-0.0,0.0,-0.0,0.0,0
0.32,run,0.53,-0.93,2.19,-12.32,1.06,0.0,-0.0,0.0,0.091,-8.96,20.13,79.8,-8.17,7.73,87.36,-3.52,20.21,84.11,8.7,7.47,87.71,1.05,14.5,81.47,-8.88,9.76,86.66,-13.59,20.4,81.57,-13.59,2.58,89.16,-10.76,26.92,81.74,13.76,2.85,92.51,7.41,17.22,83.78,-13.59,4.08,92.07,-1.0,-1.0,0.3745,-1.0,-0.82,-0.3811,-1.0,1.0,-1.0,1.0,-1.0,1.0,1.0,1.0,0.4661,-1.0,-1.0,1.0,0.013,0.091,0.0,0.013,0.0,0.0,0.006,0.006,0.0,0.026,0.0,0.013,0.0,0.006,0.019,0.019,0.013,0.019,-0.1289,0.0092,-0.0015,-0.1197,-0.1243,0.1319,-0.0307,-0.0107,0.0568,0.1243,-0.1304,0.1289,0.0107,-0.0614,0.0291,-0.1319,-0.115,0.1181,-0.2363,0.0725,0.0101,-0.2427,-0.2342,0.2492,-0.1188,0.0466,0.0952,0.2326,-0.242,0.2461,0.0123,-0.0823,0.1089,-0.2537,-0.2254,0.2396,-0.0646,-0.0963,-0.0206,-0.2134,-0.0558,-1.0,0.3055,0.9784,-1.0,-0.725,1.0,-1.0,1.0,-1.0,1.0,-1.0,1.0,1.0,0.8742,0.3134,-1.0,-1.0,1.0,0.0,0.0,0.0,0.0,0.0,0.0,0.0,0.0,0.0,-0.0,0.0,-0.0,0.0,0
0.36,run,0.53,-1.5,0.53,-15.82,3.87,0.0,-0.0,0.0,0.111,-10.2,20.74,79.37,-9.49,6.42,88.59,-4.83,21.53,84.64,10.02,6.24,89.03,2.29,14.41,82.0,-10.28,8.44,88.33,-15.09,18.9,83.07,-15.09,1.08,90.66,-12.26,28.42,80.24,15.26,1.35,94.01,7.24,18.72,85.28,-15.09,2.58,93.57,-1.0,-1.0,1.0,-1.0,-0.6223,0.9339,-1.0,1.0,-1.0,1.0,-1.0,1.0,0.2068,1.0,0.6808,-1.0,-1.0,1.0,0.013,0.111,0.006,0.026,0.006,0.0,0.013,0.013,0.0,0.019,0.0,0.013,0.006,0.006,0.039,0.013,0.033,0.006,-0.1549,0.0215,-0.0046,-0.1411,-0.1457,0.1519,-0.0568,0.0138,0.0675,0.1473,-0.1549,0.1519,0.0199,-0.0736,0.0383,-0.1534,-0.1365,0.1411,-0.2618,0.0961,-0.0042,-0.2493,-0.2433,0.2481,-0.1795,0.1233,0.1063,0.2478,-0.2601,0.2573,0.0426,-0.103,0.1103,-0.257,-0.2371,0.2527,-0.0584,-0.1363,0.0382,-0.2151,0.0186,-1.0,-1.0,0.3745,-1.0,-0.82,-0.3811,-1.0,1.0,-1.0,1.0,-1.0,1.0,1.0,1.0,0.4661,-1.0,-1.0,1.0,0.0,0.0,0.0,0.0,0.0,0.0,0.0,0.0,0.0,-0.0,0.0,-0.0,0.0,0
0.4,run,0.56,-1.99,1.48,-13.83,6.1,0.0,-0.0,0.0,0.111,-11.6,21.27,79.28,-10.81,5.01,89.65,-6.33,23.03,84.64,11.43,4.75,90.44,3.6,14.41,82.88,-11.78,7.03,89.38,-16.59,17.4,84.57,-16.59,-0.42,89.16,-13.76,29.92,78.74,16.76,-0.15,95.51,8.74,20.22,83.78,-16.59,1.08,95.07,-1.0,-1.0,0.5544,-1.0,-0.7853,-0.9001,-1.0,1.0,-1.0,1.0,-1.0,1.0,1.0,1.0,0.2132,-1.0,-1.0,1.0,0.013,0.111,0.006,0.026,0.006,0.0,0.013,0.013,0.0,0.019,0.0,0.013,0.006,0.006,0.039,0.013,0.033,0.006,-0.1764,0.0322,-0.0123,-0.1641,-0.1687,0.1733,-0.0798,0.0368,0.0767,0.1703,-0.1764,0.1749,0.0414,-0.0752,0.0476,-0.1779,-0.1595,0.1703,-0.2639,0.1076,-0.0318,-0.2609,-0.2567,0.2543,-0.2121,0.1727,0.109,0.2599,-0.2627,0.2665,0.1105,-0.0779,0.1118,-0.2721,-0.2524,0.2864,-0.0588,-0.1861,0.0092,-0.2761,0.0675,-1.0,-1.0,1.0,-1.0,-0.6223,0.9339,-1.0,1.0,-1.0,1.0,-1.0,1.0,0.2068,1.0,0.6808,-1.0,-1.0,1.0,0.0,0.0,0.0,0.0,0.0,0.0,0.0,0.0,0.0,-0.0,0.0,-0.0,0.0,0
0.44,run,1.28,-2.72,19.47,-18.74,8.59,0.0,-0.0,0.0,0.111,-13.01,21.36,79.28,-12.3,3.6,90.09,-7.73,24.43,84.64,12.92,3.43,91.76,5.01,14.59,83.94,-13.1,5.71,90.7,-18.09,15.9,86.07,-18.09,-1.92,87.66,-15.26,30.0,77.24,18.26,-1.65,97.01,7.24,18.72,82.28,-18.09,-0.42,96.57,-1.0,-1.0,0.3736,-1.0,0.0083,-0.3248,-1.0,1.0,-1.0,1.0,-1.0,1.0,0.0742,0.4921,0.1821,-1.0,-1.0,1.0,0.013,0.111,0.006,0.026,0.006,0.0,0.013,0.013,0.0,0.019,0.0,0.013,0.006,0.006,0.039,0.013,0.033,0.006,-0.201,0.0414,-0.0138,-0.1871,-0.1933,0.1917,-0.1058,0.0629,0.0767,0.1948,-0.2025,0.1994,0.0644,-0.0752,0.0629,-0.204,-0.1841,0.1887,-0.2767,0.1098,-0.028,-0.2689,-0.2717,0.247,-0.2462,0.2186,0.0763,0.2739,-0.2816,0.2785,0.1636,-0.0545,0.1357,-0.2882,-0.2687,0.2694,-0.056,-0.2293,0.0259,-0.2413,0.1065,-1.0,-1.0,0.5544,-1.0,-0.7853,-0.9001,-1.0,1.0,-1.0,1.0,-1.0,1.0,1.0,1.0,0.2132,-1.0,-1.0,1.0,0.0,0.0,0.0,0.0,0.0,0.0,0.0,0.0,0.0,-0.0,0.0,-0.0,0.0,0
0.48,run,1.95,-3.49,15.65,-20.15,4.25,0.0,-0.0,0.0,0.111,-14.5,21.45,79.89,-13.71,2.2,90.88,-9.14,25.84,84.29,14.5,1.93,93.25,6.24,15.56,84.55,-14.59,4.22,92.2,-16.59,14.4,87.57,-19.59,-3.42,86.16,-16.76,28.5,75.74,19.76,-0.15,98.51,5.74,20.22,83.78,-19.59,-1.92,95.07,-0.0981,-1.0,0.4126,-1.0,-1.0,-1.0,-1.0,0.9252,-1.0,1.0,0.9735,1.0,0.0739,1.0,1.0,-1.0,-1.0,0.3222,0.006,0.006,0.013,0.019,0.006,0.019,0.013,0.006,0.065,0.013,0.0,0.013,0.0,0.052,0.013,0.006,0.026,0.019,-0.2255,0.043,-0.0138,-0.2132,-0.2178,0.1994,-0.1304,0.0874,0.0767,0.2209,-0.2255,0.2224,0.089,-0.0721,0.0813,-0.227,-0.2071,0.2117,-0.2858,0.0826,-0.0196,-0.286,-0.2823,0.2017,-0.2644,0.2451,0.0534,0.2896,-0.2835,0.2813,0.2066,-0.0266,0.1641,-0.2881,-0.2744,0.2749,0.0075,-0.2924,0.3398,-0.327,0.1499,-1.0,-1.0,0.3736,-1.0,0.0083,-0.3248,-1.0,1.0,-1.0,1.0,-1.0,1.0,0.0742,0.4921,0.1821,-1.0,-1.0,1.0,0.0,0.0,0.0,0.0,0.0,0.0,0.0,0.0,0.0,-0.0,0.0,-0.0,0.0,0
0.52,run,2.12,-4.19,1.15,-17.13,-2.98,0.0,-0.0,0.0,0.111,-16.0,21.45,80.42,-15.21,0.97,90.44,-10.55,27.16,83.5,15.91,0.53,94.66,7.47,16.52,84.81,-16.0,2.81,93.34,-15.09,12.9,89.07,-21.09,-4.92,84.66,-18.26,30.0,74.24,21.26,1.35,100.01,4.24,21.72,82.28,-21.09,-3.42,93.57,1.0,-1.0,0.6556,-1.0,-1.0,-1.0,-1.0,1.0,-1.0,1.0,1.0,1.0,0.0787,1.0,-0.4425,-1.0,-1.0,-1.0,0.006,0.006,0.013,0.019,0.006,0.019,0.013,0.006,0.065,0.013,0.0,0.013,0.0,0.052,0.013,0.006,0.026,0.019,-0.2516,0.0445,-0.0031,-0.2378,-0.2424,0.2132,-0.1549,0.112,0.0706,0.2485,-0.2516,0.2485,0.1104,-0.0552,0.092,-0.2531,-0.2332,0.2378,-0.2982,0.0636,0.0267,-0.2926,-0.29,0.1931,-0.2775,0.264,0.0143,0.3066,-0.2966,0.2951,0.2254,0.0449,0.1553,-0.2998,-0.2902,0.2906,0.0658,-0.3595,0.2731,-0.3517,0.0743,-0.0981,-1.0,0.4126,-1.0,-1.0,-1.0,-1.0,0.9252,-1.0,1.0,0.9735,1.0,0.0739,1.0,1.0,-1.0,-1.0,0.3222,0.0,0.0,0.0,0.0,0.0,0.0,0.0,0.0,0.0,-0.0,0.0,-0.0,0.0,0
0.56,run,3.33,-5.64,33.01,-38.48,-2.64,0.0,-0.0,0.0,0.111,-16.52,20.57,82.0,-16.88,-0.7,89.91,-11.95,28.21,82.44,17.4,-0.44,95.98,7.82,17.84,84.55,-17.31,1.41,94.92,-13.59,11.4,90.57,-22.59,-6.42,83.16,-19.76,30.0,72.74,22.76,2.85,101.51,2.74,23.22,80.78,-19.59,-4.92,92.07,-0.1783,-1.0,0.5332,-1.0,0.2515,-1.0,-1.0,1.0,-1.0,1.0,1.0,1.0,-0.8479,1.0,-1.0,0.9603,-1.0,-1.0,0.006,0.006,0.013,0.019,0.006,0.019,0.013,0.006,0.065,0.013,0.0,0.013,0.0,0.052,0.013,0.006,0.026,0.019,-0.2777,0.0445,0.0061,-0.2638,-0.2638,0.2056,-0.1795,0.135,0.0568,0.273,-0.2761,0.273,0.1319,-0.0383,0.0966,-0.2777,-0.2577,0.2577,-0.3066,0.0445,0.0532,-0.3027,-0.2836,0.1064,-0.2864,0.2712,-0.0418,0.3068,-0.2997,0.2987,0.2384,0.0947,0.126,-0.302,-0.2953,0.2783,0.08,-0.4208,0.0201,-0.2989,-0.052,1.0,-1.0,0.6556,-1.0,-1.0,-1.0,-1.0,1.0,-1.0,1.0,1.0,1.0,0.0787,1.0,-0.4425,-1.0,-1.0,-1.0,0.0,0.0,0.0,0.0,0.0,0.0,0.0,0.0,0.0,-0.0,0.0,-0.0,0.0,0
0.6,run,5.28,-6.35,48.45,-16.83,-0.24,0.0,-0.0,0.0,0.111,-17.67,19.34,83.41,-18.46,-2.11,88.86,-13.36,29.36,81.04,18.98,-1.14,97.47,8.61,19.25,84.11,-18.72,-0.09,95.1,-12.09,9.9,92.07,-24.09,-7.92,81.66,-21.26,30.0,71.24,24.26,4.35,103.01,1.24,24.72,82.28,-18.09,-6.42,90.57,1.0,-1.0,0.4331,-1.0,-1.0,-1.0,-1.0,1.0,-0.7761,1.0,1.0,1.0,-1.0,1.0,0.6127,1.0,-1.0,-1.0,0.013,0.0,0.019,0.013,0.0,0.0,0.019,0.0,0.084,0.0,0.0,0.006,0.013,0.058,0.013,0.006,0.039,0.013,-0.2869,0.0291,0.0337,-0.293,-0.293,0.1963,-0.204,0.1534,0.0383,0.2991,-0.293,0.2961,0.1381,-0.0153,0.092,-0.3007,-0.2823,0.2853,-0.249,-0.0261,0.1403,-0.3207,-0.3073,0.0401,-0.2921,0.2585,-0.098,0.3121,-0.2728,0.295,0.1898,0.1522,0.071,-0.2973,-0.2983,0.2979,0.1857,-0.5476,0.5761,-0.6715,-0.0461,-0.1783,-1.0,0.5332,-1.0,0.2515,-1.0,-1.0,1.0,-1.0,1.0,1.0,1.0,-0.8479,1.0,-1.0,0.9603,-1.0,-1.0,0.0,0.0,0.0,0.0,0.0,0.0,0.0,0.0,0.0,-0.0,0.0,-0.0,0.0,0
0.64,run,8.07,-8.03,74.55,-43.02,0.93,0.0,-0.0,0.0,0.111,-18.02,18.02,84.81,-19.6,-3.78,87.71,-14.59,29.62,79.72,20.3,-1.67,99.23,8.53,20.92,83.14,-19.78,-1.41,96.33,-10.59,8.4,93.57,-25.59,-9.42,80.16,-22.76,28.5,69.74,25.76,5.85,104.51,-0.26,26.22,83.78,-16.59,-7.92,89.07,1.0,-1.0,1.0,-1.0,-1.0,-1.0,-1.0,0.0403,-1.0,1.0,1.0,1.0,-1.0,1.0,0.9041,1.0,-1.0,-1.0,0.013,0.0,0.019,0.013,0.0,0.0,0.019,0.0,0.084,0.0,0.0,0.006,0.013,0.058,0.013,0.006,0.039,0.013,-0.3068,0.0077,0.0583,-0.3206,-0.3175,0.1779,-0.2286,0.1733,0.0138,0.3267,-0.3053,0.3221,0.1519,0.0092,0.0844,-0.3252,-0.3083,0.2884,-0.2491,-0.0988,0.1902,-0.328,-0.3071,-0.0409,-0.2965,0.2557,-0.1606,0.322,-0.237,0.3042,0.1846,0.1986,0.0209,-0.3001,-0.3066,0.22,0.3564,-0.6096,0.8456,-0.2937,-0.0042,1.0,-1.0,0.4331,-1.0,-1.0,-1.0,-1.0,1.0,-0.7761,1.0,1.0,1.0,-1.0,1.0,0.6127,1.0,-1.0,-1.0,0.0,0.0,0.0,0.0,0.0,0.0,0.0,0.0,0.0,-0.0,0.0,-0.0,0.0,0
0.68,run,10.26,-10.0,56.37,-46.74,9.85,0.0,-0.0,0.0,0.111,-18.02,16.61,86.22,-21.18,-5.54,86.22,-15.91,30.23,78.66,21.8,-1.93,100.28,7.82,22.41,82.62,-20.39,-2.9,95.98,-9.09,6.9,95.07,-27.09,-10.92,78.66,-24.26,30.0,68.24,27.26,7.35,106.01,-1.76,27.72,85.28,-15.09,-9.42,87.57,1.0,-1.0,0.97,-1.0,-1.0,-1.0,-1.0,1.0,-1.0,1.0,1.0,1.0,-0.9476,1.0,0.9002,1.0,-1.0,-1.0,0.013,0.0,0.019,0.013,0.0,0.0,0.019,0.0,0.084,0.0,0.0,0.006,0.013,0.058,0.013,0.006,0.039,0.013,-0.3129,-0.0153,0.0828,-0.3405,-0.3467,0.158,-0.25,0.1779,-0.0092,0.3497,-0.3145,0.3528,0.1503,0.0383,0.0675,-0.3436,-0.3313,0.3099,-0.1974,-0.1558,0.2256,-0.3047,-0.3247,-0.1037,-0.2884,0.1963,-0.199,0.312,-0.2005,0.3285,0.1235,0.2487,-0.0489,-0.2794,-0.3012,0.2349,0.6,-0.7562,1.3011,-0.7508,0.0162,1.0,-1.0,1.0,-1.0,-1.0,-1.0,-1.0,0.0403,-1.0,1.0,1.0,1.0,-1.0,1.0,0.9041,1.0,-1.0,-1.0,0.0,0.0,0.0,0.0,0.0,0.0,0.0,0.0,0.0,-0.0,0.0,-0.0,0.0,0
0.72,run,10.58,-7.46,1.92,66.9,-8.02,0.0,-0.0,0.0,0.286,-17.4,15.21,87.63,-22.68,-7.03,84.55,-17.23,30.41,77.7,22.94,-1.93,101.43,7.12,23.73,82.18,-21.01,-4.75,96.24,-7.59,5.4,96.57,-28.59,-12.42,77.16,-25.76,30.0,66.74,28.76,8.85,107.51,-3.26,29.22,86.78,-13.59,-10.92,86.07,1.0,-1.0,1.0,-1.0,-1.0,-1.0,-1.0,1.0,-1.0,1.0,1.0,1.0,-1.0,1.0,0.2835,1.0,-1.0,-1.0,0.006,0.0,0.026,0.0,0.0,0.0,0.026,0.019,0.286,0.006,0.058,0.071,0.019,0.065,0.013,0.006,0.013,0.0,-0.3129,-0.0399,0.1074,-0.3682,-0.3774,0.1319,-0.273,0.1887,-0.0276,0.3758,-0.3191,0.3712,0.1381,0.0644,0.0583,-0.3543,-0.3574,0.3037,-0.1382,-0.2007,0.2496,-0.3164,-0.3419,-0.17,-0.2878,0.1775,-0.2081,0.3158,-0.1576,0.2987,0.0406,0.2715,-0.0686,-0.2357,-0.3083,0.1415,0.7904,-0.9276,0.9838,-0.8158,0.1719,1.0,-1.0,0.97,-1.0,-1.0,-1.0,-1.0,1.0,-1.0,1.0,1.0,1.0,-0.9476,1.0,0.9002,1.0,-1.0,-1.0,0.0,0.0,0.0,0.0,0.0,0.0,0.0,0.0,0.0,-0.0,0.0,-0.0,0.0,0
0.76,run,11.31,-7.75,6.15,-0.72,-12.49,0.0,-0.0,0.0,0.286,-16.79,13.97,88.95,-24.17,-8.26,83.32,-18.63,30.5,76.46,24.43,-1.67,102.39,6.24,24.79,82.09,-20.57,-5.71,95.54,-6.09,3.9,98.07,-30.09,-10.92,78.66,-27.26,28.5,68.24,30.26,7.35,109.01,-4.76,30.0,88.28,-12.09,-9.42,84.57,1.0,-1.0,0.8524,-1.0,0.3822,0.4039,-1.0,-1.0,1.0,1.0,-0.0853,1.0,-1.0,1.0,1.0,1.0,1.0,-1.0,0.006,0.0,0.026,0.0,0.0,0.0,0.026,0.019,0.286,0.006,0.058,0.071,0.019,0.065,0.013,0.006,0.013,0.0,-0.3022,-0.0644,0.1319,-0.3942,-0.4034,0.1028,-0.2961,0.1917,-0.0445,0.3958,-0.3191,0.3912,0.1258,0.0874,0.0506,-0.3651,-0.3896,0.3083,-0.0565,-0.2325,0.2667,-0.3193,-0.3371,-0.2283,-0.2877,0.1358,-0.2089,0.2958,-0.1103,0.2839,-0.0176,0.2763,-0.0768,-0.2052,-0.3366,0.1163,0.8185,-0.7064,0.0336,1.1676,-0.14,1.0,-1.0,1.0,-1.0,-1.0,-1.0,-1.0,1.0,-1.0,1.0,1.0,1.0,-1.0,1.0,0.2835,1.0,-1.0,-1.0,0.0,0.0,0.0,0.0,0.0,0.0,0.0,0.0,0.0,-0.0,0.0,-0.0,0.0,0
0.8,run,12.59,-7.38,27.83,13.61,-11.03,0.0,-0.0,0.0,0.286,-15.73,12.66,90.35,-25.49,-9.49,81.91,-20.13,30.5,75.23,25.84,-0.88,103.8,4.92,26.02,82.53,-20.39,-7.12,94.22,-4.59,2.4,96.57,-31.59,-12.42,77.16,-28.76,27.0,69.74,31.76,8.85,110.51,-6.26,30.0,86.78,-10.59,-7.92,83.07,1.0,-1.0,0.2702,-1.0,-1.0,-1.0,-1.0,-0.7102,1.0,1.0,1.0,1.0,-1.0,1.0,-1.0,1.0,0.3111,-1.0,0.006,0.0,0.026,0.0,0.0,0.0,0.026,0.019,0.286,0.006,0.058,0.071,0.019,0.065,0.013,0.006,0.013,0.0,-0.2915,-0.0859,0.1549,-0.4203,-0.4249,0.0813,-0.3206,0.1933,-0.066,0.4218,-0.3145,0.408,0.1104,0.1058,0.0491,-0.3574,-0.4065,0.2961,0.0009,-0.2437,0.2735,-0.3218,-0.3169,-0.2408,-0.294,0.1008,-0.2272,0.3054,-0.0599,0.2623,-0.0702,0.2628,-0.0595,-0.1147,-0.2992,0.0351,0.8826,-0.732,0.1073,-0.0126,-0.2181,1.0,-1.0,0.8524,-1.0,0.3822,0.4039,-1.0,-1.0,1.0,1.0,-0.0853,1.0,-1.0,1.0,1.0,1.0,1.0,-1.0,0.0,0.0,0.0,0.0,0.0,0.0,0.0,0.0,0.0,-0.0,0.0,-0.0,0.0,0
0.84,run,13.44,-7.08,21.48,4.13,-5.91,0.0,-0.0,0.0,0.286,-14.41,11.16,91.85,-26.72,-10.63,80.51,-21.36,29.97,73.92,27.25,0.44,105.38,3.52,27.25,83.41,-19.51,-8.26,93.43,-3.09,0.9,98.07,-33.09,-13.92,78.66,-30.26,25.5,71.24,30.26,10.35,112.01,-7.76,30.0,88.28,-9.09,-6.42,81.57,1.0,-1.0,1.0,-1.0,-1.0,0.8266,-1.0,-1.0,1.0,0.5021,1.0,1.0,-1.0,1.0,0.4984,1.0,1.0,-1.0,0.013,0.0,0.026,0.013,0.0,0.0,0.039,0.052,0.247,0.013,0.091,0.058,0.019,0.071,0.039,0.0,0.019,0.013,-0.273,-0.1089,0.1795,-0.4433,-0.4464,0.0568,-0.3467,0.1933,-0.0874,0.4464,-0.3007,0.4326,0.0874,0.1273,0.0568,-0.3543,-0.431,0.273,0.0696,-0.2568,0.2834,-0.3115,-0.3023,-0.2605,-0.3035,0.0706,-0.2395,0.3057,0.0098,0.2756,-0.1353,0.2645,-0.0129,-0.0688,-0.3014,-0.0616,0.9943,-0.6996,0.4858,0.2376,-0.1925,1.0,-1.0,0.2702,-1.0,-1.0,-1.0,-1.0,-0.7102,1.0,1.0,1.0,1.0,-1.0,1.0,-1.0,1.0,0.3111,-1.0,0.0,0.0,0.0,0.0,0.0,0.0,0.0,0.0,0.0,-0.0,0.0,-0.0,0.0,0
0.88,run,13.97,-6.78,14.78,8.45,-13.26,0.0,-0.0,0.0,0.286,-13.1,9.67,93.25,-28.04,-11.69,79.19,-22.85,29.09,72.95,28.39,1.76,106.79,2.2,28.04,84.46,-18.28,-9.14,91.85,-1.59,-0.6,99.57,-34.59,-15.42,80.16,-31.76,24.0,72.74,29.41,11.85,113.51,-9.26,30.0,86.78,-7.59,-4.92,80.07,1.0,-1.0,1.0,-1.0,-1.0,0.7709,-1.0,-1.0,1.0,0.8403,1.0,1.0,-1.0,1.0,-1.0,1.0,1.0,-1.0,0.013,0.0,0.026,0.013,0.0,0.0,0.039,0.052,0.247,0.013,0.091,0.058,0.019,0.071,0.039,0.0,0.019,0.013,-0.25,-0.135,0.2056,-0.4648,-0.4663,0.0322,-0.3682,0.1841,-0.1104,0.4709,-0.2777,0.4602,0.0629,0.1488,0.0721,-0.339,-0.451,0.2592,0.1346,-0.2771,0.2957,-0.2982,-0.2861,-0.274,-0.2926,0.0151,-0.2535,0.3056,0.0928,0.296,-0.1863,0.2653,0.0482,0.0091,-0.2854,-0.0947,1.0684,-0.6727,0.3749,0.072,-0.1031,1.0,-1.0,1.0,-1.0,-1.0,0.8266,-1.0,-1.0,1.0,0.5021,1.0,1.0,-1.0,1.0,0.4984,1.0,1.0,-1.0,0.0,0.0,0.0,0.0,0.0,0.0,0.0,0.0,0.0,-0.0,0.0,-0.0,0.0,0
0.92,run,14.01,-6.5,-0.05,0.17,0.13,0.0,-0.0,0.0,0.286,-0.79,-2.11,100.81,-34.63,-17.23,80.68,-32.61,23.29,74.71,28.12,11.16,111.45,-10.63,29.62,85.17,-5.98,-3.52,78.75,-0.09,-2.1,101.07,-35.0,-16.92,81.66,-33.26,22.5,74.24,27.91,13.35,112.01,-10.76,30.0,85.28,-6.09,-3.42,78.57,1.0,-1.0,1.0,-1.0,-1.0,1.0,-1.0,-1.0,1.0,-0.0893,1.0,-0.0729,-1.0,1.0,-0.8147,1.0,1.0,-1.0,0.033,0.0,0.0,0.006,0.0,0.065,0.013,0.045,0.006,0.006,0.13,0.026,0.0,0.013,0.0,0.0,0.0,0.0,-0.227,-0.1611,0.2301,-0.4878,-0.4847,0.0092,-0.3942,0.1687,-0.1273,0.4909,-0.2546,0.4847,0.0399,0.1626,0.0905,-0.3175,-0.4663,0.2316,0.1807,-0.292,0.2992,-0.2952,-0.2694,-0.2782,-0.3028,-0.0471,-0.2409,0.2889,0.1514,0.2994,-0.2169,0.2376,0.1029,0.087,-0.2574,-0.17,1.1147,-0.6472,0.2579,0.1476,-0.2314,1.0,-1.0,1.0,-1.0,-1.0,0.7709,-1.0,-1.0,1.0,0.8403,1.0,1.0,-1.0,1.0,-1.0,1.0,1.0,-1.0,0.0,0.0,0.0,0.0,0.0,0.0,0.0,0.0,0.0,-0.0,0.0,-0.0,0.0,0
0.96,run,14.12,-6.47,-0.04,-0.07,0.72,0.0,-0.0,0.0,0.286,-0.79,-2.11,100.81,-34.63,-17.23,80.68,-32.61,23.29,74.71,28.12,11.16,111.45,-10.63,29.62,85.17,-5.98,-3.52,78.75,1.41,-3.6,102.57,-35.0,-18.42,83.16,-34.76,24.0,75.74,26.41,14.85,110.51,-12.26,30.0,83.78,-4.59,-1.92,77.07,1.0,-1.0,1.0,-1.0,-0.4541,1.0,-1.0,1.0,1.0,-1.0,1.0,-1.0,-1.0,1.0,-1.0,1.0,1.0,-1.0,0.033,0.0,0.0,0.006,0.0,0.065,0.013,0.045,0.006,0.006,0.13,0.026,0.0,0.013,0.0,0.0,0.0,0.0,-0.0123,-0.3666,0.362,-0.6029,-0.5814,0.0353,-0.5645,0.0675,-0.0966,0.4863,-0.0905,0.566,-0.1841,0.1902,0.1028,-0.1028,-0.3682,0.0031,0.1807,-0.292,0.2992,-0.2952,-0.2694,-0.2782,-0.3028,-0.0471,-0.2409,0.2889,0.1514,0.2994,-0.2169,0.2376,0.1029,0.087,-0.2574,-0.17,1.1182,-0.6223,-0.0009,0.003,0.0023,1.0,-1.0,1.0,-1.0,-1.0,1.0,-1.0,-1.0,1.0,-0.0893,1.0,-0.0729,-1.0,1.0,-0.8147,1.0,1.0,-1.0,0.0,0.0,0.0,0.0,0.0,0.0,0.0,0.0,0.0,-0.0,0.0,-0.0,0.0,0
1.0,run,14.27,-6.41,0.67,0.49,0.06,0.0,-0.0,0.0,0.286,-0.79,-2.2,100.81,-34.63,-17.31,80.68,-32.7,23.29,74.71,28.12,11.16,111.45,-10.63,29.62,85.17,-5.98,-3.52,78.75,2.91,-5.1,104.07,-35.0,-19.92,84.66,-35.0,22.5,77.24,24.91,16.35,109.01,-13.76,30.0,82.28,-3.09,-0.42,75.57,1.0,-1.0,1.0,-1.0,-1.0,1.0,-1.0,0.0782,1.0,-1.0,1.0,-0.8895,-1.0,1.0,-1.0,1.0,1.0,-1.0,0.033,0.0,0.0,0.006,0.0,0.065,0.013,0.045,0.006,0.006,0.13,0.026,0.0,0.013,0.0,0.0,0.0,0.0,-0.0123,-0.3666,0.362,-0.6029,-0.5814,0.0353,-0.5645,0.0675,-0.0966,0.4863,-0.0905,0.566,-0.1841,0.1902,0.1028,-0.1028,-0.3682,0.0031,0.1265,-0.2044,0.2094,-0.2066,-0.1886,-0.1948,-0.212,-0.033,-0.1686,0.2022,0.106,0.2096,-0.1518,0.1663,0.072,0.0609,-0.1802,-0.119,1.1279,-0.6201,-0.0007,-0.0013,0.0126,1.0,-1.0,1.0,-1.0,-0.4541,1.0,-1.0,1.0,1.0,-1.0,1.0,-1.0,-1.0,1.0,-1.0,1.0,1.0,-1.0,0.0,0.0,0.0,0.0,0.0,0.0,0.0,0.0,0.0,-0.0,0.0,-0.0,0.0,0
1.04,run,14.67,-6.14,7.83,6.74,-0.84,0.0,-0.002,0.0,0.286,-0.35,-2.64,101.07,-34.63,-17.75,81.12,-33.13,23.2,75.32,27.6,11.6,110.92,-10.9,29.62,84.81,-5.8,-3.25,78.22,1.41,-6.6,102.57,-35.0,-21.42,86.16,-35.0,21.0,78.74,23.41,17.85,107.51,-12.26,28.5,80.78,-1.59,-1.92,77.07,-0.2579,-1.0,-0.8149,-1.0,-1.0,1.0,-1.0,-1.0,1.0,-1.0,1.0,-1.0,1.0,0.9119,-0.7696,1.0,-1.0,1.0,0.045,0.0,0.006,0.006,0.0,0.097,0.026,0.078,0.0,0.019,0.195,0.0,0.013,0.006,0.0,0.019,0.006,0.006,-0.0123,-0.3682,0.362,-0.6029,-0.5829,0.0353,-0.566,0.0675,-0.0966,0.4863,-0.0905,0.566,-0.1841,0.1902,0.1028,-0.1028,-0.3682,0.0031,0.0885,-0.1487,0.1466,-0.1446,-0.1377,-0.1363,-0.154,-0.0231,-0.118,0.1415,0.0742,0.1467,-0.1063,0.1164,0.0504,0.0426,-0.1261,-0.0833,1.1409,-0.615,0.0117,0.0085,0.0011,1.0,-1.0,1.0,-1.0,-1.0,1.0,-1.0,0.0782,1.0,-1.0,1.0,-0.8895,-1.0,1.0,-1.0,1.0,1.0,-1.0,0.0,0.0,0.0,0.0,0.0,0.0,0.0,0.0,0.0,-0.0133,0.0,-0.0133,0.0,3
1.08,run,15.04,-5.87,6.46,6.94,-0.81,0.0,-0.004,0.0,0.286,0.18,-3.34,101.78,-34.63,-18.46,81.91,-33.66,22.94,75.94,26.89,12.3,110.13,-11.78,29.53,83.85,-4.48,-2.64,77.7,-0.09,-8.1,101.07,-35.0,-22.92,87.66,-35.0,19.5,80.24,21.91,16.35,106.01,-10.76,30.0,82.28,-0.09,-3.42,78.57,-0.7536,-1.0,-1.0,-1.0,-1.0,1.0,-1.0,-1.0,1.0,-1.0,-0.8716,-1.0,1.0,1.0,1.0,1.0,-1.0,1.0,0.045,0.0,0.006,0.006,0.0,0.097,0.026,0.078,0.0,0.019,0.195,0.0,0.013,0.006,0.0,0.019,0.006,0.006,-0.0046,-0.3758,0.3666,-0.6029,-0.5906,0.043,-0.5737,0.066,-0.0859,0.4771,-0.0828,0.5568,-0.1887,0.1902,0.0966,-0.0997,-0.3636,-0.0061,0.0909,-0.133,0.12,-0.1012,-0.1253,-0.0665,-0.1367,-0.0219,-0.0422,0.0644,0.0808,0.068,-0.0917,0.0815,0.0122,0.0414,-0.071,-0.093,1.1756,-0.5913,0.1366,0.1176,-0.0146,-0.2579,-1.0,-0.8149,-1.0,-1.0,1.0,-1.0,-1.0,1.0,-1.0,1.0,-1.0,1.0,0.9119,-0.7696,1.0,-1.0,1.0,0.0,0.0,0.0,0.0,0.0,0.0,0.0,0.0,0.0,-0.0267,0.0,-0.0267,0.0,3
1.12,run,15.45,-5.53,7.2,9.21,0.41,0.0,-0.006,0.0,0.286,0.53,-4.31,102.13,-34.63,-19.42,82.79,-34.1,22.24,76.82,25.93,13.1,109.34,-12.13,29.36,82.97,-3.87,-2.2,77.34,1.41,-9.6,99.57,-35.0,-24.42,89.16,-35.0,18.0,81.74,20.41,14.85,104.51,-9.26,30.0,83.78,1.41,-4.92,80.07,0.3183,-1.0,-1.0,-1.0,-1.0,0.989,-1.0,-1.0,1.0,-1.0,-0.6384,-1.0,1.0,1.0,1.0,1.0,-1.0,1.0,0.045,0.0,0.006,0.006,0.0,0.097,0.026,0.078,0.0,0.019,0.195,0.0,0.013,0.006,0.0,0.019,0.006,0.006,0.0046,-0.3881,0.3789,-0.6029,-0.6029,0.0568,-0.5829,0.0614,-0.0752,0.4648,-0.0706,0.543,-0.204,0.1887,0.0798,-0.0767,-0.3528,-0.0153,0.0981,-0.1391,0.13,-0.0709,-0.1337,0.0052,-0.1302,-0.0326,0.0107,-0.0009,0.1026,-0.0041,-0.1217,0.0513,-0.0547,0.1152,-0.0094,-0.0996,1.2075,-0.5673,0.1127,0.1212,-0.0142,-0.7536,-1.0,-1.0,-1.0,-1.0,1.0,-1.0,-1.0,1.0,-1.0,-0.8716,-1.0,1.0,1.0,1.0,1.0,-1.0,1.0,0.0,0.0,0.0,0.0,0.0,0.0,0.0,0.0,0.0,-0.04,0.0,-0.04,0.0,3
1.16,run,15.99,-5.31,12.28,5.43,1.29,0.0,-0.008,0.0,0.286,0.53,-5.54,102.48,-34.63,-20.74,84.2,-34.28,21.36,77.96,24.79,13.71,108.02,-12.13,29.09,82.35,-2.37,-2.2,77.34,2.91,-11.1,98.07,-33.5,-25.92,90.66,-35.0,16.5,83.24,18.91,13.35,103.01,-7.76,30.0,85.28,2.91,-6.42,81.57,1.0,-1.0,-1.0,-0.6241,-1.0,0.8301,-1.0,-1.0,1.0,-1.0,-0.417,-1.0,1.0,1.0,1.0,1.0,-1.0,1.0,0.091,0.0,0.026,0.0,0.0,0.13,0.013,0.084,0.0,0.071,0.136,0.0,0.013,0.006,0.006,0.0,0.013,0.006,0.0107,-0.405,0.385,-0.6029,-0.6197,0.0721,-0.5906,0.0491,-0.0598,0.4479,-0.0568,0.5292,-0.2102,0.1856,0.0644,-0.066,-0.3451,-0.0215,0.0916,-0.1605,0.114,-0.0496,-0.1568,0.0611,-0.1199,-0.0688,0.0649,-0.0638,0.1235,-0.0546,-0.1082,0.0244,-0.0957,0.1209,0.0221,-0.0927,1.2434,-0.5382,0.1256,0.1607,0.0071,0.3183,-1.0,-1.0,-1.0,-1.0,0.989,-1.0,-1.0,1.0,-1.0,-0.6384,-1.0,1.0,1.0,1.0,1.0,-1.0,1.0,0.0,0.0,0.0,0.0,0.0,0.0,0.0,0.0,0.0,-0.0533,0.0,-0.0533,0.0,3
1.2,run,16.38,-5.09,7.7,6.32,-5.94,0.0,-0.01,0.0,0.286,0.7,-6.86,102.22,-34.63,-22.24,85.61,-34.37,20.04,79.28,23.47,14.06,106.61,-11.6,29.62,82.0,-0.88,-2.37,77.78,4.41,-12.6,96.57,-32.0,-27.42,92.16,-35.0,15.0,84.74,17.41,11.85,101.51,-6.26,30.0,86.78,4.41,-7.92,83.07,1.0,-1.0,-1.0,0.5467,-1.0,0.4825,-1.0,-1.0,1.0,-1.0,0.0335,-1.0,1.0,1.0,1.0,1.0,-1.0,1.0,0.091,0.0,0.026,0.0,0.0,0.13,0.013,0.084,0.0,0.071,0.136,0.0,0.013,0.006,0.006,0.0,0.013,0.006,0.0107,-0.4264,0.3912,-0.6029,-0.6427,0.0966,-0.5937,0.0337,-0.0399,0.428,-0.046,0.5062,-0.2102,0.181,0.0537,-0.0399,-0.3451,-0.0215,0.0642,-0.193,0.1028,-0.0347,-0.1961,0.1348,-0.0954,-0.1057,0.1203,-0.1195,0.1267,-0.1246,-0.0757,-0.0002,-0.1073,0.1825,0.0155,-0.0649,1.2904,-0.5185,0.2142,0.0948,0.0224,1.0,-1.0,-1.0,-0.6241,-1.0,0.8301,-1.0,-1.0,1.0,-1.0,-0.417,-1.0,1.0,1.0,1.0,1.0,-1.0,1.0,0.0,0.0,0.0,0.0,0.0,0.0,0.0,0.0,0.0,-0.0667,0.0,-0.0667,0.0,3
1.24,run,16.53,-3.82,0.1,7.86,15.39,0.0,-0.012,0.0,0.286,4.04,-11.87,98.09,-32.17,-27.51,90.79,-34.54,15.56,84.29,18.11,13.62,101.69,-6.94,29.88,84.73,4.39,-6.59,82.0,5.91,-14.1,95.07,-30.5,-28.92,93.66,-35.0,13.5,86.24,15.91,10.35,100.01,-4.76,30.0,88.28,5.91,-9.42,84.57,1.0,-1.0,-1.0,1.0,-1.0,0.3585,-1.0,-1.0,1.0,-1.0,-0.0639,-1.0,1.0,1.0,1.0,1.0,-1.0,1.0,0.071,0.0,0.033,0.019,0.0,0.13,0.013,0.058,0.0,0.033,0.0,0.006,0.006,0.0,0.013,0.006,0.026,0.013,0.0138,-0.4495,0.3866,-0.6029,-0.6688,0.1212,-0.5952,0.0107,-0.0169,0.405,-0.0399,0.4817,-0.201,0.1902,0.0476,-0.0138,-0.3482,-0.0138,0.0564,-0.2213,0.0547,-0.0243,-0.235,0.1864,-0.0725,-0.1602,0.1704,-0.1699,0.1117,-0.1792,-0.0185,0.0344,-0.0981,0.2255,-0.0007,-0.0167,1.3244,-0.4998,0.1344,0.1104,-0.1036,1.0,-1.0,-1.0,0.5467,-1.0,0.4825,-1.0,-1.0,1.0,-1.0,0.0335,-1.0,1.0,1.0,1.0,1.0,-1.0,1.0,0.0,0.0,0.0,0.0,0.0,0.0,0.0,0.0,0.0,-0.08,0.0,-0.08,0.0,3
1.28,run,16.44,-3.86,-4.44,-2.2,17.48,0.0,-0.014,0.0,0.286,4.75,-13.1,96.94,-31.38,-28.48,91.85,-34.54,14.68,85.34,17.23,12.3,100.72,-5.8,29.88,86.31,5.1,-7.73,83.14,7.41,-15.6,93.57,-29.0,-30.42,92.16,-35.0,12.0,87.74,14.41,8.85,98.51,-3.26,30.0,89.78,7.41,-10.92,86.07,1.0,-1.0,-1.0,1.0,-1.0,-0.3754,-1.0,-1.0,1.0,-1.0,-0.7788,-1.0,1.0,1.0,1.0,1.0,-1.0,1.0,0.071,0.0,0.033,0.019,0.0,0.13,0.013,0.058,0.0,0.033,0.0,0.006,0.006,0.0,0.013,0.006,0.026,0.013,0.0721,-0.5369,0.3145,-0.5599,-0.7609,0.2117,-0.5983,-0.0675,0.0706,0.3114,-0.0476,0.3958,-0.1197,0.1948,0.0951,0.0782,-0.4218,0.0598,0.0954,-0.2389,-0.0309,0.0242,-0.2529,0.2174,-0.0537,-0.1873,0.2033,-0.2088,0.0708,-0.2079,0.0651,0.0285,-0.023,0.2462,-0.0711,0.059,1.3379,-0.3883,0.0017,0.1372,0.2686,1.0,-1.0,-1.0,1.0,-1.0,0.3585,-1.0,-1.0,1.0,-1.0,-0.0639,-1.0,1.0,1.0,1.0,1.0,-1.0,1.0,0.0,0.0,0.0,0.0,0.0,0.0,0.0,0.0,0.0,-0.0933,0.0,-0.0933,0.0,3
1.32,run,16.48,-3.82,0.33,1.35,10.76,0.0,-0.016,0.0,0.286,5.19,-13.71,96.24,-31.03,-29.0,92.37,-34.54,14.41,85.96,16.7,11.25,100.28,-5.1,29.88,87.28,5.89,-8.44,83.94,8.91,-17.1,92.07,-27.5,-31.92,93.66,-35.0,10.5,89.24,12.91,7.35,97.01,-1.76,30.0,91.28,8.91,-12.42,87.57,1.0,-1.0,-1.0,1.0,-1.0,0.5543,-1.0,-1.0,1.0,-1.0,-0.0031,-1.0,1.0,1.0,1.0,1.0,-1.0,1.0,0.071,0.0,0.033,0.019,0.0,0.13,0.013,0.058,0.0,0.033,0.0,0.006,0.006,0.0,0.013,0.006,0.026,0.013,0.0844,-0.5584,0.2945,-0.5461,-0.7777,0.2301,-0.5983,-0.0828,0.089,0.2961,-0.0706,0.3789,-0.0997,0.1948,0.1227,0.0905,-0.4418,0.0798,0.104,-0.2322,-0.082,0.0588,-0.2281,0.2079,-0.0376,-0.1775,0.198,-0.1926,-0.0201,-0.1966,0.106,0.0199,0.0675,0.2095,-0.1102,0.1017,1.3304,-0.3922,-0.0775,-0.0384,0.3051,1.0,-1.0,-1.0,1.0,-1.0,-0.3754,-1.0,-1.0,1.0,-1.0,-0.7788,-1.0,1.0,1.0,1.0,1.0,-1.0,1.0,0.0,0.0,0.0,0.0,0.0,0.0,0.0,0.0,0.0,-0.1067,0.0,-0.1067,0.0,3
1.36,run,16.45,-3.77,-3.79,1.71,8.67,0.0,-0.018,0.0,0.286,5.8,-14.59,95.19,-30.59,-29.79,92.55,-34.54,13.8,86.66,15.91,10.2,99.58,-4.31,29.88,88.42,6.15,-9.23,84.73,10.41,-18.6,90.57,-26.0,-33.42,92.16,-35.0,9.0,90.74,11.41,5.85,95.51,-0.26,30.0,92.78,10.41,-13.92,89.07,1.0,-1.0,-1.0,1.0,-1.0,0.0657,-1.0,-1.0,1.0,-1.0,0.4304,-1.0,1.0,1.0,1.0,1.0,-1.0,1.0,0.026,0.0,0.0,0.026,0.0,0.039,0.013,0.097,0.0,0.065,0.0,0.019,0.006,0.006,0.013,0.013,0.026,0.013,0.092,-0.5691,0.2823,-0.54,-0.7869,0.2393,-0.5983,-0.0874,0.0997,0.2869,-0.089,0.3712,-0.0874,0.1948,0.1396,0.1043,-0.4541,0.0936,0.1013,-0.2025,-0.1031,0.0639,-0.1939,0.1797,-0.0263,-0.1414,0.1785,-0.169,-0.0825,-0.1662,0.1198,0.014,0.11,0.198,-0.1228,0.1225,1.3333,-0.3889,0.0057,0.0235,0.1878,1.0,-1.0,-1.0,1.0,-1.0,0.5543,-1.0,-1.0,1.0,-1.0,-0.0031,-1.0,1.0,1.0,1.0,1.0,-1.0,1.0,0.0,0.0,0.0,0.0,0.0,0.0,0.0,0.0,0.0,-0.12,0.0,-0.12,0.0,3
1.4,run,15.65,-3.35,-24.96,10.7,-11.12,0.0,-0.02,0.0,0.286,6.86,-15.47,93.78,-30.06,-30.67,92.55,-34.54,12.83,87.71,14.68,8.96,98.0,-3.08,29.62,89.74,8.09,-10.37,85.69,11.91,-20.1,89.07,-24.5,-34.92,93.66,-35.0,7.5,92.24,9.91,7.35,94.01,1.24,30.0,94.28,11.91,-15.42,90.57,1.0,-1.0,-1.0,1.0,-1.0,0.523,-1.0,-1.0,1.0,-1.0,0.6652,-1.0,1.0,1.0,1.0,1.0,-1.0,1.0,0.026,0.0,0.0,0.026,0.0,0.039,0.013,0.097,0.0,0.065,0.0,0.019,0.006,0.006,0.013,0.013,0.026,0.013,0.1028,-0.5844,0.2638,-0.5323,-0.8007,0.2424,-0.5983,-0.0982,0.112,0.273,-0.1074,0.359,-0.0736,0.1948,0.1595,0.1089,-0.4679,0.1074,0.1112,-0.1993,-0.1412,0.0736,-0.1875,0.1373,-0.0184,-0.1393,0.171,-0.1701,-0.1268,-0.1624,0.1357,0.0098,0.1518,0.1559,-0.1378,0.1376,1.3306,-0.3841,-0.0661,0.0298,0.1513,1.0,-1.0,-1.0,1.0,-1.0,0.0657,-1.0,-1.0,1.0,-1.0,0.4304,-1.0,1.0,1.0,1.0,1.0,-1.0,1.0,0.0,0.0,0.0,0.0,0.0,0.0,0.0,0.0,0.0,-0.1333,0.0,-0.1333,0.0,3
1.44,run,15.79,-2.95,1.56,10.65,-0.51,0.0,-0.022,0.0,0.286,7.82,-16.7,92.99,-29.18,-31.82,92.55,-34.54,11.6,88.86,13.36,7.91,97.12,-1.76,29.71,91.05,8.44,-11.43,87.1,13.41,-21.6,90.57,-23.0,-36.42,95.16,-35.0,6.0,93.74,8.41,5.85,92.51,2.74,28.5,92.78,13.41,-16.92,92.07,0.4909,-1.0,0.6392,1.0,-1.0,0.8304,-1.0,-1.0,1.0,-1.0,0.3066,-1.0,1.0,-0.3847,-0.679,1.0,-1.0,1.0,0.026,0.0,0.0,0.026,0.0,0.039,0.013,0.097,0.0,0.065,0.0,0.019,0.006,0.006,0.013,0.013,0.026,0.013,0.1212,-0.5998,0.2393,-0.5231,-0.8161,0.2424,-0.5983,-0.115,0.1304,0.2516,-0.1289,0.3313,-0.0522,0.1902,0.1825,0.1427,-0.4878,0.1243,0.1468,-0.197,-0.1908,0.086,-0.1888,0.0961,-0.0129,-0.1607,0.1887,-0.1996,-0.1693,-0.2171,0.1755,-0.0104,0.1925,0.2356,-0.1712,0.1595,1.2609,-0.3473,-0.4357,0.1867,-0.1941,1.0,-1.0,-1.0,1.0,-1.0,0.523,-1.0,-1.0,1.0,-1.0,0.6652,-1.0,1.0,1.0,1.0,1.0,-1.0,1.0,0.0,0.0,0.0,0.0,0.0,0.0,0.0,0.0,0.0,-0.1467,0.0,-0.1467,0.0,3
1.48,run,15.47,-2.48,-10.7,7.55,18.06,0.0,-0.024,0.0,0.286,9.14,-18.02,91.58,-27.86,-33.05,92.46,-34.54,10.2,90.18,11.87,7.12,95.45,-0.44,29.27,92.46,10.63,-12.83,88.24,11.91,-23.1,89.07,-21.5,-37.92,93.66,-35.0,4.5,95.24,6.91,7.35,91.01,4.24,30.0,94.28,14.91,-18.42,93.57,0.2377,-1.0,-0.695,1.0,-1.0,-0.8474,-1.0,-1.0,1.0,-1.0,1.0,-1.0,1.0,1.0,1.0,1.0,-1.0,1.0,0.033,0.006,0.0,0.039,0.006,0.039,0.013,0.071,0.0,0.019,0.006,0.0,0.013,0.0,0.0,0.013,0.026,0.026,0.1381,-0.6213,0.2255,-0.5077,-0.836,0.2424,-0.5983,-0.1365,0.1503,0.2286,-0.1473,0.316,-0.0291,0.1917,0.2056,0.1488,-0.5062,0.1488,0.166,-0.2184,-0.1853,0.1177,-0.2069,0.0673,-0.009,-0.193,0.2069,-0.226,-0.1875,-0.2095,0.2091,-0.0015,0.221,0.1879,-0.1888,0.2037,1.2735,-0.3124,0.0272,0.1858,-0.0089,0.4909,-1.0,0.6392,1.0,-1.0,0.8304,-1.0,-1.0,1.0,-1.0,0.3066,-1.0,1.0,-0.3847,-0.679,1.0,-1.0,1.0,0.0,0.0,0.0,0.0,0.0,0.0,0.0,0.0,0.0,-0.16,0.0,-0.16,0.0,3
1.52,run,15.51,-1.4,0.48,27.19,5.11,0.0,-0.026,0.0,0.286,10.72,-19.42,90.18,-26.46,-34.37,92.64,-34.54,8.7,91.49,10.37,6.5,94.31,1.05,29.0,93.34,11.16,-14.24,89.56,13.41,-24.6,87.57,-20.0,-39.42,95.16,-35.0,3.0,96.74,5.41,8.85,89.51,5.74,28.5,92.78,16.41,-19.92,95.07,0.7175,-1.0,0.0422,1.0,-1.0,0.7293,-1.0,-1.0,1.0,-1.0,0.7062,-1.0,1.0,0.188,0.1056,1.0,-1.0,1.0,0.033,0.006,0.0,0.039,0.006,0.039,0.013,0.071,0.0,0.019,0.006,0.0,0.013,0.0,0.0,0.013,0.026,0.026,0.1611,-0.6443,0.201,-0.4847,-0.8575,0.2408,-0.5983,-0.1611,0.1733,0.2025,-0.1611,0.2869,-0.0061,0.1841,0.2301,0.1871,-0.5308,0.1687,0.2026,-0.2393,-0.2219,0.1688,-0.2255,0.0413,-0.0063,-0.2273,0.2312,-0.2561,-0.1831,-0.2561,0.2327,-0.0299,0.2469,0.2755,-0.2243,0.2175,1.2451,-0.2714,-0.1868,0.1317,0.3153,0.2377,-1.0,-0.695,1.0,-1.0,-0.8474,-1.0,-1.0,1.0,-1.0,1.0,-1.0,1.0,1.0,1.0,1.0,-1.0,1.0,0.0,0.0,0.0,0.0,0.0,0.0,0.0,0.0,0.0,-0.1733,0.0,-0.1733,0.0,3
1.56,run,15.52,-1.03,-1.34,9.38,14.32,0.0,-0.028,0.0,0.286,11.69,-20.74,90.26,-25.14,-35.68,93.25,-34.54,7.21,92.81,8.79,6.33,92.81,2.46,29.0,93.87,13.1,-15.47,91.23,14.91,-26.1,86.07,-18.5,-40.92,93.66,-35.0,1.5,98.24,3.91,7.35,88.01,7.24,27.0,94.28,17.91,-18.42,96.57,0.871,-0.761,0.152,1.0,-1.0,-1.0,-1.0,-1.0,1.0,-1.0,-0.251,-1.0,1.0,-0.1807,1.0,1.0,0.8645,1.0,0.033,0.006,0.0,0.039,0.006,0.039,0.013,0.071,0.0,0.019,0.006,0.0,0.013,0.0,0.0,0.013,0.026,0.026,0.1887,-0.6688,0.1764,-0.4602,-0.8805,0.2439,-0.5983,-0.1871,0.1963,0.1764,-0.1718,0.2669,0.0199,0.1795,0.2454,0.1963,-0.5553,0.1917,0.2453,-0.2595,-0.2473,0.2101,-0.244,0.0404,-0.0044,-0.2568,0.248,-0.277,-0.1684,-0.254,0.2606,-0.0382,0.2303,0.2273,-0.249,0.2384,1.2491,-0.1778,0.0084,0.4745,0.0892,0.7175,-1.0,0.0422,1.0,-1.0,0.7293,-1.0,-1.0,1.0,-1.0,0.7062,-1.0,1.0,0.188,0.1056,1.0,-1.0,1.0,0.0,0.0,0.0,0.0,0.0,0.0,0.0,0.0,0.0,-0.1867,0.0,-0.1867,0.0,3
1.6,run,15.64,-0.84,-0.21,4.22,9.96,0.0,-0.03,0.0,0.286,12.48,-21.97,88.86,-23.64,-37.0,93.78,-34.54,5.8,94.22,7.47,6.42,91.41,3.69,28.39,94.13,14.33,-16.88,92.2,16.41,-27.6,84.57,-17.0,-42.42,95.16,-35.0,0.0,99.74,2.41,8.85,86.51,8.74,25.5,95.78,19.41,-19.92,98.07,0.8678,-1.0,-1.0,1.0,-1.0,0.3577,-1.0,-1.0,1.0,-1.0,1.0,-1.0,1.0,0.2297,1.0,1.0,-0.8768,1.0,0.033,0.006,0.0,0.039,0.006,0.019,0.006,0.078,0.006,0.013,0.006,0.019,0.006,0.013,0.006,0.039,0.019,0.026,0.2056,-0.6918,0.1779,-0.4372,-0.9035,0.2546,-0.5983,-0.2132,0.2194,0.1488,-0.1749,0.2408,0.0445,0.1795,0.2546,0.2301,-0.5768,0.2209,0.235,-0.2679,-0.1673,0.2334,-0.2571,0.0686,-0.0031,-0.2775,0.2599,-0.2974,-0.1294,-0.2756,0.2745,-0.0267,0.1957,0.2857,-0.2548,0.2762,1.2498,-0.145,-0.0233,0.1637,0.2499,0.871,-0.761,0.152,1.0,-1.0,-1.0,-1.0,-1.0,1.0,-1.0,-0.251,-1.0,1.0,-0.1807,1.0,1.0,0.8645,1.0,0.0,0.0,0.0,0.0,0.0,0.0,0.0,0.0,0.0,-0.2,0.0,-0.2,0.0,3
1.64,run,15.77,-0.04,1.14,21.58,-3.11,0.0,-0.032,0.0,0.286,13.89,-23.55,87.36,-22.15,-38.32,94.13,-34.54,4.39,95.54,5.98,6.59,90.0,5.01,27.95,94.48,15.82,-17.93,93.6,17.91,-29.1,83.07,-15.5,-43.92,93.66,-35.0,-1.5,101.24,0.91,7.35,85.01,10.24,24.0,97.28,20.91,-18.42,99.57,1.0,-1.0,-0.4149,1.0,-1.0,0.0529,-1.0,-1.0,1.0,-1.0,0.1254,-1.0,1.0,0.4796,1.0,1.0,0.146,1.0,0.033,0.006,0.0,0.039,0.006,0.019,0.006,0.078,0.006,0.013,0.006,0.019,0.006,0.013,0.006,0.039,0.019,0.026,0.2194,-0.7133,0.1534,-0.4111,-0.9265,0.2638,-0.5983,-0.2378,0.2439,0.1258,-0.1733,0.2163,0.066,0.1687,0.2592,0.2516,-0.6013,0.2378,0.2163,-0.2681,-0.2093,0.2612,-0.2663,0.0825,-0.0022,-0.2864,0.2741,-0.2946,-0.0848,-0.285,0.2727,-0.059,0.1543,0.2806,-0.2705,0.2567,1.2607,-0.129,-0.0036,0.0736,0.1739,0.8678,-1.0,-1.0,1.0,-1.0,0.3577,-1.0,-1.0,1.0,-1.0,1.0,-1.0,1.0,0.2297,1.0,1.0,-0.8768,1.0,0.0,0.0,0.0,0.0,0.0,0.0,0.0,0.0,0.0,-0.2133,0.0,-0.2133,0.0,3
1.68,run,15.84,0.77,-1.46,22.07,-8.03,0.0,-0.034,0.0,0.286,14.94,-24.87,86.31,-20.74,-39.81,94.66,-34.54,2.9,96.94,4.57,7.29,88.68,6.59,26.72,95.1,17.23,-18.63,95.45,19.41,-30.6,81.57,-14.0,-45.42,92.16,-35.0,-3.0,102.74,-0.59,5.85,83.51,11.74,22.5,98.78,22.41,-16.92,101.07,1.0,-0.8995,0.1407,1.0,-1.0,-1.0,-1.0,-1.0,1.0,-1.0,-0.169,-1.0,1.0,0.0232,1.0,1.0,1.0,1.0,0.033,0.006,0.0,0.039,0.006,0.019,0.006,0.078,0.006,0.013,0.006,0.019,0.006,0.013,0.006,0.039,0.019,0.026,0.2439,-0.7409,0.1273,-0.385,-0.9495,0.27,-0.5983,-0.2623,0.2669,0.0997,-0.1703,0.1917,0.089,0.1611,0.2654,0.2777,-0.6197,0.2623,0.2439,-0.2918,-0.2448,0.2812,-0.2732,0.0809,-0.0015,-0.293,0.2786,-0.3045,-0.0478,-0.292,0.2776,-0.0702,0.1311,0.2947,-0.2587,0.2722,1.2719,-0.0588,0.0199,0.3767,-0.0543,1.0,-1.0,-0.4149,1.0,-1.0,0.0529,-1.0,-1.0,1.0,-1.0,0.1254,-1.0,1.0,0.4796,1.0,1.0,0.146,1.0,0.0,0.0,0.0,0.0,0.0,0.0,0.0,0.0,0.0,-0.2267,0.0,-0.2267,0.0,3
1.72,run,15.91,1.64,-0.32,23.1,-6.99,0.0,-0.036,0.0,0.286,16.17,-26.37,85.08,-19.16,-41.13,94.66,-34.54,1.49,98.35,3.16,7.91,87.19,7.91,25.4,96.06,18.63,-19.16,96.33,20.04,-32.1,80.07,-12.5,-46.92,90.66,-35.0,-4.5,104.24,-2.09,4.35,82.01,13.24,21.0,100.28,23.91,-15.42,102.57,0.5725,-0.9416,-0.1929,1.0,-1.0,-0.9981,-1.0,-1.0,1.0,-1.0,0.2467,-1.0,1.0,0.3354,1.0,1.0,1.0,0.9795,0.026,0.006,0.019,0.033,0.006,0.0,0.006,0.052,0.006,0.006,0.0,0.013,0.013,0.0,0.006,0.0,0.006,0.019,0.2623,-0.7639,0.1089,-0.3605,-0.9756,0.2792,-0.5983,-0.2884,0.2915,0.0752,-0.158,0.1687,0.1166,0.1396,0.2761,0.3022,-0.632,0.2945,0.2398,-0.2905,-0.2404,0.2888,-0.289,0.0911,-0.0011,-0.3029,0.287,-0.3052,0.0126,-0.2907,0.2979,-0.1297,0.132,0.2983,-0.2271,0.3113,1.2778,0.0115,-0.0254,0.3851,-0.1401,1.0,-0.8995,0.1407,1.0,-1.0,-1.0,-1.0,-1.0,1.0,-1.0,-0.169,-1.0,1.0,0.0232,1.0,1.0,1.0,1.0,0.0,0.0,0.0,0.0,0.0,0.0,0.0,0.0,0.0,-0.24,0.0,-0.24,0.0,3
1.76,run,16.06,2.82,0.33,31.26,-6.79,0.0,-0.038,0.0,0.286,17.49,-27.86,83.67,-17.75,-42.54,94.13,-34.54,-0.09,99.67,1.76,8.09,85.78,9.32,23.99,97.29,20.04,-19.34,98.17,21.54,-33.6,78.57,-11.0,-48.42,89.16,-35.0,-6.0,105.74,-3.59,2.85,80.51,14.74,19.5,101.78,25.41,-13.92,104.07,0.7325,-0.5784,0.1461,1.0,-1.0,-1.0,-1.0,-1.0,1.0,-1.0,-0.4095,-1.0,1.0,0.7389,1.0,1.0,1.0,0.5925,0.026,0.006,0.019,0.033,0.006,0.0,0.006,0.052,0.006,0.006,0.0,0.013,0.013,0.0,0.006,0.0,0.006,0.019,0.2838,-0.79,0.0874,-0.3329,-0.9986,0.2792,-0.5983,-0.3129,0.316,0.0506,-0.1473,0.1427,0.1396,0.1166,0.293,0.3267,-0.6412,0.3099,0.2479,-0.3006,-0.2483,0.3052,-0.2881,0.0638,-0.0007,-0.3035,0.2924,-0.3051,0.0488,-0.3007,0.2943,-0.1766,0.1554,0.3004,-0.1933,0.2751,1.2842,0.0874,-0.0056,0.4032,-0.122,0.5725,-0.9416,-0.1929,1.0,-1.0,-0.9981,-1.0,-1.0,1.0,-1.0,0.2467,-1.0,1.0,0.3354,1.0,1.0,1.0,0.9795,0.0,0.0,0.0,0.0,0.0,0.0,0.0,0.0,0.0,-0.2533,0.0,-0.2533,0.0,3
1.8,run,16.25,4.27,2.7,38.38,-6.88,0.0,-0.04,0.0,0.286,18.54,-29.27,82.35,-16.26,-43.86,93.69,-34.54,-1.49,100.99,0.26,8.0,84.38,10.72,22.59,98.61,21.53,-19.25,99.4,23.04,-32.1,80.07,-9.5,-49.92,87.66,-35.0,-7.5,107.24,-5.09,1.35,79.01,16.24,18.0,103.28,26.91,-12.42,102.57,1.0,0.0153,0.617,1.0,-1.0,-1.0,-1.0,-1.0,1.0,-1.0,-0.7119,-1.0,1.0,0.649,1.0,1.0,1.0,-0.6673,0.026,0.006,0.019,0.033,0.006,0.0,0.006,0.052,0.006,0.006,0.0,0.013,0.013,0.0,0.006,0.0,0.006,0.019,0.3068,-0.8161,0.0629,-0.3083,-1.0232,0.27,-0.5983,-0.3405,0.339,0.0261,-0.1442,0.1181,0.1641,0.092,0.3145,0.3513,-0.6443,0.3421,0.2598,-0.3082,-0.2659,0.3056,-0.2937,0.0102,-0.0005,-0.316,0.291,-0.3056,0.0457,-0.3025,0.298,-0.2156,0.1893,0.3023,-0.1468,0.3134,1.2969,0.1905,0.0057,0.5455,-0.1185,0.7325,-0.5784,0.1461,1.0,-1.0,-1.0,-1.0,-1.0,1.0,-1.0,-0.4095,-1.0,1.0,0.7389,1.0,1.0,1.0,0.5925,0.0,0.0,0.0,0.0,0.0,0.0,0.0,0.0,0.0,-0.2667,0.0,-0.2667,0.0,3
1.84,run,16.43,5.87,2.58,40.69,-7.23,0.0,-0.042,0.0,0.286,19.78,-30.59,81.04,-14.77,-45.18,92.55,-34.54,-2.99,101.95,-1.14,7.65,82.97,12.13,21.09,100.11,22.85,-18.72,100.81,24.54,-31.74,81.57,-8.0,-51.42,86.16,-35.0,-9.0,108.74,-6.59,-0.15,77.51,14.74,16.5,104.78,28.41,-10.92,101.07,1.0,-0.1226,0.7446,1.0,-1.0,-1.0,-1.0,-1.0,1.0,-1.0,-0.5162,-1.0,-0.1481,0.6594,1.0,1.0,1.0,-1.0,0.039,0.0,0.0,0.013,0.019,0.019,0.006,0.039,0.019,0.013,0.019,0.013,0.013,0.0,0.006,0.019,0.013,0.013,0.3252,-0.8406,0.0399,-0.2823,-1.0462,0.2623,-0.5983,-0.3651,0.362,0.0,-0.1457,0.0936,0.1887,0.0675,0.3375,0.3774,-0.6427,0.3636,0.251,-0.3079,-0.2725,0.3118,-0.2919,-0.0217,-0.0004,-0.3133,0.29,-0.3118,0.0262,-0.3039,0.3007,-0.2431,0.2188,0.3095,-0.097,0.3,1.3131,0.3177,0.0472,0.6698,-0.1201,1.0,0.0153,0.617,1.0,-1.0,-1.0,-1.0,-1.0,1.0,-1.0,-0.7119,-1.0,1.0,0.649,1.0,1.0,1.0,-0.6673,0.0,0.0,0.0,0.0,0.0,0.0,0.0,0.0,0.0,-0.28,0.0,-0.28,0.0,3
1.88,run,16.45,6.72,-1.46,19.29,-1.2,0.0,-0.044,0.0,0.286,21.09,-31.73,79.98,-13.27,-46.05,91.23,-34.54,-4.39,103.71,-2.55,6.86,81.56,13.45,19.78,101.25,24.26,-18.54,101.6,26.04,-30.27,83.07,-6.5,-52.92,84.66,-35.0,-10.5,110.24,-8.09,-1.65,76.01,13.24,15.0,106.28,29.91,-9.42,99.57,1.0,-0.0958,1.0,1.0,-1.0,0.0264,-1.0,-1.0,1.0,-1.0,-0.5901,0.0917,-1.0,0.7182,0.9799,1.0,1.0,-1.0,0.039,0.0,0.0,0.013,0.019,0.019,0.006,0.039,0.019,0.013,0.019,0.013,0.013,0.0,0.006,0.019,0.013,0.013,0.3467,-0.8636,0.0169,-0.2562,-1.0692,0.2424,-0.5983,-0.3912,0.3789,-0.0245,-0.1519,0.069,0.2132,0.0414,0.3636,0.4004,-0.6335,0.3881,0.2562,-0.3018,-0.277,0.316,-0.2906,-0.0899,-0.0003,-0.3171,0.2663,-0.3103,-0.0046,-0.3047,0.3025,-0.2679,0.251,0.3029,-0.0334,0.302,1.3289,0.4572,0.045,0.7102,-0.1263,1.0,-0.1226,0.7446,1.0,-1.0,-1.0,-1.0,-1.0,1.0,-1.0,-0.5162,-1.0,-0.1481,0.6594,1.0,1.0,1.0,-1.0,0.0,0.0,0.0,0.0,0.0,0.0,0.0,0.0,0.0,-0.2933,0.0,-0.2933,0.0,3
1.92,run,16.66,7.42,4.06,16.3,-3.53,0.0,-0.046,0.0,0.286,22.32,-32.61,79.19,-11.78,-47.81,89.91,-34.54,-5.89,105.21,-3.96,5.62,80.24,14.33,18.46,102.66,25.66,-17.05,102.57,27.54,-31.77,84.57,-5.0,-54.42,86.16,-35.0,-12.0,111.74,-9.59,-3.15,74.51,11.74,16.5,107.78,31.41,-7.92,98.07,1.0,-0.2801,1.0,1.0,-1.0,1.0,-1.0,-1.0,1.0,-1.0,0.3323,-0.2865,-1.0,0.8284,1.0,1.0,1.0,-1.0,0.039,0.0,0.0,0.013,0.019,0.019,0.006,0.039,0.019,0.013,0.019,0.013,0.013,0.0,0.006,0.019,0.013,0.013,0.3697,-0.8836,-0.0015,-0.2301,-1.0845,0.2194,-0.5983,-0.4157,0.4096,-0.0491,-0.1657,0.0445,0.2362,0.0184,0.3835,0.4249,-0.6305,0.4019,0.2658,-0.2862,-0.2631,0.3193,-0.2611,-0.1495,-0.0002,-0.3142,0.3017,-0.3095,-0.0552,-0.3056,0.2983,-0.274,0.2506,0.3043,-0.0119,0.2633,1.3309,0.5309,-0.0254,0.3366,-0.0209,1.0,-0.0958,1.0,1.0,-1.0,0.0264,-1.0,-1.0,1.0,-1.0,-0.5901,0.0917,-1.0,0.7182,0.9799,1.0,1.0,-1.0,0.0,0.0,0.0,0.0,0.0,0.0,0.0,0.0,0.0,-0.3067,0.0,-0.3067,0.0,3
1.96,run,16.57,7.47,-4.83,-1.64,3.67,0.0,-0.048,0.0,0.286,23.73,-33.05,78.75,-10.37,-49.13,88.51,-34.54,-7.29,106.61,-5.36,4.22,78.75,15.12,17.23,103.97,26.98,-15.73,103.18,29.04,-32.71,86.07,-3.5,-55.92,87.66,-35.0,-13.5,113.24,-11.09,-4.65,76.01,10.24,18.0,106.28,32.91,-6.42,96.57,1.0,-0.1401,1.0,1.0,-1.0,1.0,-1.0,-1.0,1.0,-0.9534,0.2315,0.2386,-1.0,1.0,0.2925,1.0,1.0,-1.0,0.033,0.006,0.0,0.019,0.026,0.006,0.006,0.033,0.013,0.013,0.019,0.013,0.006,0.0,0.006,0.026,0.052,0.0,0.3912,-0.8989,-0.0153,-0.204,-1.1152,0.1963,-0.5983,-0.4418,0.4357,-0.0736,-0.1871,0.0215,0.2516,-0.0046,0.408,0.4495,-0.6044,0.4188,0.2668,-0.258,-0.236,0.3215,-0.2981,-0.1911,-0.0001,-0.318,0.3092,-0.3089,-0.1193,-0.3004,0.2664,-0.2783,0.2677,0.3052,0.0897,0.2477,1.3494,0.5919,0.0709,0.2845,-0.0616,1.0,-0.2801,1.0,1.0,-1.0,1.0,-1.0,-1.0,1.0,-1.0,0.3323,-0.2865,-1.0,0.8284,1.0,1.0,1.0,-1.0,0.0,0.0,0.0,0.0,0.0,0.0,0.0,0.0,0.0,-0.32,0.0,-0.32,0.0,3
2.0,run,16.16,7.02,-11.01,-10.39,5.41,0.0,-0.05,0.0,0.286,25.58,-33.13,78.75,-8.61,-50.89,87.28,-34.63,-9.05,108.28,-7.03,2.55,77.17,15.56,16.08,105.56,28.65,-14.24,103.27,30.54,-34.21,87.57,-2.0,-57.42,89.16,-35.0,-15.0,114.74,-12.59,-3.15,74.51,8.74,19.5,104.78,34.41,-4.92,95.07,1.0,-0.7316,1.0,1.0,-0.7862,1.0,-1.0,-1.0,1.0,-1.0,1.0,-0.9323,-1.0,1.0,0.2846,1.0,1.0,-1.0,0.033,0.006,0.0,0.019,0.026,0.006,0.006,0.033,0.013,0.013,0.019,0.013,0.006,0.0,0.006,0.026,0.052,0.0,0.4157,-0.9066,-0.023,-0.1795,-1.1382,0.1718,-0.5983,-0.4663,0.4602,-0.0982,-0.2117,-0.0046,0.2654,-0.0261,0.431,0.4725,-0.5814,0.4295,0.2787,-0.2093,-0.194,0.317,-0.2949,-0.2257,-0.0001,-0.3145,0.3084,-0.3082,-0.1755,-0.308,0.2382,-0.2753,0.2736,0.2999,0.149,0.2136,1.3412,0.597,-0.0843,-0.0286,0.064,1.0,-0.1401,1.0,1.0,-1.0,1.0,-1.0,-1.0,1.0,-0.9534,0.2315,0.2386,-1.0,1.0,0.2925,1.0,1.0,-1.0,0.0,0.0,0.0,0.0,0.0,0.0,0.0,0.0,0.0,-0.3333,0.0,-0.3333,0.0,3
2.04,run,15.69,6.44,-14.39,-14.48,4.88,0.0,-0.05,0.0,0.286,26.89,-33.13,78.93,-7.29,-52.29,86.66,-34.72,-10.55,109.69,-8.53,1.14,76.2,15.47,15.64,106.44,29.97,-12.92,103.01,32.04,-35.71,89.07,-0.5,-55.92,90.66,-35.0,-16.5,116.24,-14.09,-1.65,73.01,7.24,18.0,106.28,35.0,-3.42,93.57,1.0,-1.0,1.0,1.0,0.4752,1.0,-1.0,-1.0,1.0,-1.0,1.0,-0.9838,-1.0,0.7605,0.6241,1.0,0.4617,-1.0,0.033,0.006,0.0,0.019,0.026,0.006,0.006,0.033,0.013,0.013,0.019,0.013,0.006,0.0,0.006,0.026,0.052,0.0,0.4479,-0.9081,-0.023,-0.1488,-1.1689,0.1503,-0.5998,-0.497,0.4893,-0.1273,-0.2408,-0.0322,0.273,-0.046,0.4587,0.5016,-0.5553,0.431,0.2936,-0.1512,-0.1358,0.3157,-0.3002,-0.2237,-0.0048,-0.314,0.305,-0.3048,-0.2119,-0.3,0.1902,-0.2537,0.2759,0.299,0.184,0.1542,1.3058,0.5576,-0.1922,-0.1813,0.0945,1.0,-0.7316,1.0,1.0,-0.7862,1.0,-1.0,-1.0,1.0,-1.0,1.0,-0.9323,-1.0,1.0,0.2846,1.0,1.0,-1.0,0.0,0.0,0.0,0.0,0.0,0.0,0.0,0.0,0.0,-0.3333,0.0,-0.3333,0.0,3
2.08,run,15.2,5.71,-14.34,-18.13,3.8,0.0,-0.05,0.0,0.286,28.39,-33.13,79.72,-5.8,-53.7,86.22,-34.72,-11.87,111.09,-9.93,-0.18,75.15,15.03,15.03,107.05,31.29,-11.51,102.13,33.54,-37.21,90.57,1.0,-54.42,92.16,-35.0,-18.0,117.74,-13.97,-0.15,71.51,5.74,16.5,107.78,35.0,-1.92,92.07,1.0,-1.0,1.0,1.0,1.0,1.0,-1.0,-1.0,1.0,-0.3992,1.0,-0.9157,-1.0,0.4564,1.0,1.0,0.6962,-1.0,0.013,0.019,0.026,0.019,0.019,0.006,0.006,0.039,0.026,0.013,0.013,0.013,0.006,0.033,0.006,0.039,0.065,0.006,0.4709,-0.9081,-0.0199,-0.1258,-1.1934,0.1396,-0.6013,-0.5231,0.5139,-0.1534,-0.2654,-0.0491,0.2715,-0.0537,0.474,0.5246,-0.5323,0.4264,0.2907,-0.1059,-0.0837,0.3061,-0.301,-0.1963,-0.009,-0.3163,0.3043,-0.3099,-0.2392,-0.2724,0.1275,-0.2059,0.2499,0.2945,0.214,0.0909,1.2647,0.5063,-0.2511,-0.2528,0.0852,1.0,-1.0,1.0,1.0,0.4752,1.0,-1.0,-1.0,1.0,-1.0,1.0,-0.9838,-1.0,0.7605,0.6241,1.0,0.4617,-1.0,0.0,0.0,0.0,0.0,0.0,0.0,0.0,0.0,0.0,-0.3333,0.0,-0.3333,0.0,3
2.12,run,14.98,5.04,-6.24,-15.46,5.91,0.0,-0.05,0.0,0.286,29.97,-33.66,80.95,-4.31,-54.93,86.22,-34.72,-13.45,112.59,-11.43,-1.32,73.83,13.97,15.03,107.49,32.52,-10.02,101.07,35.0,-38.71,92.07,2.5,-52.92,93.66,-35.0,-19.5,119.24,-12.47,1.35,70.01,4.24,15.0,109.28,35.0,-3.42,90.57,1.0,-1.0,1.0,1.0,1.0,1.0,-1.0,-1.0,1.0,0.7843,1.0,-0.9644,-1.0,0.4647,1.0,1.0,-0.2074,-1.0,0.013,0.019,0.026,0.019,0.019,0.006,0.006,0.039,0.026,0.013,0.013,0.013,0.006,0.033,0.006,0.039,0.065,0.006,0.497,-0.9081,-0.0061,-0.0997,-1.218,0.1319,-0.6013,-0.5461,0.5384,-0.1779,-0.2884,-0.0675,0.2638,-0.0644,0.4847,0.5476,-0.5077,0.4111,0.3011,-0.0741,-0.0069,0.312,-0.3026,-0.1661,-0.0063,-0.3076,0.305,-0.3088,-0.2536,-0.2597,0.0605,-0.1844,0.2152,0.2923,0.2417,0.0062,1.222,0.4431,-0.2502,-0.3165,0.0663,1.0,-1.0,1.0,1.0,1.0,1.0,-1.0,-1.0,1.0,-0.3992,1.0,-0.9157,-1.0,0.4564,1.0,1.0,0.6962,-1.0,0.0,0.0,0.0,0.0,0.0,0.0,0.0,0.0,0.0,-0.3333,0.0,-0.3333,0.0,3
2.16,run,14.83,4.53,-4.64,-12.97,3.16,0.0,-0.05,0.0,0.286,31.38,-34.19,82.27,-2.9,-55.72,86.66,-34.72,-14.85,113.99,-12.48,-2.11,72.69,13.01,15.38,107.58,33.4,-8.61,99.76,35.0,-40.21,93.57,4.0,-51.42,95.16,-35.0,-21.0,120.74,-10.97,2.85,68.51,2.74,13.5,110.78,35.0,-1.92,89.07,1.0,-1.0,1.0,1.0,1.0,1.0,-1.0,-1.0,1.0,1.0,1.0,-0.9138,-1.0,0.4674,1.0,1.0,0.8571,-1.0,0.013,0.019,0.026,0.019,0.019,0.006,0.006,0.039,0.026,0.013,0.013,0.013,0.006,0.033,0.006,0.039,0.065,0.006,0.5246,-0.9173,0.0153,-0.0736,-1.2395,0.1319,-0.6013,-0.5737,0.5645,-0.204,-0.3083,-0.0905,0.2454,-0.0644,0.4924,0.5691,-0.4817,0.3927,0.3062,-0.0837,0.0694,0.3085,-0.286,-0.1163,-0.0044,-0.3107,0.3036,-0.3063,-0.2464,-0.2612,-0.0212,-0.1291,0.1771,0.2788,0.2593,-0.0593,1.2028,0.3849,-0.1088,-0.2699,0.1032,1.0,-1.0,1.0,1.0,1.0,1.0,-1.0,-1.0,1.0,0.7843,1.0,-0.9644,-1.0,0.4647,1.0,1.0,-0.2074,-1.0,0.0,0.0,0.0,0.0,0.0,0.0,0.0,0.0,0.0,-0.3333,0.0,-0.3333,0.0,3
2.2,run,14.75,4.11,-4.08,-10.88,1.59,0.0,-0.05,0.0,0.286,32.61,-35.33,83.76,-1.41,-56.25,87.8,-34.72,-16.35,115.4,-13.27,-2.64,71.46,11.6,15.56,107.84,33.93,-7.12,98.44,35.0,-41.71,95.07,5.5,-49.92,96.66,-35.0,-22.5,122.24,-9.47,4.35,67.01,1.24,12.0,112.28,35.0,-3.42,87.57,1.0,-1.0,1.0,1.0,0.6839,1.0,-1.0,-1.0,1.0,1.0,1.0,-0.6126,-1.0,0.2803,1.0,1.0,-0.1763,-1.0,0.006,0.006,0.013,0.019,0.0,0.013,0.0,0.026,0.026,0.006,0.006,0.019,0.006,0.013,0.026,0.052,0.065,0.006,0.5492,-0.9265,0.0383,-0.0491,-1.2533,0.1396,-0.6013,-0.5983,0.589,-0.2224,-0.3221,-0.1104,0.2286,-0.0583,0.4939,0.5844,-0.4571,0.3697,0.3059,-0.0929,0.1344,0.3075,-0.2517,-0.0528,-0.0031,-0.309,0.304,-0.2831,-0.224,-0.2573,-0.0778,-0.0675,0.1297,0.2524,0.273,-0.1273,1.1899,0.3399,-0.081,-0.2264,0.0551,1.0,-1.0,1.0,1.0,1.0,1.0,-1.0,-1.0,1.0,1.0,1.0,-0.9138,-1.0,0.4674,1.0,1.0,0.8571,-1.0,0.0,0.0,0.0,0.0,0.0,0.0,0.0,0.0,0.0,-0.3333,0.0,-0.3333,0.0,3
2.24,run,14.73,3.84,-2.57,-7.45,4.97,0.0,-0.05,0.0,0.286,33.75,-36.91,85.25,0.0,-56.43,88.95,-34.72,-17.75,116.81,-13.8,-2.72,70.14,10.11,15.56,108.72,34.19,-5.8,97.03,35.0,-43.21,96.57,7.0,-48.42,98.16,-35.0,-24.0,123.74,-7.97,5.85,65.51,-0.26,10.5,113.78,35.0,-1.92,86.07,1.0,-1.0,1.0,1.0,0.7086,1.0,-1.0,-1.0,1.0,1.0,1.0,-0.3343,-1.0,-0.2243,1.0,1.0,0.5687,-1.0,0.006,0.006,0.013,0.019,0.0,0.013,0.0,0.026,0.026,0.006,0.006,0.019,0.006,0.013,0.026,0.052,0.065,0.006,0.5706,-0.9465,0.0644,-0.023,-1.2625,0.1595,-0.6013,-0.6243,0.6136,-0.2362,-0.3313,-0.1319,0.204,-0.0552,0.4985,0.5937,-0.431,0.3467,0.2945,-0.1396,0.1916,0.3128,-0.2106,0.0377,-0.0022,-0.3139,0.3047,-0.2498,-0.1912,-0.2604,-0.1463,-0.0357,0.108,0.2111,0.2887,-0.1752,1.1828,0.3033,-0.0711,-0.1899,0.0278,1.0,-1.0,1.0,1.0,0.6839,1.0,-1.0,-1.0,1.0,1.0,1.0,-0.6126,-1.0,0.2803,1.0,1.0,-0.1763,-1.0,0.0,0.0,0.0,0.0,0.0,0.0,0.0,0.0,0.0,-0.3333,0.0,-0.3333,0.0,3
2.28,run,14.59,3.64,-6.26,-5.21,10.65,0.0,-0.05,0.0,0.286,34.45,-38.14,86.57,1.41,-56.43,90.35,-34.72,-19.16,118.12,-13.89,-2.55,68.73,8.61,15.12,109.86,34.37,-4.83,95.71,35.0,-44.71,98.07,8.5,-46.92,99.66,-35.0,-25.5,125.24,-6.47,7.35,67.01,-1.76,9.0,115.28,35.0,-2.05,84.57,1.0,-1.0,1.0,1.0,0.2266,0.7169,-1.0,-1.0,1.0,1.0,1.0,0.219,-1.0,-0.3716,1.0,1.0,0.4172,-1.0,0.006,0.006,0.013,0.019,0.0,0.013,0.0,0.026,0.026,0.006,0.006,0.019,0.006,0.013,0.026,0.052,0.065,0.006,0.5906,-0.9741,0.0905,0.0015,-1.2655,0.1795,-0.6013,-0.6489,0.6381,-0.2454,-0.3329,-0.1549,0.1779,-0.0552,0.5139,0.5983,-0.408,0.3221,0.2809,-0.2012,0.2319,0.3109,-0.1589,0.1011,-0.0015,-0.3117,0.3052,-0.2093,-0.1396,-0.2685,-0.2001,-0.025,0.1331,0.165,0.2883,-0.2146,1.1813,0.2799,-0.0449,-0.13,0.0868,1.0,-1.0,1.0,1.0,0.7086,1.0,-1.0,-1.0,1.0,1.0,1.0,-0.3343,-1.0,-0.2243,1.0,1.0,0.5687,-1.0,0.0,0.0,0.0,0.0,0.0,0.0,0.0,0.0,0.0,-0.3333,0.0,-0.3333,0.0,3
2.32,run,14.14,3.25,-14.37,-8.56,10.54,0.0,-0.05,0.0,0.286,34.8,-39.55,87.98,2.81,-55.81,91.76,-34.72,-20.57,119.53,-13.71,-1.93,67.5,7.29,14.15,111.18,34.45,-4.13,94.22,35.0,-46.21,99.57,10.0,-45.42,98.16,-35.0,-27.0,126.74,-4.97,8.85,68.51,-3.26,7.5,113.78,35.0,-1.62,83.07,1.0,-1.0,1.0,1.0,0.4871,0.2754,-1.0,-1.0,1.0,1.0,1.0,0.3704,-1.0,-0.7083,0.5012,1.0,0.4252,-1.0,0.0,0.033,0.013,0.019,0.006,0.013,0.006,0.033,0.033,0.013,0.006,0.0,0.013,0.0,0.019,0.013,0.065,0.006,0.6029,-0.9956,0.1135,0.0261,-1.2655,0.204,-0.6013,-0.6734,0.6611,-0.247,-0.3298,-0.1795,0.1519,-0.0629,0.5338,0.6013,-0.3912,0.2991,0.2426,-0.2214,0.2486,0.3097,-0.1113,0.1628,-0.0011,-0.3103,0.3,-0.1523,-0.0862,-0.28,-0.2379,-0.0463,0.168,0.127,0.2651,-0.2365,1.1685,0.2625,-0.1092,-0.0909,0.1859,1.0,-1.0,1.0,1.0,0.2266,0.7169,-1.0,-1.0,1.0,1.0,1.0,0.219,-1.0,-0.3716,1.0,1.0,0.4172,-1.0,0.0,0.0,0.0,0.0,0.0,0.0,0.0,0.0,0.0,-0.3333,0.0,-0.3333,0.0,3
2.36,run,13.49,2.67,-19.4,-13.71,8.83,0.0,-0.05,0.0,0.286,34.89,-40.87,89.47,4.22,-54.84,93.16,-34.72,-22.06,120.85,-12.74,-0.97,66.53,5.98,12.92,112.59,34.54,-3.6,92.81,35.0,-47.71,101.07,8.5,-43.92,96.66,-35.0,-28.5,128.24,-3.47,10.35,70.01,-4.76,6.0,112.28,35.0,-3.12,81.57,1.0,-1.0,1.0,0.0343,1.0,-0.288,-1.0,-1.0,1.0,1.0,1.0,0.9431,-1.0,-1.0,-0.3225,1.0,0.0775,-1.0,0.0,0.033,0.013,0.019,0.006,0.013,0.006,0.033,0.033,0.013,0.006,0.0,0.013,0.0,0.019,0.013,0.065,0.006,0.609,-1.0201,0.1381,0.0506,-1.2548,0.2286,-0.6013,-0.698,0.6857,-0.2439,-0.3191,-0.201,0.1289,-0.0798,0.5568,0.6029,-0.3789,0.273,0.1928,-0.2469,0.266,0.3088,-0.0377,0.2059,-0.0007,-0.3091,0.3019,-0.0951,-0.0201,-0.2765,-0.2527,-0.0956,0.2038,0.0947,0.2316,-0.2633,1.1297,0.228,-0.2509,-0.1494,0.1839,1.0,-1.0,1.0,1.0,0.4871,0.2754,-1.0,-1.0,1.0,1.0,1.0,0.3704,-1.0,-0.7083,0.5012,1.0,0.4252,-1.0,0.0,0.0,0.0,0.0,0.0,0.0,0.0,0.0,0.0,-0.3333,0.0,-0.3333,0.0,3
2.4,run,12.7,2.04,-21.0,-15.38,4.25,0.0,-0.05,0.0,0.286,34.89,-42.19,90.97,5.62,-53.61,94.57,-34.72,-23.47,122.34,-11.95,0.35,65.92,4.57,11.43,113.82,34.54,-3.16,91.41,35.0,-49.21,102.57,7.0,-42.42,95.16,-35.0,-30.0,126.74,-4.97,11.85,71.51,-6.26,4.5,110.78,35.0,-4.62,80.07,1.0,-1.0,1.0,-1.0,1.0,-0.8905,-1.0,-1.0,0.5,-0.2851,1.0,1.0,-1.0,-1.0,-1.0,1.0,-0.0886,-1.0,0.0,0.033,0.013,0.019,0.006,0.013,0.006,0.033,0.033,0.013,0.006,0.0,0.013,0.0,0.019,0.013,0.065,0.006,0.6105,-1.0431,0.1641,0.0752,-1.2379,0.2531,-0.6013,-0.724,0.7087,-0.227,-0.3022,-0.2178,0.1058,-0.1012,0.5814,0.6044,-0.3697,0.2485,0.1407,-0.2592,0.2841,0.3082,0.037,0.2363,-0.0005,-0.3143,0.2977,-0.0033,0.0492,-0.2569,-0.2633,-0.1475,0.2347,0.072,0.1966,-0.2764,1.0728,0.1779,-0.3385,-0.2393,0.1542,1.0,-1.0,1.0,0.0343,1.0,-0.288,-1.0,-1.0,1.0,1.0,1.0,0.9431,-1.0,-1.0,-0.3225,1.0,0.0775,-1.0,0.0,0.0,0.0,0.0,0.0,0.0,0.0,0.0,0.0,-0.3333,0.0,-0.3333,0.0,3
2.44,run,12.25,1.63,-11.84,-9.49,1.29,0.0,-0.05,0.0,0.286,34.98,-43.51,92.37,6.77,-52.21,95.71,-34.72,-24.87,123.66,-10.63,1.76,65.57,3.08,10.11,114.52,34.54,-3.16,90.26,35.0,-50.71,104.07,5.5,-40.92,93.66,-35.0,-31.5,125.24,-6.47,13.35,73.01,-7.76,3.0,109.28,35.0,-6.12,78.57,1.0,-1.0,1.0,-1.0,1.0,-1.0,-1.0,-1.0,-1.0,-1.0,1.0,1.0,-1.0,-1.0,-1.0,1.0,-0.7484,-1.0,0.0,0.045,0.006,0.013,0.013,0.006,0.006,0.019,0.026,0.013,0.006,0.0,0.006,0.0,0.006,0.019,0.006,0.033,0.6105,-1.0661,0.1902,0.0997,-1.2164,0.2777,-0.6013,-0.7486,0.7348,-0.2132,-0.2792,-0.2286,0.0813,-0.1273,0.6029,0.6044,-0.362,0.224,0.0985,-0.2678,0.2967,0.3078,0.1064,0.2575,-0.0004,-0.3121,0.3062,0.0495,0.1208,-0.2201,-0.2764,-0.2011,0.2449,0.0504,0.1664,-0.2856,1.0038,0.1231,-0.3665,-0.2684,0.0743,1.0,-1.0,1.0,-1.0,1.0,-0.8905,-1.0,-1.0,0.5,-0.2851,1.0,1.0,-1.0,-1.0,-1.0,1.0,-0.0886,-1.0,0.0,0.0,0.0,0.0,0.0,0.0,0.0,0.0,0.0,-0.3333,0.0,-0.3333,0.0,3
2.48,run,11.84,1.5,-12.33,-3.35,-1.36,0.0,-0.05,0.0,0.286,34.98,-45.0,93.78,7.65,-50.8,96.42,-34.72,-26.37,124.72,-9.23,3.08,65.74,1.67,8.79,114.96,34.54,-3.08,88.51,35.0,-52.21,105.57,4.0,-39.42,92.16,-35.0,-33.0,123.74,-7.97,14.85,74.51,-9.26,1.5,107.78,35.0,-4.62,77.07,1.0,-1.0,1.0,-1.0,0.2065,-1.0,-1.0,-1.0,-1.0,-1.0,1.0,1.0,-1.0,-1.0,-1.0,1.0,0.5531,-1.0,0.0,0.045,0.006,0.013,0.013,0.006,0.006,0.019,0.026,0.013,0.006,0.0,0.006,0.0,0.006,0.019,0.006,0.033,0.6121,-1.0891,0.2148,0.1197,-1.1919,0.2976,-0.6013,-0.7731,0.7578,-0.1902,-0.2546,-0.2347,0.0552,-0.1503,0.6151,0.6044,-0.362,0.204,0.0747,-0.2735,0.2995,0.2901,0.1664,0.2548,-0.0003,-0.3103,0.3005,0.1208,0.1764,-0.177,-0.291,-0.2269,0.2173,0.0353,0.1165,-0.2745,0.9641,0.0867,-0.2066,-0.1657,0.0224,1.0,-1.0,1.0,-1.0,1.0,-1.0,-1.0,-1.0,-1.0,-1.0,1.0,1.0,-1.0,-1.0,-1.0,1.0,-0.7484,-1.0,0.0,0.0,0.0,0.0,0.0,0.0,0.0,0.0,0.0,-0.3333,0.0,-0.3333,0.0,3
2.52,run,11.76,2.0,-3.69,15.25,0.54,0.0,-0.05,0.0,0.286,34.98,-46.41,95.19,8.35,-49.39,96.94,-34.72,-27.69,125.51,-8.09,4.04,65.92,0.26,7.29,115.05,34.54,-3.43,87.1,35.0,-53.71,107.07,2.5,-40.92,90.66,-33.5,-34.5,122.24,-9.47,16.35,76.01,-10.76,0.0,106.28,35.0,-6.12,75.57,1.0,-1.0,1.0,-1.0,-0.7715,-1.0,0.6881,-1.0,-1.0,-1.0,1.0,1.0,-1.0,-1.0,-1.0,1.0,0.1784,-1.0,0.0,0.045,0.006,0.013,0.013,0.006,0.006,0.019,0.026,0.013,0.006,0.0,0.006,0.0,0.006,0.019,0.006,0.033,0.6121,-1.1152,0.2393,0.135,-1.1674,0.3099,-0.6013,-0.7992,0.7762,-0.1657,-0.2316,-0.2316,0.0307,-0.1733,0.6228,0.6044,-0.3605,0.1733,0.0523,-0.29,0.3024,0.2611,0.2092,0.2248,-0.0002,-0.3157,0.2799,0.1773,0.2104,-0.1123,-0.2965,-0.2458,0.1811,0.0247,0.0873,-0.3081,0.9288,0.0757,-0.2152,-0.0584,-0.0238,1.0,-1.0,1.0,-1.0,0.2065,-1.0,-1.0,-1.0,-1.0,-1.0,1.0,1.0,-1.0,-1.0,-1.0,1.0,0.5531,-1.0,0.0,0.0,0.0,0.0,0.0,0.0,0.0,0.0,0.0,-0.3333,0.0,-0.3333,0.0,3
2.56,run,11.8,3.01,-0.85,26.37,3.74,0.0,-0.05,0.0,0.286,34.98,-47.81,96.59,8.61,-47.99,97.12,-34.72,-29.18,126.04,-7.29,5.71,66.97,-1.14,5.98,114.52,34.63,-4.13,85.69,35.0,-55.21,108.57,1.0,-42.42,89.16,-32.0,-36.0,120.74,-10.97,14.85,77.51,-12.26,-1.5,104.78,35.0,-4.62,74.07,1.0,-0.8687,1.0,-1.0,-1.0,-1.0,1.0,-1.0,-1.0,-1.0,-0.2328,1.0,-1.0,-0.7034,-1.0,1.0,1.0,-1.0,0.0,0.045,0.013,0.006,0.0,0.006,0.006,0.026,0.013,0.006,0.006,0.013,0.019,0.006,0.026,0.019,0.006,0.006,0.6121,-1.1397,0.2638,0.1473,-1.1428,0.3191,-0.6013,-0.8222,0.79,-0.1457,-0.2148,-0.2286,0.0061,-0.1994,0.6243,0.6044,-0.3666,0.1488,0.0366,-0.2945,0.3032,0.2285,0.238,0.1917,-0.0001,-0.3068,0.2474,0.1985,0.2102,-0.0672,-0.2991,-0.2693,0.1325,0.0173,0.0383,-0.3072,0.9215,0.1191,-0.0643,0.2661,0.0095,1.0,-1.0,1.0,-1.0,-0.7715,-1.0,0.6881,-1.0,-1.0,-1.0,1.0,1.0,-1.0,-1.0,-1.0,1.0,0.1784,-1.0,0.0,0.0,0.0,0.0,0.0,0.0,0.0,0.0,0.0,-0.3333,0.0,-0.3333,0.0,3
2.6,run,11.69,4.23,-5.24,31.19,2.32,0.0,-0.05,0.0,0.286,34.98,-49.31,98.09,8.61,-46.58,96.77,-34.63,-30.59,126.21,-6.77,7.21,67.94,-2.55,4.57,113.73,34.63,-5.01,84.38,35.0,-56.71,110.07,-0.5,-43.92,87.66,-30.5,-37.5,119.24,-12.47,13.35,79.01,-13.76,-3.0,103.28,35.0,-3.12,72.57,1.0,-0.6652,1.0,-1.0,-1.0,-1.0,1.0,-1.0,-1.0,-1.0,-1.0,1.0,-1.0,-0.4387,-1.0,1.0,1.0,-1.0,0.0,0.045,0.013,0.006,0.0,0.006,0.006,0.026,0.013,0.006,0.006,0.013,0.019,0.006,0.026,0.019,0.006,0.006,0.6121,-1.1643,0.2884,0.1519,-1.1183,0.3221,-0.6013,-0.8483,0.7992,-0.1319,-0.1856,-0.2102,-0.0184,-0.2224,0.6151,0.6059,-0.3789,0.1243,0.0256,-0.2982,0.3043,0.1772,0.2586,0.1457,-0.0001,-0.3125,0.2077,0.1907,0.2564,0.022,-0.3014,-0.2748,0.0583,0.0179,-0.0192,-0.3071,0.9255,0.2077,-0.0148,0.4603,0.0652,1.0,-0.8687,1.0,-1.0,-1.0,-1.0,1.0,-1.0,-1.0,-1.0,-0.2328,1.0,-1.0,-0.7034,-1.0,1.0,1.0,-1.0,0.0,0.0,0.0,0.0,0.0,0.0,0.0,0.0,0.0,-0.3333,0.0,-0.3333,0.0,3
2.64,run,11.41,5.52,-7.85,34.54,1.22,0.0,-0.05,0.0,0.286,34.98,-50.71,99.49,8.44,-45.18,95.98,-34.01,-31.99,126.21,-6.5,8.61,69.35,-3.96,3.08,112.68,34.63,-5.8,82.79,35.0,-55.21,111.57,-2.0,-45.42,86.16,-29.0,-39.0,117.74,-13.97,11.85,80.51,-15.26,-4.5,101.78,35.0,-1.62,71.07,1.0,-0.1868,1.0,-1.0,-1.0,-1.0,1.0,-1.0,-1.0,-1.0,-1.0,1.0,-1.0,-0.4059,-1.0,1.0,1.0,-1.0,0.0,0.045,0.013,0.006,0.0,0.006,0.006,0.026,0.013,0.006,0.006,0.013,0.019,0.006,0.026,0.019,0.006,0.006,0.6121,-1.1904,0.3145,0.1519,-1.0937,0.316,-0.5998,-0.8728,0.8023,-0.1227,-0.1595,-0.1933,-0.043,-0.247,0.6013,0.6059,-0.3942,0.1012,0.0179,-0.3066,0.3108,0.124,0.2731,0.0789,0.0057,-0.3108,0.1569,0.168,0.2773,0.0787,-0.303,-0.2844,-0.011,0.0125,-0.071,-0.3012,0.9156,0.3138,-0.0915,0.5443,0.0405,1.0,-0.6652,1.0,-1.0,-1.0,-1.0,1.0,-1.0,-1.0,-1.0,-1.0,1.0,-1.0,-0.4387,-1.0,1.0,1.0,-1.0,0.0,0.0,0.0,0.0,0.0,0.0,0.0,0.0,0.0,-0.3333,0.0,-0.3333,0.0,3
2.68,run,11.25,6.65,-3.4,28.46,-2.36,0.0,-0.05,0.0,0.286,34.98,-52.03,100.9,7.56,-44.21,95.01,-32.87,-33.4,125.86,-6.94,10.02,70.84,-5.36,1.85,111.36,34.63,-6.06,81.39,35.0,-53.71,113.07,-3.5,-46.92,84.66,-27.5,-40.5,116.24,-15.47,10.35,82.01,-16.76,-6.0,100.28,35.0,-0.12,69.57,1.0,0.8091,1.0,-1.0,-1.0,-1.0,1.0,-1.0,-1.0,-1.0,-1.0,1.0,-1.0,-0.3245,-1.0,1.0,1.0,-1.0,0.0,0.026,0.013,0.013,0.0,0.019,0.019,0.019,0.006,0.006,0.013,0.019,0.006,0.006,0.026,0.013,0.006,0.0,0.6121,-1.2149,0.339,0.1488,-1.0692,0.3022,-0.589,-0.8974,0.8023,-0.1181,-0.135,-0.1687,-0.0675,-0.273,0.5829,0.6059,-0.408,0.0736,0.0126,-0.3066,0.3096,0.0753,0.2832,0.0035,0.0443,-0.3096,0.1098,0.1349,0.2862,0.1471,-0.3041,-0.2969,-0.0767,0.0087,-0.1015,-0.3144,0.8914,0.4266,-0.1371,0.6028,0.0212,1.0,-0.1868,1.0,-1.0,-1.0,-1.0,1.0,-1.0,-1.0,-1.0,-1.0,1.0,-1.0,-0.4059,-1.0,1.0,1.0,-1.0,0.0,0.0,0.0,0.0,0.0,0.0,0.0,0.0,0.0,-0.3333,0.0,-0.3333,0.0,3
2.72,run,10.96,7.76,-10.29,27.24,-4.11,0.0,-0.05,0.0,0.286,34.98,-53.26,102.3,6.24,-43.42,93.78,-31.55,-34.8,125.07,-7.65,10.9,72.16,-6.77,0.44,109.78,34.63,-6.15,79.98,35.0,-52.21,114.57,-5.0,-48.42,83.16,-26.0,-42.0,114.74,-16.97,8.85,83.51,-18.26,-7.5,98.78,35.0,1.38,68.07,1.0,1.0,1.0,-1.0,-1.0,-1.0,1.0,-1.0,-1.0,-1.0,-1.0,1.0,-1.0,0.2169,-1.0,1.0,1.0,-1.0,0.0,0.026,0.013,0.013,0.0,0.019,0.019,0.019,0.006,0.006,0.013,0.019,0.006,0.006,0.026,0.013,0.006,0.0,0.6121,-1.2379,0.3636,0.1335,-1.0523,0.2853,-0.5691,-0.9219,0.7961,-0.1258,-0.1104,-0.1427,-0.092,-0.2945,0.5599,0.6059,-0.4126,0.0491,0.0088,-0.3009,0.3087,-0.0048,0.2615,-0.0608,0.1057,-0.3087,0.0539,0.0656,0.2923,0.2007,-0.3049,-0.2883,-0.14,0.0061,-0.0883,-0.3121,0.8776,0.5253,-0.0594,0.4968,-0.0413,1.0,0.8091,1.0,-1.0,-1.0,-1.0,1.0,-1.0,-1.0,-1.0,-1.0,1.0,-1.0,-0.3245,-1.0,1.0,1.0,-1.0,0.0,0.0,0.0,0.0,0.0,0.0,0.0,0.0,0.0,-0.3333,0.0,-0.3333,0.0,3
2.76,run,10.5,8.48,-13.13,18.62,-5.45,0.0,-0.05,0.0,0.286,34.98,-54.05,103.71,4.83,-42.89,92.29,-30.15,-36.21,124.37,-8.44,11.69,73.48,-8.17,-0.97,108.37,34.63,-6.15,78.49,35.0,-50.71,116.07,-6.5,-49.92,81.66,-24.5,-43.5,113.24,-18.47,7.35,85.01,-19.76,-6.0,97.28,35.0,2.88,66.57,1.0,1.0,1.0,-1.0,-1.0,-1.0,1.0,-1.0,-1.0,-1.0,-1.0,1.0,-1.0,0.4769,-1.0,1.0,1.0,-1.0,0.0,0.026,0.013,0.013,0.0,0.019,0.019,0.019,0.006,0.006,0.013,0.019,0.006,0.006,0.026,0.013,0.006,0.0,0.6121,-1.2594,0.3881,0.1104,-1.0385,0.2638,-0.5461,-0.9465,0.7823,-0.1381,-0.0951,-0.1197,-0.1166,-0.3191,0.5323,0.6059,-0.4142,0.0245,0.0062,-0.2911,0.3081,-0.0896,0.2348,-0.123,0.1602,-0.3081,-0.014,-0.0,0.2621,0.2267,-0.3054,-0.2938,-0.2014,0.0043,-0.0675,-0.3104,0.8516,0.6216,-0.1796,0.4754,-0.0718,1.0,1.0,1.0,-1.0,-1.0,-1.0,1.0,-1.0,-1.0,-1.0,-1.0,1.0,-1.0,0.2169,-1.0,1.0,1.0,-1.0,0.0,0.0,0.0,0.0,0.0,0.0,0.0,0.0,0.0,-0.3333,0.0,-0.3333,0.0,3
2.8,run,9.91,8.92,-15.51,10.66,-7.8,0.0,-0.05,0.0,0.286,34.98,-54.67,105.12,3.34,-42.8,90.88,-28.74,-37.71,122.7,-9.58,12.04,74.79,-9.58,-2.37,106.88,34.63,-5.62,76.99,35.0,-49.21,117.57,-8.0,-51.42,80.16,-23.0,-45.0,111.74,-19.97,5.85,86.51,-21.26,-4.5,95.78,35.0,4.38,65.07,1.0,1.0,1.0,-1.0,-1.0,-1.0,1.0,-1.0,-1.0,-1.0,-1.0,1.0,-1.0,0.8701,-1.0,1.0,1.0,-1.0,0.0,0.0,0.019,0.013,0.0,0.013,0.019,0.026,0.019,0.039,0.019,0.045,0.013,0.0,0.013,0.013,0.078,0.0,0.6121,-1.2732,0.4126,0.0859,-1.0293,0.2378,-0.5216,-0.971,0.7701,-0.1519,-0.0813,-0.0966,-0.1411,-0.3436,0.5077,0.6059,-0.4142,-0.0015,0.0043,-0.2556,0.3078,-0.1548,0.1989,-0.184,0.2043,-0.3078,-0.0559,-0.0519,0.2353,0.2451,-0.3059,-0.2978,-0.2332,0.003,-0.0473,-0.3152,0.812,0.6848,-0.2291,0.325,-0.0951,1.0,1.0,1.0,-1.0,-1.0,-1.0,1.0,-1.0,-1.0,-1.0,-1.0,1.0,-1.0,0.4769,-1.0,1.0,1.0,-1.0,0.0,0.0,0.0,0.0,0.0,0.0,0.0,0.0,0.0,-0.3333,0.0,-0.3333,0.0,3
2.84,run,9.44,8.93,-11.3,1.87,-10.58,0.0,-0.05,0.0,0.286,34.98,-54.93,106.79,1.49,-42.8,89.12,-27.07,-39.46,121.03,-11.16,12.04,76.46,-11.34,-4.04,105.12,34.63,-4.66,75.23,35.0,-47.71,119.07,-9.5,-49.92,78.66,-21.5,-46.5,110.24,-21.47,4.35,88.01,-22.76,-3.0,94.28,35.0,5.88,63.57,1.0,1.0,1.0,-1.0,-0.4182,-0.8743,1.0,-1.0,-1.0,-1.0,-1.0,1.0,-1.0,1.0,-1.0,1.0,1.0,-1.0,0.0,0.0,0.019,0.013,0.0,0.013,0.019,0.026,0.019,0.039,0.019,0.045,0.013,0.0,0.013,0.013,0.078,0.0,0.6121,-1.2839,0.4372,0.0598,-1.0278,0.2132,-0.497,-0.9971,0.7409,-0.1718,-0.0752,-0.0736,-0.1657,-0.3682,0.4817,0.6059,-0.405,-0.0276,0.003,-0.2191,0.3074,-0.2061,0.145,-0.2208,0.235,-0.3132,-0.1483,-0.111,0.1877,0.2578,-0.3061,-0.3004,-0.2609,0.0021,0.0014,-0.3183,0.7605,0.7235,-0.2707,0.1861,-0.1361,1.0,1.0,1.0,-1.0,-1.0,-1.0,1.0,-1.0,-1.0,-1.0,-1.0,1.0,-1.0,0.8701,-1.0,1.0,1.0,-1.0,0.0,0.0,0.0,0.0,0.0,0.0,0.0,0.0,0.0,-0.3333,0.0,-0.3333,0.0,3
2.88,run,9.29,8.81,-4.16,-4.19,-9.35,0.0,-0.05,0.0,0.286,34.98,-54.93,108.19,0.09,-43.59,87.71,-25.66,-40.87,119.71,-12.57,11.87,77.78,-12.74,-4.83,103.62,34.63,-3.6,73.83,35.0,-46.21,120.57,-11.0,-51.42,77.16,-20.0,-48.0,108.74,-22.97,2.85,89.51,-24.26,-1.5,92.78,35.0,7.38,62.07,1.0,1.0,1.0,-1.0,-0.5298,-0.507,1.0,-0.8469,-1.0,-1.0,-1.0,1.0,-1.0,1.0,-1.0,1.0,1.0,-0.5918,0.0,0.0,0.019,0.013,0.0,0.013,0.019,0.026,0.019,0.039,0.019,0.045,0.013,0.0,0.013,0.013,0.078,0.0,0.6121,-1.2885,0.4663,0.0276,-1.0278,0.1825,-0.4679,-1.0278,0.7118,-0.1994,-0.0752,-0.0445,-0.1963,-0.3973,0.451,0.6059,-0.3881,-0.0583,0.0021,-0.1674,0.304,-0.2424,0.1015,-0.248,0.2533,-0.3127,-0.1926,-0.1618,0.1314,0.2693,-0.3078,-0.2991,-0.2761,0.0015,0.0524,-0.3163,0.7189,0.7241,-0.1972,0.0327,-0.1846,1.0,1.0,1.0,-1.0,-0.4182,-0.8743,1.0,-1.0,-1.0,-1.0,-1.0,1.0,-1.0,1.0,-1.0,1.0,1.0,-1.0,0.0,0.0,0.0,0.0,0.0,0.0,0.0,0.0,0.0,-0.3333,0.0,-0.3333,0.0,3
2.92,run,9.0,8.6,-8.11,-5.66,-8.52,0.0,-0.05,0.0,0.286,34.98,-54.67,109.69,-1.23,-44.74,86.04,-24.17,-42.36,118.21,-13.97,10.99,79.28,-14.33,-5.45,102.04,34.63,-2.46,72.25,35.0,-44.71,122.07,-12.5,-49.92,75.66,-18.5,-49.5,107.24,-24.47,1.35,91.01,-25.76,0.0,91.28,35.0,8.88,63.57,1.0,1.0,1.0,-1.0,-0.384,-0.3926,1.0,-0.4558,-1.0,-1.0,-1.0,1.0,-1.0,1.0,-1.0,1.0,1.0,0.3502,0.0,0.019,0.026,0.019,0.026,0.013,0.013,0.033,0.033,0.111,0.0,0.078,0.019,0.013,0.006,0.013,0.273,0.0,0.6121,-1.2885,0.4909,0.0031,-1.0416,0.158,-0.4433,-1.0523,0.6888,-0.224,-0.0782,-0.0215,-0.2209,-0.4111,0.4249,0.6059,-0.3697,-0.0828,0.0015,-0.1172,0.3029,-0.2598,0.0203,-0.2638,0.2674,-0.309,-0.2193,-0.2034,0.0807,0.273,-0.3056,-0.2601,-0.2891,0.001,0.1043,-0.3116,0.7065,0.7135,-0.0726,-0.0732,-0.1632,1.0,1.0,1.0,-1.0,-0.5298,-0.507,1.0,-0.8469,-1.0,-1.0,-1.0,1.0,-1.0,1.0,-1.0,1.0,1.0,-0.5918,0.0,0.0,0.0,0.0,0.0,0.0,0.0,0.0,0.0,-0.3333,0.0,-0.3333,0.0,3
2.96,run,8.67,8.29,-7.92,-7.39,-10.11,0.0,-0.05,0.0,0.286,34.98,-53.26,111.09,-2.64,-46.05,84.64,-22.85,-43.77,116.81,-15.21,9.84,80.68,-15.82,-5.8,100.63,34.63,-1.41,70.84,35.0,-43.21,123.57,-14.0,-48.42,74.16,-17.0,-48.0,105.74,-25.97,-0.15,92.51,-27.26,1.5,89.78,35.0,10.38,65.07,1.0,1.0,1.0,-1.0,0.8082,-0.6331,1.0,0.0285,-1.0,-1.0,-1.0,1.0,-1.0,1.0,-1.0,1.0,1.0,1.0,0.0,0.019,0.026,0.019,0.026,0.013,0.013,0.033,0.033,0.111,0.0,0.078,0.019,0.013,0.006,0.013,0.273,0.0,0.6121,-1.2839,0.517,-0.0199,-1.0615,0.1289,-0.4172,-1.0784,0.6627,-0.2485,-0.0936,0.0046,-0.2485,-0.4218,0.3973,0.6059,-0.3497,-0.1104,0.001,-0.0664,0.3006,-0.26,-0.0535,-0.2836,0.2757,-0.3048,-0.2421,-0.2257,0.0044,0.2796,-0.3076,-0.2185,-0.2961,0.0007,0.1407,-0.3118,0.6804,0.6953,-0.1415,-0.0988,-0.1488,1.0,1.0,1.0,-1.0,-0.384,-0.3926,1.0,-0.4558,-1.0,-1.0,-1.0,1.0,-1.0,1.0,-1.0,1.0,1.0,0.3502,0.0,0.0,0.0,0.0,0.0,0.0,0.0,0.0,0.0,-0.3333,0.0,-0.3333,0.0,3
3.0,run,8.37,7.93,-7.82,-8.58,-9.81,0.0,-0.05,0.0,0.286,34.98,-51.94,112.41,-4.39,-47.37,83.23,-21.45,-45.0,115.49,-16.44,8.53,82.0,-17.23,-5.62,99.14,34.54,0.35,69.43,35.0,-41.71,125.07,-15.5,-46.92,72.66,-15.5,-46.5,104.24,-27.47,-1.65,94.01,-28.76,3.0,88.28,35.0,11.88,66.57,1.0,1.0,1.0,-1.0,0.4978,-1.0,1.0,0.7314,-1.0,-1.0,-1.0,1.0,-1.0,1.0,-1.0,1.0,1.0,1.0,0.0,0.019,0.026,0.019,0.026,0.013,0.013,0.033,0.033,0.111,0.0,0.078,0.019,0.013,0.006,0.013,0.273,0.0,0.6121,-1.2594,0.5415,-0.0445,-1.0845,0.1043,-0.3942,-1.1029,0.6381,-0.27,-0.1135,0.0291,-0.2746,-0.428,0.3728,0.6059,-0.3313,-0.135,0.0007,0.0451,0.302,-0.2736,-0.1233,-0.2901,0.2789,-0.305,-0.2611,-0.2382,-0.0714,0.2874,-0.3127,-0.1759,-0.2989,0.0005,0.1672,-0.3099,0.6524,0.6682,-0.1382,-0.129,-0.1765,1.0,1.0,1.0,-1.0,0.8082,-0.6331,1.0,0.0285,-1.0,-1.0,-1.0,1.0,-1.0,1.0,-1.0,1.0,1.0,1.0,0.0,0.0,0.0,0.0,0.0,0.0,0.0,0.0,0.0,-0.3333,0.0,-0.3333,0.0,3
3.04,run,8.23,7.85,-6.4,-2.84,-1.36,0.0,-0.05,0.0,0.286,34.98,-50.62,113.73,-5.45,-48.34,81.83,-19.95,-46.05,114.17,-18.19,7.21,83.41,-18.54,-5.36,97.73,34.54,2.02,68.03,35.0,-40.21,126.57,-17.0,-45.42,71.16,-14.0,-45.0,102.74,-28.97,-3.15,95.51,-30.26,4.5,86.78,35.0,10.38,68.07,1.0,1.0,1.0,-1.0,1.0,-0.5543,1.0,1.0,-1.0,-1.0,-1.0,1.0,-1.0,1.0,-1.0,1.0,-0.0691,1.0,0.0,0.033,0.033,0.026,0.013,0.013,0.019,0.039,0.058,0.078,0.0,0.117,0.026,0.013,0.013,0.019,0.189,0.0,0.6121,-1.2364,0.5645,-0.0752,-1.1075,0.0798,-0.3697,-1.1244,0.6151,-0.2915,-0.1365,0.0522,-0.2991,-0.4249,0.3467,0.6044,-0.3007,-0.1595,0.0005,0.1175,0.2973,-0.3061,-0.1722,-0.2947,0.2869,-0.2937,-0.2686,-0.2469,-0.1358,0.287,-0.3105,-0.1116,-0.3066,-0.0054,0.2316,-0.3086,0.6256,0.6371,-0.1364,-0.1497,-0.1713,1.0,1.0,1.0,-1.0,0.4978,-1.0,1.0,0.7314,-1.0,-1.0,-1.0,1.0,-1.0,1.0,-1.0,1.0,1.0,1.0,0.0,0.0,0.0,0.0,0.0,0.0,0.0,0.0,0.0,-0.3333,0.0,-0.3333,0.0,3
3.08,run,8.13,7.74,-2.47,-2.82,-3.33,0.0,-0.05,0.0,0.286,34.98,-49.22,115.14,-7.03,-48.96,80.42,-18.54,-46.85,112.85,-19.6,5.8,84.81,-19.95,-4.22,96.24,34.54,3.34,66.88,35.0,-38.71,128.07,-18.5,-43.92,69.66,-12.5,-43.5,101.24,-30.47,-4.65,97.01,-31.76,6.0,85.28,35.0,8.88,69.57,1.0,1.0,0.9867,-1.0,1.0,-0.6168,1.0,1.0,-1.0,-1.0,-1.0,1.0,-1.0,1.0,-1.0,1.0,0.3757,1.0,0.0,0.033,0.033,0.026,0.013,0.013,0.019,0.039,0.058,0.078,0.0,0.117,0.026,0.013,0.013,0.019,0.189,0.0,0.6121,-1.2134,0.5875,-0.0936,-1.1244,0.0552,-0.3436,-1.1428,0.5921,-0.3221,-0.1595,0.0767,-0.3221,-0.4203,0.3221,0.6044,-0.2715,-0.1841,0.0004,0.1686,0.2945,-0.2833,-0.1839,-0.2984,0.2986,-0.2746,-0.2744,-0.2879,-0.1814,0.293,-0.3037,-0.0609,-0.3067,-0.0038,0.2715,-0.3081,0.6132,0.6301,-0.1118,-0.0495,-0.0238,1.0,1.0,1.0,-1.0,1.0,-0.5543,1.0,1.0,-1.0,-1.0,-1.0,1.0,-1.0,1.0,-1.0,1.0,-0.0691,1.0,0.0,0.0,0.0,0.0,0.0,0.0,0.0,0.0,0.0,-0.3333,0.0,-0.3333,0.0,3
3.12,run,8.24,7.39,1.18,-8.35,-0.49,0.0,-0.05,0.0,0.286,34.98,-47.9,116.54,-8.44,-49.39,78.93,-17.14,-47.37,111.53,-21.09,4.31,86.31,-21.27,-3.25,94.83,34.54,4.66,66.01,35.0,-37.21,126.57,-20.0,-42.42,68.16,-11.0,-42.0,99.74,-31.97,-6.15,98.51,-33.26,7.5,83.78,35.0,7.38,71.07,1.0,1.0,0.6631,-1.0,0.7149,-0.4788,1.0,1.0,-1.0,-1.0,-1.0,1.0,-1.0,1.0,-1.0,1.0,0.0394,1.0,0.0,0.033,0.033,0.026,0.013,0.013,0.019,0.039,0.058,0.078,0.0,0.117,0.026,0.013,0.013,0.019,0.189,0.0,0.6121,-1.1888,0.6121,-0.1212,-1.1351,0.0307,-0.3191,-1.1566,0.5691,-0.3467,-0.1841,0.1012,-0.3467,-0.4004,0.2961,0.6044,-0.2485,-0.204,0.0002,0.2105,0.2986,-0.3023,-0.1692,-0.3013,0.3015,-0.2443,-0.2788,-0.294,-0.2195,0.2976,-0.305,0.0325,-0.3129,-0.0026,0.2767,-0.2908,0.605,0.6198,-0.043,-0.0492,-0.058,1.0,1.0,0.9867,-1.0,1.0,-0.6168,1.0,1.0,-1.0,-1.0,-1.0,1.0,-1.0,1.0,-1.0,1.0,0.3757,1.0,0.0,0.0,0.0,0.0,0.0,0.0,0.0,0.0,0.0,-0.3333,0.0,-0.3333,0.0,3
3.16,run,8.34,6.91,2.27,-11.7,-1.3,0.0,-0.05,0.0,0.286,34.98,-46.58,117.86,-9.84,-49.48,77.52,-15.73,-47.55,110.13,-22.5,2.99,87.71,-22.68,-1.93,93.25,34.54,5.71,65.57,35.0,-35.71,125.07,-21.5,-40.92,66.66,-9.5,-40.5,98.24,-33.47,-7.65,100.01,-34.76,9.0,82.28,35.0,5.88,72.57,1.0,1.0,0.4448,-1.0,0.3346,-0.0067,1.0,1.0,-1.0,-1.0,-1.0,1.0,-1.0,1.0,-1.0,1.0,-0.8363,1.0,0.0,0.045,0.045,0.013,0.006,0.013,0.013,0.0,0.058,0.052,0.0,0.091,0.026,0.033,0.0,0.026,0.182,0.0,0.6121,-1.1658,0.6366,-0.1457,-1.1428,0.0046,-0.2945,-1.1658,0.5461,-0.3728,-0.2102,0.1273,-0.3697,-0.3835,0.2715,0.6044,-0.2255,-0.2194,0.0002,0.2332,0.3006,-0.3032,-0.147,-0.3082,0.3026,-0.2053,-0.281,-0.3031,-0.2509,0.3056,-0.2994,0.0857,-0.3106,-0.0018,0.2796,-0.2608,0.6144,0.5893,0.0205,-0.1457,-0.0086,1.0,1.0,0.6631,-1.0,0.7149,-0.4788,1.0,1.0,-1.0,-1.0,-1.0,1.0,-1.0,1.0,-1.0,1.0,0.0394,1.0,0.0,0.0,0.0,0.0,0.0,0.0,0.0,0.0,0.0,-0.3333,0.0,-0.3333,0.0,3
3.2,run,8.52,6.45,4.31,-11.57,-1.88,0.0,-0.05,0.0,0.286,34.98,-45.26,119.27,-11.25,-49.31,76.11,-14.41,-47.46,108.72,-23.91,1.49,89.12,-24.17,-0.53,91.93,34.54,6.68,65.48,35.0,-34.21,123.57,-23.0,-39.42,68.16,-8.0,-39.0,96.74,-34.97,-9.15,101.51,-35.0,10.5,80.78,35.0,4.38,74.07,1.0,1.0,-0.0336,-1.0,-0.0747,0.5659,1.0,1.0,-1.0,-1.0,-1.0,1.0,-1.0,1.0,-1.0,1.0,-1.0,1.0,0.0,0.045,0.045,0.013,0.006,0.013,0.013,0.0,0.058,0.052,0.0,0.091,0.026,0.033,0.0,0.026,0.182,0.0,0.6121,-1.1428,0.6596,-0.1703,-1.1443,-0.0199,-0.27,-1.1689,0.5216,-0.3973,-0.2332,0.1519,-0.3942,-0.3605,0.2439,0.6044,-0.2071,-0.227,0.0001,0.2495,0.2967,-0.3043,-0.1087,-0.3078,0.3039,-0.1552,-0.2887,-0.3042,-0.2619,0.306,-0.3016,0.1463,-0.321,-0.0013,0.2647,-0.2113,0.6231,0.5474,0.0396,-0.2042,-0.0227,1.0,1.0,0.4448,-1.0,0.3346,-0.0067,1.0,1.0,-1.0,-1.0,-1.0,1.0,-1.0,1.0,-1.0,1.0,-0.8363,1.0,0.0,0.0,0.0,0.0,0.0,0.0,0.0,0.0,0.0,-0.3333,0.0,-0.3333,0.0,3
3.24,run,8.67,6.09,2.34,-9.87,-0.38,0.0,-0.05,0.0,0.286,34.98,-43.95,120.59,-12.66,-48.52,74.62,-12.92,-46.67,107.4,-25.4,0.09,90.53,-25.4,0.79,90.44,34.54,7.38,65.48,35.0,-32.71,122.07,-24.5,-40.92,69.66,-6.5,-37.5,95.24,-35.0,-10.65,103.01,-35.0,12.0,79.28,35.0,2.88,75.57,1.0,1.0,-0.6405,-1.0,-1.0,0.8463,1.0,1.0,-1.0,-1.0,-1.0,1.0,-1.0,1.0,-0.4641,1.0,-1.0,1.0,0.0,0.045,0.045,0.013,0.006,0.013,0.013,0.0,0.058,0.052,0.0,0.091,0.026,0.033,0.0,0.026,0.182,0.0,0.6121,-1.1198,0.6842,-0.1948,-1.1413,-0.0445,-0.247,-1.1674,0.497,-0.4218,-0.2592,0.1764,-0.4203,-0.3359,0.2209,0.6044,-0.1902,-0.2286,0.0001,0.2609,0.2997,-0.305,-0.0646,-0.3075,0.299,-0.1029,-0.2941,-0.305,-0.2811,0.3062,-0.3089,0.1944,-0.3109,-0.0009,0.2486,-0.1537,0.6391,0.5075,0.0752,-0.2019,-0.0329,1.0,1.0,-0.0336,-1.0,-0.0747,0.5659,1.0,1.0,-1.0,-1.0,-1.0,1.0,-1.0,1.0,-1.0,1.0,-1.0,1.0,0.0,0.0,0.0,0.0,0.0,0.0,0.0,0.0,0.0,-0.3333,0.0,-0.3333,0.0,3
3.28,run,8.85,5.86,3.42,-5.69,2.2,0.0,-0.05,0.0,0.286,34.98,-42.63,121.64,-14.06,-47.46,73.21,-11.51,-45.79,106.08,-26.81,-1.23,92.02,-26.81,2.11,89.03,34.54,7.65,65.65,35.0,-31.21,120.57,-26.0,-42.42,71.16,-5.0,-36.0,93.74,-35.0,-12.15,104.51,-35.0,13.5,80.78,35.0,1.38,77.07,1.0,1.0,-1.0,-1.0,-1.0,1.0,1.0,1.0,-1.0,-1.0,-0.898,1.0,-1.0,1.0,0.8679,1.0,-1.0,1.0,0.0,0.071,0.045,0.013,0.013,0.006,0.013,0.013,0.104,0.071,0.0,0.058,0.033,0.052,0.006,0.019,0.084,0.065,0.6121,-1.0968,0.7072,-0.2194,-1.1275,-0.0706,-0.2209,-1.1536,0.474,-0.4479,-0.2838,0.201,-0.4418,-0.3129,0.1948,0.6044,-0.1779,-0.2286,0.0001,0.269,0.2962,-0.3056,0.0066,-0.3131,0.3072,-0.0202,-0.2923,-0.3114,-0.2889,0.3065,-0.2968,0.2225,-0.3156,-0.0006,0.2201,-0.1076,0.6522,0.4757,0.0408,-0.1722,-0.0066,1.0,1.0,-0.6405,-1.0,-1.0,0.8463,1.0,1.0,-1.0,-1.0,-1.0,1.0,-1.0,1.0,-0.4641,1.0,-1.0,1.0,0.0,0.0,0.0,0.0,0.0,0.0,0.0,0.0,0.0,-0.3333,0.0,-0.3333,0.0,3
3.32,run,9.0,5.51,3.46,-6.69,-1.52,0.0,-0.05,0.0,0.286,34.89,-40.96,122.61,-15.82,-45.79,71.72,-9.76,-44.21,104.41,-28.48,-2.9,93.78,-28.48,3.87,87.28,34.54,7.65,66.88,35.0,-29.71,119.07,-27.5,-43.92,72.66,-3.5,-34.5,92.24,-34.38,-13.65,106.01,-35.0,15.0,82.28,35.0,-0.12,78.57,1.0,1.0,-1.0,-1.0,-1.0,1.0,1.0,1.0,-1.0,-0.9823,-0.7689,1.0,-1.0,1.0,1.0,1.0,-1.0,1.0,0.0,0.071,0.045,0.013,0.013,0.006,0.013,0.013,0.104,0.071,0.0,0.058,0.033,0.052,0.006,0.019,0.084,0.065,0.6121,-1.0738,0.7256,-0.2439,-1.1091,-0.0951,-0.1963,-1.1382,0.451,-0.4725,-0.3068,0.227,-0.4663,-0.2899,0.1703,0.6044,-0.1733,-0.2255,0.0,0.2746,0.2763,-0.3059,0.0736,-0.3112,0.307,0.0433,-0.2908,-0.3099,-0.2885,0.3123,-0.2998,0.242,-0.3129,-0.0004,0.1713,-0.0638,0.6678,0.4565,0.0597,-0.0993,0.0384,1.0,1.0,-1.0,-1.0,-1.0,1.0,1.0,1.0,-1.0,-1.0,-0.898,1.0,-1.0,1.0,0.8679,1.0,-1.0,1.0,0.0,0.0,0.0,0.0,0.0,0.0,0.0,0.0,0.0,-0.3333,0.0,-0.3333,0.0,3
3.36,run,9.19,4.91,3.37,-15.13,-3.05,0.0,-0.05,0.0,0.286,34.89,-39.64,123.05,-17.23,-44.65,70.75,-8.44,-42.8,103.1,-29.88,-4.39,95.19,-29.88,5.19,85.78,34.54,7.65,68.12,33.5,-28.21,117.57,-29.0,-45.42,74.16,-2.0,-33.0,90.74,-32.88,-15.15,107.51,-35.0,16.5,83.78,35.0,-1.62,80.07,0.7892,1.0,-1.0,-1.0,-1.0,1.0,1.0,1.0,-1.0,-0.5466,-0.3782,1.0,-1.0,1.0,1.0,1.0,-1.0,1.0,0.0,0.071,0.045,0.013,0.013,0.006,0.013,0.013,0.104,0.071,0.0,0.058,0.033,0.052,0.006,0.019,0.084,0.065,0.6105,-1.0446,0.7424,-0.2746,-1.0799,-0.1212,-0.1657,-1.1106,0.4218,-0.5016,-0.3359,0.2577,-0.4955,-0.2592,0.1396,0.6044,-0.1733,-0.204,-0.0047,0.2819,0.2454,-0.3086,0.1413,-0.2981,0.3094,0.1154,-0.2933,-0.3067,-0.2917,0.313,-0.2996,0.2638,-0.3135,-0.0003,0.1199,0.0215,0.6807,0.4254,0.0604,-0.1168,-0.0266,1.0,1.0,-1.0,-1.0,-1.0,1.0,1.0,1.0,-1.0,-0.9823,-0.7689,1.0,-1.0,1.0,1.0,1.0,-1.0,1.0,0.0,0.0,0.0,0.0,0.0,0.0,0.0,0.0,0.0,-0.3333,0.0,-0.3333,0.0,3
3.4,run,9.28,4.6,0.72,-5.66,-0.88,0.0,-0.05,0.0,0.286,34.8,-38.32,123.22,-18.63,-43.77,70.05,-7.03,-41.48,101.78,-31.11,-5.8,96.59,-31.29,6.5,84.38,34.54,7.12,69.52,32.0,-26.71,116.07,-30.5,-46.92,75.66,-0.5,-31.5,89.24,-31.38,-13.65,109.01,-35.0,18.0,85.28,35.0,-3.12,81.57,0.2139,1.0,-1.0,-1.0,-1.0,1.0,1.0,1.0,-0.3623,0.0297,0.4806,1.0,-1.0,1.0,1.0,1.0,-1.0,1.0,0.013,0.078,0.013,0.019,0.006,0.0,0.019,0.006,0.097,0.058,0.0,0.065,0.019,0.058,0.0,0.019,0.0,0.084,0.6105,-1.0216,0.7501,-0.2991,-1.06,-0.1381,-0.1427,-1.0861,0.3988,-0.5262,-0.362,0.2823,-0.52,-0.2362,0.1135,0.6044,-0.1733,-0.1825,-0.0033,0.2826,0.2002,-0.307,0.1728,-0.2712,0.3018,0.1717,-0.2906,-0.3056,-0.3008,0.3101,-0.3007,0.27,-0.3161,-0.0002,0.0839,0.0946,0.6972,0.3731,0.0589,-0.264,-0.0532,0.7892,1.0,-1.0,-1.0,-1.0,1.0,1.0,1.0,-1.0,-0.5466,-0.3782,1.0,-1.0,1.0,1.0,1.0,-1.0,1.0,0.0,0.0,0.0,0.0,0.0,0.0,0.0,0.0,0.0,-0.3333,0.0,-0.3333,0.0,3
3.44,run,9.37,4.3,1.2,-5.29,-1.3,0.0,-0.05,0.0,0.286,33.93,-37.0,123.22,-20.13,-43.07,69.79,-5.62,-39.99,100.37,-32.26,-7.21,98.17,-32.52,7.91,83.41,34.54,6.06,70.84,30.5,-25.21,114.57,-32.0,-48.42,77.16,1.0,-30.0,90.74,-29.88,-15.15,107.51,-35.0,19.5,86.78,35.0,-4.62,83.07,-0.5691,1.0,-1.0,-1.0,-1.0,1.0,1.0,1.0,1.0,-0.0129,-0.1671,0.2724,-1.0,1.0,1.0,1.0,-1.0,1.0,0.013,0.078,0.013,0.019,0.006,0.0,0.019,0.006,0.097,0.058,0.0,0.065,0.019,0.058,0.0,0.019,0.0,0.084,0.609,-0.9986,0.7532,-0.3237,-1.0446,-0.1503,-0.1181,-1.063,0.3758,-0.5476,-0.3866,0.3068,-0.5446,-0.2132,0.089,0.6044,-0.1825,-0.158,-0.0081,0.2843,0.1517,-0.3071,0.1786,-0.236,0.3035,0.2067,-0.2899,-0.2947,-0.3028,0.3093,-0.3027,0.2755,-0.3135,-0.0002,0.0242,0.1585,0.7056,0.3457,0.0125,-0.0988,-0.0153,0.2139,1.0,-1.0,-1.0,-1.0,1.0,1.0,1.0,-0.3623,0.0297,0.4806,1.0,-1.0,1.0,1.0,1.0,-1.0,1.0,0.0,0.0,0.0,0.0,0.0,0.0,0.0,0.0,0.0,-0.3333,0.0,-0.3333,0.0,3
3.48,run,9.52,3.65,2.79,-15.64,-3.36,0.0,-0.05,0.0,0.286,33.49,-35.68,122.96,-21.45,-42.8,69.87,-4.22,-38.5,99.05,-33.05,-8.61,99.49,-33.4,9.14,82.88,34.54,4.83,72.25,29.0,-23.71,113.07,-33.5,-49.92,78.66,-0.5,-28.5,92.24,-31.38,-16.65,106.01,-33.5,21.0,88.28,35.0,-6.12,84.57,-1.0,0.9404,-1.0,-1.0,-1.0,1.0,-1.0,1.0,1.0,-1.0,-0.1791,-1.0,0.2766,1.0,1.0,1.0,-1.0,1.0,0.013,0.078,0.013,0.019,0.006,0.0,0.019,0.006,0.097,0.058,0.0,0.065,0.019,0.058,0.0,0.019,0.0,0.084,0.5937,-0.9756,0.7532,-0.3497,-1.0324,-0.1549,-0.0936,-1.037,0.3513,-0.5676,-0.4111,0.3344,-0.566,-0.1887,0.0721,0.6044,-0.201,-0.135,-0.0631,0.2852,0.1062,-0.3127,0.171,-0.1824,0.3044,0.2423,-0.2948,-0.281,-0.3039,0.3199,-0.2923,0.2847,-0.2826,-0.0001,-0.052,0.1971,0.7131,0.3203,0.0209,-0.0923,-0.0226,-0.5691,1.0,-1.0,-1.0,-1.0,1.0,1.0,1.0,1.0,-0.0129,-0.1671,0.2724,-1.0,1.0,1.0,1.0,-1.0,1.0,0.0,0.0,0.0,0.0,0.0,0.0,0.0,0.0,0.0,-0.3333,0.0,-0.3333,0.0,3
3.52,run,9.58,3.1,0.99,-13.78,-7.55,0.0,-0.05,0.0,0.286,32.17,-34.37,122.17,-22.94,-42.8,70.31,-2.9,-37.18,97.73,-33.57,-9.93,100.9,-34.19,10.37,82.35,34.54,3.6,73.92,27.5,-25.21,111.57,-35.0,-51.42,80.16,-2.0,-27.0,93.74,-32.88,-18.15,104.51,-32.0,22.5,89.78,35.0,-7.62,86.07,-1.0,-1.0,-1.0,-1.0,-1.0,1.0,-1.0,1.0,1.0,-1.0,-0.4066,-1.0,1.0,1.0,1.0,1.0,-1.0,1.0,0.019,0.169,0.006,0.013,0.019,0.019,0.006,0.019,0.13,0.006,0.0,0.039,0.019,0.169,0.006,0.019,0.006,0.045,0.586,-0.9526,0.7486,-0.3728,-1.0278,-0.1534,-0.069,-1.0109,0.3283,-0.5814,-0.4357,0.3574,-0.5814,-0.1672,0.0629,0.6044,-0.2224,-0.1104,-0.0729,0.2859,0.0571,-0.3052,0.137,-0.1219,0.3051,0.2674,-0.2927,-0.2484,-0.3048,0.3102,-0.2622,0.2799,-0.2324,-0.0001,-0.117,0.23,0.7265,0.2633,0.0486,-0.2729,-0.0586,-1.0,0.9404,-1.0,-1.0,-1.0,1.0,-1.0,1.0,1.0,-1.0,-0.1791,-1.0,0.2766,1.0,1.0,1.0,-1.0,1.0,0.0,0.0,0.0,0.0,0.0,0.0,0.0,0.0,0.0,-0.3333,0.0,-0.3333,0.0,3
3.56,run,9.45,2.98,-3.44,-4.87,-2.55,0.0,-0.05,0.0,0.286,30.94,-33.22,121.11,-24.35,-42.98,71.37,-1.85,-35.95,96.5,-33.75,-11.25,102.22,-34.54,11.69,82.35,34.54,2.2,75.41,26.0,-26.71,110.07,-35.0,-52.92,81.66,-3.5,-25.5,95.24,-34.38,-19.65,103.01,-30.5,24.0,91.28,35.0,-9.12,87.57,-1.0,-1.0,-1.0,-1.0,-1.0,1.0,-1.0,1.0,1.0,-1.0,-0.5805,-1.0,1.0,1.0,1.0,1.0,-1.0,1.0,0.019,0.169,0.006,0.013,0.019,0.019,0.006,0.019,0.13,0.006,0.0,0.039,0.019,0.169,0.006,0.019,0.006,0.045,0.563,-0.9296,0.7348,-0.3988,-1.0278,-0.1457,-0.046,-0.9879,0.3053,-0.5906,-0.4587,0.382,-0.5952,-0.1457,0.0537,0.6044,-0.2439,-0.0813,-0.1374,0.2865,-0.0119,-0.3115,0.0959,-0.0566,0.3,0.2736,-0.2913,-0.2085,-0.2997,0.3093,-0.2353,0.2765,-0.1972,-0.0001,-0.1625,0.2704,0.7311,0.2155,0.0172,-0.2405,-0.1319,-1.0,-1.0,-1.0,-1.0,-1.0,1.0,-1.0,1.0,1.0,-1.0,-0.4066,-1.0,1.0,1.0,1.0,1.0,-1.0,1.0,0.0,0.0,0.0,0.0,0.0,0.0,0.0,0.0,0.0,-0.3333,0.0,-0.3333,0.0,3
3.6,run,9.63,3.61,6.44,14.43,2.69,0.0,-0.05,0.0,0.286,29.53,-31.9,119.71,-25.66,-43.86,72.51,-1.05,-34.72,95.45,-33.49,-12.66,103.36,-34.45,12.92,82.27,34.54,0.79,76.9,24.5,-28.21,108.57,-35.0,-54.42,83.16,-5.0,-24.0,96.74,-35.0,-21.15,101.51,-29.0,22.5,92.78,35.0,-10.62,89.07,-1.0,-0.9955,-1.0,-1.0,-1.0,1.0,-1.0,0.403,1.0,-1.0,-1.0,-1.0,1.0,0.3656,0.7349,1.0,-1.0,1.0,0.019,0.169,0.006,0.013,0.019,0.019,0.006,0.019,0.13,0.006,0.0,0.039,0.019,0.169,0.006,0.019,0.006,0.045,0.5415,-0.9097,0.7164,-0.4234,-1.0308,-0.1273,-0.0276,-0.9664,0.2838,-0.5937,-0.4817,0.405,-0.6013,-0.1227,0.0537,0.6044,-0.2684,-0.0552,-0.1767,0.2753,-0.0773,-0.3101,0.0556,0.0294,0.279,0.272,-0.2844,-0.1574,-0.2961,0.3028,-0.1877,0.2798,-0.138,-0.0,-0.2058,0.2871,0.7201,0.2048,-0.0601,-0.0849,-0.0446,-1.0,-1.0,-1.0,-1.0,-1.0,1.0,-1.0,1.0,1.0,-1.0,-0.5805,-1.0,1.0,1.0,1.0,1.0,-1.0,1.0,0.0,0.0,0.0,0.0,0.0,0.0,0.0,0.0,0.0,-0.3333,0.0,-0.3333,0.0,3
3.64,run,9.63,3.92,-0.09,5.97,5.62,0.0,-0.05,0.0,0.292,28.21,-30.76,118.3,-27.16,-44.91,73.92,-0.53,-33.4,94.66,-33.57,-13.97,104.33,-34.1,14.06,83.14,34.54,-0.53,78.31,23.0,-26.71,107.07,-35.0,-55.92,84.66,-6.5,-25.5,98.24,-35.0,-22.65,100.01,-27.5,21.0,94.28,35.0,-12.12,90.57,-0.5527,1.0,-1.0,-1.0,-1.0,1.0,-1.0,-1.0,1.0,-1.0,-1.0,-1.0,1.0,0.5385,1.0,1.0,-1.0,1.0,0.019,0.163,0.0,0.019,0.026,0.006,0.006,0.045,0.091,0.013,0.006,0.006,0.013,0.292,0.052,0.019,0.006,0.045,0.517,-0.8866,0.6918,-0.4464,-1.0462,-0.1074,-0.0138,-0.9449,0.2654,-0.589,-0.5062,0.4249,-0.5998,-0.1012,0.0522,0.6044,-0.293,-0.0291,-0.2156,0.2789,-0.1461,-0.3032,-0.0185,0.0953,0.247,0.2709,-0.268,-0.093,-0.2992,0.2866,-0.1257,0.2763,-0.1024,-0.0,-0.236,0.2986,0.7356,0.2595,0.1125,0.2519,0.0469,-1.0,-0.9955,-1.0,-1.0,-1.0,1.0,-1.0,0.403,1.0,-1.0,-1.0,-1.0,1.0,0.3656,0.7349,1.0,-1.0,1.0,0.0,0.0,0.0,0.0,0.0,0.0,0.0,0.0,0.0,-0.3333,0.0,-0.3333,0.0,3
3.68,run,9.61,4.54,-1.88,14.71,0.26,0.0,-0.05,0.0,0.292,26.72,-29.88,116.89,-28.56,-46.32,75.32,-0.35,-32.08,94.22,-34.19,-15.21,104.77,-33.31,15.21,83.94,34.54,-1.93,79.72,21.5,-25.21,105.57,-35.0,-57.42,86.16,-8.0,-27.0,99.74,-35.0,-24.15,98.51,-26.0,19.5,95.78,35.0,-13.62,92.07,-1.0,0.3959,-1.0,-1.0,-1.0,1.0,-1.0,-0.7066,1.0,-1.0,-1.0,-1.0,1.0,-1.0,1.0,1.0,-1.0,1.0,0.019,0.163,0.0,0.019,0.026,0.006,0.006,0.045,0.091,0.013,0.006,0.006,0.013,0.292,0.052,0.019,0.006,0.045,0.4939,-0.8667,0.6673,-0.4725,-1.0646,-0.0828,-0.0046,-0.9219,0.2516,-0.5906,-0.5292,0.4418,-0.5937,-0.0813,0.0675,0.6044,-0.316,-0.0046,-0.2373,0.2701,-0.1944,-0.3102,-0.0821,0.1588,0.2075,0.276,-0.2394,-0.0708,-0.2958,0.264,-0.0649,0.2683,-0.0141,-0.0,-0.2515,0.3012,0.7362,0.2865,-0.0016,0.1043,0.0981,-0.5527,1.0,-1.0,-1.0,-1.0,1.0,-1.0,-1.0,1.0,-1.0,-1.0,-1.0,1.0,0.5385,1.0,1.0,-1.0,1.0,0.0,0.0,0.0,0.0,0.0,0.0,0.0,0.0,0.0,-0.3333,0.0,-0.3333,0.0,3
3.72,run,9.72,5.12,0.79,12.61,-0.24,0.0,-0.05,0.0,0.292,25.4,-29.18,115.4,-29.97,-47.72,76.82,-0.44,-30.76,94.04,-34.63,-16.08,104.85,-32.17,16.17,85.08,34.54,-3.43,81.12,20.0,-23.71,104.07,-35.0,-58.92,87.66,-9.5,-28.5,101.24,-35.0,-25.65,97.01,-24.5,18.0,97.28,35.0,-15.12,93.57,-1.0,1.0,-1.0,-1.0,-1.0,1.0,-1.0,-1.0,1.0,-1.0,-1.0,-1.0,1.0,-1.0,1.0,1.0,-1.0,1.0,0.019,0.163,0.0,0.019,0.026,0.006,0.006,0.045,0.091,0.013,0.006,0.006,0.013,0.292,0.052,0.019,0.006,0.045,0.4679,-0.8514,0.6427,-0.497,-1.0891,-0.0583,-0.0015,-0.8989,0.2439,-0.6013,-0.5507,0.4495,-0.5798,-0.0614,0.0813,0.6044,-0.3405,0.0199,-0.2639,0.2466,-0.2281,-0.3091,-0.1494,0.2032,0.1567,0.2794,-0.1964,-0.0898,-0.2876,0.2135,0.0063,0.2625,0.0419,-0.0,-0.2681,0.3028,0.7337,0.3407,-0.0329,0.2567,0.0046,-1.0,0.3959,-1.0,-1.0,-1.0,1.0,-1.0,-0.7066,1.0,-1.0,-1.0,-1.0,1.0,-1.0,1.0,1.0,-1.0,1.0,0.0,0.0,0.0,0.0,0.0,0.0,0.0,0.0,0.0,-0.3333,0.0,-0.3333,0.0,3
3.76,run,9.96,5.72,2.76,14.96,0.44,0.0,-0.05,0.0,0.39,23.99,-28.3,113.91,-31.38,-49.13,78.22,-0.53,-29.53,94.04,-34.89,-18.02,104.41,-30.85,17.14,86.31,34.63,-4.83,82.53,18.5,-22.21,102.57,-35.0,-60.42,89.16,-11.0,-30.0,102.74,-35.0,-27.15,95.51,-23.0,16.5,98.78,35.0,-16.62,95.07,-1.0,1.0,-1.0,-1.0,-1.0,1.0,-1.0,-1.0,1.0,-1.0,-1.0,-1.0,1.0,-1.0,1.0,1.0,-1.0,1.0,0.039,0.189,0.0,0.013,0.026,0.006,0.026,0.045,0.006,0.0,0.006,0.006,0.006,0.39,0.221,0.013,0.006,0.052,0.4449,-0.8391,0.6167,-0.5216,-1.1137,-0.0322,-0.0031,-0.8759,0.2408,-0.609,-0.566,0.451,-0.5599,-0.0445,0.1012,0.6044,-0.3666,0.0445,-0.2709,0.2186,-0.2574,-0.3084,-0.1966,0.24,0.104,0.2818,-0.1489,-0.0916,-0.2588,0.1552,0.0791,0.247,0.1041,-0.0,-0.2854,0.304,0.7438,0.3919,0.0139,0.2202,-0.0042,-1.0,1.0,-1.0,-1.0,-1.0,1.0,-1.0,-1.0,1.0,-1.0,-1.0,-1.0,1.0,-1.0,1.0,1.0,-1.0,1.0,0.0,0.0,0.0,0.0,0.0,0.0,0.0,0.0,0.0,-0.3333,0.0,-0.3333,0.0,3
3.8,run,10.09,6.18,3.05,10.65,1.56,0.0,-0.05,0.0,0.39,22.59,-27.25,112.5,-32.61,-50.54,79.63,-1.49,-28.74,94.22,-34.8,-19.25,103.89,-29.62,17.58,87.63,34.63,-6.33,83.85,17.0,-20.71,101.07,-35.0,-61.92,90.66,-12.5,-31.5,104.24,-35.0,-28.65,94.01,-21.5,15.0,100.28,35.0,-18.12,96.57,-1.0,1.0,-1.0,-1.0,-1.0,1.0,-1.0,-1.0,1.0,-1.0,-0.9677,-1.0,1.0,-1.0,1.0,1.0,-1.0,1.0,0.039,0.189,0.0,0.013,0.026,0.006,0.026,0.045,0.006,0.0,0.006,0.006,0.006,0.39,0.221,0.013,0.006,0.052,0.4203,-0.8237,0.5906,-0.5461,-1.1382,-0.0077,-0.0046,-0.8544,0.2408,-0.6136,-0.5998,0.4433,-0.5369,-0.0276,0.1227,0.6059,-0.3912,0.069,-0.2818,0.2106,-0.2781,-0.308,-0.2298,0.2601,0.067,0.2779,-0.1043,-0.0814,-0.3079,0.0799,0.1418,0.2363,0.1535,0.0058,-0.2919,0.3049,0.7643,0.4435,0.0482,0.2611,0.0076,-1.0,1.0,-1.0,-1.0,-1.0,1.0,-1.0,-1.0,1.0,-1.0,-1.0,-1.0,1.0,-1.0,1.0,1.0,-1.0,1.0,0.0,0.0,0.0,0.0,0.0,0.0,0.0,0.0,0.0,-0.3333,0.0,-0.3333,0.0,3
3.84,run,10.2,6.62,2.13,9.45,0.7,0.0,-0.05,0.0,0.39,21.27,-26.1,111.01,-33.57,-51.94,81.04,-2.81,-28.3,94.92,-34.89,-20.57,102.66,-28.21,17.67,88.86,34.72,-7.82,85.25,15.5,-19.21,99.57,-33.5,-63.42,92.16,-14.0,-33.0,105.74,-35.0,-30.15,92.51,-20.0,13.5,101.78,35.0,-19.62,98.07,-0.8355,1.0,-1.0,-0.5003,-1.0,1.0,-1.0,-1.0,1.0,-1.0,-0.8986,-1.0,1.0,-1.0,1.0,1.0,-1.0,1.0,0.039,0.189,0.0,0.013,0.026,0.006,0.026,0.045,0.006,0.0,0.006,0.006,0.006,0.39,0.221,0.013,0.006,0.052,0.3958,-0.8053,0.566,-0.5676,-1.1628,0.0169,-0.0215,-0.8406,0.2439,-0.6121,-0.6213,0.4341,-0.5154,-0.0199,0.1457,0.6059,-0.4172,0.092,-0.2893,0.2165,-0.2867,-0.2962,-0.2529,0.2742,-0.0164,0.2463,-0.0615,-0.0512,-0.2961,0.0214,0.1798,0.1942,0.1937,0.004,-0.3022,0.2998,0.7763,0.4838,0.0532,0.1858,0.0272,-1.0,1.0,-1.0,-1.0,-1.0,1.0,-1.0,-1.0,1.0,-1.0,-0.9677,-1.0,1.0,-1.0,1.0,1.0,-1.0,1.0,0.0,0.0,0.0,0.0,0.0,0.0,0.0,0.0,0.0,-0.3333,0.0,-0.3333,0.0,3
3.88,run,10.42,7.14,4.25,12.0,0.92,0.0,-0.05,0.0,0.481,19.86,-24.87,109.51,-34.28,-53.35,82.44,-4.13,-28.04,95.98,-34.89,-22.06,101.43,-26.72,17.67,90.18,34.72,-9.23,86.66,14.0,-17.71,98.07,-32.0,-64.92,93.66,-15.5,-34.5,107.24,-35.0,-31.65,91.01,-18.5,12.0,103.28,35.0,-21.12,99.57,-0.3987,1.0,-1.0,0.9175,-1.0,1.0,-1.0,-1.0,1.0,-1.0,-0.7832,-1.0,1.0,-1.0,1.0,1.0,-1.0,1.0,0.033,0.182,0.0,0.006,0.026,0.006,0.026,0.026,0.006,0.0,0.019,0.013,0.019,0.481,0.247,0.013,0.0,0.058,0.3728,-0.7854,0.54,-0.5844,-1.1873,0.0414,-0.0445,-0.833,0.2562,-0.6136,-0.6443,0.4126,-0.4909,-0.0184,0.1672,0.6075,-0.4433,0.1166,-0.2886,0.2261,-0.2982,-0.2704,-0.2688,0.2837,-0.0975,0.2011,0.0029,-0.0416,-0.2933,-0.0653,0.2176,0.1416,0.2159,0.0086,-0.309,0.3016,0.7853,0.5222,0.0372,0.1649,0.0123,-0.8355,1.0,-1.0,-0.5003,-1.0,1.0,-1.0,-1.0,1.0,-1.0,-0.8986,-1.0,1.0,-1.0,1.0,1.0,-1.0,1.0,0.0,0.0,0.0,0.0,0.0,0.0,0.0,0.0,0.0,-0.3333,0.0,-0.3333,0.0,3
3.92,run,10.59,7.31,5.12,2.47,2.9,0.0,-0.05,0.0,0.481,18.46,-23.64,108.02,-34.63,-54.76,83.94,-5.54,-28.04,97.29,-34.8,-23.47,99.93,-25.49,17.67,91.58,34.72,-10.55,88.07,12.5,-16.21,96.57,-30.5,-66.42,95.16,-17.0,-36.0,108.74,-35.0,-33.15,89.51,-17.0,10.5,104.78,35.0,-22.62,101.07,0.2126,1.0,-1.0,1.0,-1.0,1.0,-1.0,-1.0,1.0,-1.0,-0.7871,-1.0,1.0,-1.0,1.0,1.0,-1.0,1.0,0.033,0.182,0.0,0.006,0.026,0.006,0.026,0.026,0.006,0.0,0.019,0.013,0.019,0.481,0.247,0.013,0.0,0.058,0.3482,-0.7639,0.5139,-0.5967,-1.2118,0.066,-0.0675,-0.8283,0.2746,-0.6136,-0.6703,0.3912,-0.4648,-0.0184,0.1902,0.6075,-0.4679,0.1411,-0.2942,0.2389,-0.3067,-0.2354,-0.2803,0.2907,-0.1547,0.1581,0.0711,-0.0291,-0.3032,-0.1264,0.2503,0.0992,0.2375,0.006,-0.3085,0.3033,0.8045,0.5674,0.0742,0.2095,0.016,-0.3987,1.0,-1.0,0.9175,-1.0,1.0,-1.0,-1.0,1.0,-1.0,-0.7832,-1.0,1.0,-1.0,1.0,1.0,-1.0,1.0,0.0,0.0,0.0,0.0,0.0,0.0,0.0,0.0,0.0,-0.3333,0.0,-0.3333,0.0,3
3.96,run,10.62,7.38,0.71,0.98,1.06,0.0,-0.05,0.0,0.481,17.14,-22.32,106.61,-34.63,-56.25,85.34,-6.94,-28.39,98.61,-34.89,-24.87,98.53,-23.91,17.67,92.99,34.72,-12.04,89.56,14.0,-14.71,95.07,-29.0,-67.92,96.66,-18.5,-37.5,110.24,-35.0,-34.65,88.01,-15.5,9.0,106.28,35.0,-24.12,102.57,0.5858,0.2895,-1.0,1.0,-1.0,1.0,-1.0,-1.0,1.0,-1.0,-0.6226,-1.0,1.0,-1.0,1.0,1.0,-1.0,1.0,0.033,0.182,0.0,0.006,0.026,0.006,0.026,0.026,0.006,0.0,0.019,0.013,0.019,0.481,0.247,0.013,0.0,0.058,0.3237,-0.7424,0.4878,-0.6029,-1.2364,0.092,-0.092,-0.8283,0.2976,-0.6121,-0.6949,0.3651,-0.4433,-0.0184,0.2148,0.6075,-0.4909,0.1657,-0.2979,0.2478,-0.3125,-0.1878,-0.2883,0.3013,-0.2003,0.1106,0.1361,-0.0146,-0.3043,-0.1862,0.2557,0.0694,0.2583,0.0042,-0.3022,0.3043,0.8199,0.5829,0.0893,0.0431,0.0507,0.2126,1.0,-1.0,1.0,-1.0,1.0,-1.0,-1.0,1.0,-1.0,-0.7871,-1.0,1.0,-1.0,1.0,1.0,-1.0,1.0,0.0,0.0,0.0,0.0,0.0,0.0,0.0,0.0,0.0,-0.3333,0.0,-0.3333,0.0,3
4.0,run,10.88,7.08,7.26,-8.9,0.25,0.0,-0.05,0.0,0.481,15.91,-21.01,105.12,-34.54,-57.66,86.84,-8.35,-29.27,100.02,-34.89,-26.37,97.12,-22.5,17.49,94.39,34.72,-13.36,91.05,15.5,-16.21,93.57,-27.5,-69.42,98.16,-20.0,-39.0,111.74,-35.0,-36.15,86.51,-14.0,7.5,107.78,35.0,-25.62,104.07,0.5576,-0.1105,-1.0,1.0,-1.0,1.0,-1.0,-1.0,1.0,-1.0,-0.2244,-1.0,1.0,-1.0,1.0,1.0,-1.0,1.0,0.033,0.189,0.0,0.026,0.019,0.013,0.019,0.0,0.013,0.0,0.019,0.013,0.013,0.013,0.331,0.013,0.006,0.039,0.3007,-0.7194,0.4633,-0.6029,-1.2625,0.1166,-0.1166,-0.8345,0.3206,-0.6136,-0.7194,0.3405,-0.4157,-0.0184,0.2393,0.6075,-0.517,0.1917,-0.295,0.2598,-0.3109,-0.1314,-0.2997,0.3031,-0.2324,0.0544,0.1816,-0.016,-0.3052,-0.2225,0.2827,0.0486,0.273,0.0029,-0.3095,0.311,0.8224,0.5888,0.0124,0.0171,0.0186,0.5858,0.2895,-1.0,1.0,-1.0,1.0,-1.0,-1.0,1.0,-1.0,-0.6226,-1.0,1.0,-1.0,1.0,1.0,-1.0,1.0,0.0,0.0,0.0,0.0,0.0,0.0,0.0,0.0,0.0,-0.3333,0.0,-0.3333,0.0,3
4.04,run,10.59,6.92,-5.22,-3.29,-2.4,0.0,-0.05,0.0,0.481,14.85,-19.6,103.71,-33.84,-59.06,88.24,-9.84,-30.32,101.43,-34.8,-27.69,95.62,-21.18,16.35,95.89,34.72,-14.68,92.55,16.09,-17.71,92.07,-26.0,-70.92,99.66,-21.5,-40.5,113.24,-35.0,-34.65,85.01,-12.5,6.0,109.28,35.0,-27.12,105.57,0.4598,-1.0,-1.0,1.0,-1.0,1.0,-1.0,-1.0,1.0,-1.0,0.0237,-1.0,1.0,-0.9542,1.0,1.0,-0.933,1.0,0.033,0.189,0.0,0.026,0.019,0.013,0.019,0.0,0.013,0.0,0.019,0.013,0.013,0.013,0.331,0.013,0.006,0.039,0.2792,-0.6964,0.4372,-0.6013,-1.287,0.1427,-0.1411,-0.8498,0.3451,-0.6136,-0.7455,0.316,-0.3912,-0.0215,0.2638,0.6075,-0.54,0.2178,-0.2869,0.2681,-0.3153,-0.0863,-0.3018,0.3099,-0.2546,-0.0194,0.2191,-0.0112,-0.3113,-0.2477,0.2898,0.0225,0.2831,0.0021,-0.3029,0.3154,0.8449,0.5624,0.1267,-0.1554,0.0043,0.5576,-0.1105,-1.0,1.0,-1.0,1.0,-1.0,-1.0,1.0,-1.0,-0.2244,-1.0,1.0,-1.0,1.0,1.0,-1.0,1.0,0.0,0.0,0.0,0.0,0.0,0.0,0.0,0.0,0.0,-0.3333,0.0,-0.3333,0.0,3
4.08,run,10.29,5.94,-8.46,-19.17,5.93,0.0,-0.05,0.0,0.481,14.06,-18.37,102.3,-32.08,-60.47,89.65,-11.34,-31.55,102.83,-34.89,-29.18,94.22,-19.78,14.77,97.38,34.72,-16.0,94.04,14.59,-19.21,90.57,-24.5,-72.42,101.16,-23.0,-42.0,114.74,-35.0,-33.15,83.51,-11.0,4.5,110.78,35.0,-28.62,107.07,0.1113,-0.9558,-1.0,1.0,-1.0,1.0,-1.0,-1.0,1.0,-1.0,0.448,-1.0,1.0,-1.0,1.0,1.0,-0.1625,1.0,0.033,0.189,0.0,0.026,0.019,0.013,0.019,0.0,0.013,0.0,0.019,0.013,0.013,0.013,0.331,0.013,0.006,0.039,0.2608,-0.6719,0.4126,-0.589,-1.3116,0.1672,-0.1672,-0.8682,0.3697,-0.6121,-0.7685,0.2899,-0.3682,-0.0414,0.2899,0.6075,-0.563,0.2439,-0.2699,0.2798,-0.3128,-0.0143,-0.3033,0.309,-0.2761,-0.0827,0.2455,-0.0021,-0.3043,-0.2713,0.2892,-0.0591,0.296,0.0014,-0.2983,0.3186,0.8192,0.5489,-0.0911,-0.0575,-0.0419,0.4598,-1.0,-1.0,1.0,-1.0,1.0,-1.0,-1.0,1.0,-1.0,0.0237,-1.0,1.0,-0.9542,1.0,1.0,-0.933,1.0,0.0,0.0,0.0,0.0,0.0,0.0,0.0,0.0,0.0,-0.3333,0.0,-0.3333,0.0,3
4.12,run,10.5,5.16,3.29,-20.29,14.2,0.0,-0.05,0.0,0.481,13.54,-17.4,100.81,-31.46,-61.88,91.05,-12.74,-33.05,104.24,-34.89,-30.5,92.81,-18.37,13.54,98.96,34.72,-16.88,95.62,13.09,-20.71,89.07,-23.0,-70.92,102.66,-24.5,-43.5,116.24,-35.0,-31.65,82.01,-9.5,3.0,112.28,35.0,-27.12,108.57,-0.1531,-1.0,-1.0,1.0,-0.5906,1.0,-1.0,-1.0,1.0,-1.0,0.858,-1.0,1.0,-0.6409,1.0,1.0,0.1679,1.0,0.013,0.084,0.0,0.039,0.013,0.013,0.019,0.006,0.006,0.0,0.013,0.013,0.019,0.019,0.189,0.013,0.026,0.019,0.247,-0.6504,0.3881,-0.5584,-1.3361,0.1917,-0.1933,-0.8897,0.3942,-0.6136,-0.7946,0.2654,-0.3436,-0.069,0.316,0.6075,-0.586,0.27,-0.2407,0.2763,-0.3109,0.1049,-0.3042,0.3082,-0.2909,-0.1383,0.2638,-0.0072,-0.3107,-0.2818,0.2944,-0.1448,0.3049,0.001,-0.295,0.3207,0.7937,0.4628,-0.1476,-0.3346,0.1036,0.1113,-0.9558,-1.0,1.0,-1.0,1.0,-1.0,-1.0,1.0,-1.0,0.448,-1.0,1.0,-1.0,1.0,1.0,-0.1625,1.0,0.0,0.0,0.0,0.0,0.0,0.0,0.0,0.0,0.0,-0.3333,0.0,-0.3333,0.0,3
4.16,run,10.5,5.31,-1.27,4.07,10.16,0.0,-0.05,0.0,0.481,13.45,-16.88,99.49,-29.97,-63.37,92.46,-14.15,-34.45,105.47,-34.89,-31.55,91.41,-16.96,12.3,100.72,34.72,-18.46,97.12,11.59,-22.21,87.57,-21.5,-69.42,104.16,-26.0,-45.0,117.74,-35.0,-30.15,80.51,-8.0,1.5,113.78,35.0,-25.62,110.07,-0.1153,-1.0,-1.0,1.0,-0.774,1.0,-1.0,-0.9382,1.0,-1.0,1.0,-1.0,1.0,0.1526,1.0,1.0,0.6669,1.0,0.013,0.084,0.0,0.039,0.013,0.013,0.019,0.006,0.006,0.0,0.013,0.013,0.019,0.019,0.189,0.013,0.026,0.019,0.2378,-0.6335,0.362,-0.5476,-1.3606,0.2163,-0.2178,-0.9158,0.4188,-0.6136,-0.8176,0.2408,-0.3191,-0.0905,0.3436,0.6075,-0.6013,0.2976,-0.203,0.2568,-0.3156,0.1137,-0.3051,0.3079,-0.2958,-0.1947,0.2768,-0.005,-0.3039,-0.2894,0.2982,-0.182,0.3171,0.0007,-0.2641,0.3282,0.8121,0.3951,0.0574,-0.3541,0.2479,-0.1531,-1.0,-1.0,1.0,-0.5906,1.0,-1.0,-1.0,1.0,-1.0,0.858,-1.0,1.0,-0.6409,1.0,1.0,0.1679,1.0,0.0,0.0,0.0,0.0,0.0,0.0,0.0,0.0,0.0,-0.3333,0.0,-0.3333,0.0,3
4.2,run,10.2,5.49,-9.01,6.03,6.17,0.0,-0.05,0.0,0.481,13.45,-16.7,98.17,-27.86,-64.69,93.96,-15.56,-35.86,106.61,-34.89,-32.43,90.0,-15.56,10.81,102.3,34.89,-19.95,98.61,10.09,-23.71,86.07,-20.0,-67.92,105.66,-27.5,-46.5,119.24,-35.0,-28.65,79.01,-6.5,0.0,115.28,35.0,-24.12,111.57,-0.4924,-1.0,-1.0,1.0,-0.0287,1.0,-1.0,-1.0,1.0,-1.0,0.7473,-1.0,1.0,-0.9103,1.0,1.0,1.0,1.0,0.013,0.084,0.0,0.039,0.013,0.013,0.019,0.006,0.006,0.0,0.013,0.013,0.019,0.019,0.189,0.013,0.026,0.019,0.2362,-0.6243,0.339,-0.5216,-1.3867,0.2408,-0.2424,-0.9403,0.4403,-0.6136,-0.836,0.2163,-0.2945,-0.112,0.3743,0.6075,-0.6289,0.3237,-0.1479,0.2142,-0.307,0.1772,-0.3112,0.3074,-0.299,-0.2282,0.2742,-0.0035,-0.2816,-0.2945,0.3007,-0.2078,0.3368,0.0005,-0.2883,0.3274,0.8114,0.4084,-0.0221,0.071,0.1774,-0.1153,-1.0,-1.0,1.0,-0.774,1.0,-1.0,-0.9382,1.0,-1.0,1.0,-1.0,1.0,0.1526,1.0,1.0,0.6669,1.0,0.0,0.0,0.0,0.0,0.0,0.0,0.0,0.0,0.0,-0.3333,0.0,-0.3333,0.0,3
4.24,run,9.84,5.78,-9.82,7.74,0.48,0.0,-0.05,0.0,0.481,12.92,-16.7,96.77,-27.6,-66.09,95.36,-16.96,-37.0,108.28,-34.89,-32.96,88.59,-14.24,9.4,103.71,34.8,-21.36,100.02,8.59,-25.21,84.57,-18.5,-66.42,107.16,-29.0,-48.0,120.74,-35.0,-27.15,77.51,-5.0,-1.5,116.78,35.0,-22.62,113.07,-0.5585,-0.8671,-1.0,1.0,0.9103,1.0,-1.0,-1.0,1.0,-1.0,0.8395,-1.0,1.0,-1.0,1.0,1.0,1.0,1.0,0.026,0.006,0.0,0.033,0.013,0.006,0.019,0.019,0.019,0.0,0.0,0.019,0.026,0.019,0.111,0.006,0.013,0.013,0.2362,-0.6213,0.316,-0.4847,-1.4097,0.2669,-0.2669,-0.9649,0.4602,-0.6136,-0.8514,0.1917,-0.27,-0.1381,0.4019,0.6105,-0.655,0.3497,-0.1035,0.1614,-0.3013,0.2623,-0.3043,0.3131,-0.3014,-0.2519,0.2668,-0.0025,-0.2547,-0.2983,0.3026,-0.2434,0.3395,0.0119,-0.2997,0.3271,0.7853,0.424,-0.1573,0.1052,0.1077,-0.4924,-1.0,-1.0,1.0,-0.0287,1.0,-1.0,-1.0,1.0,-1.0,0.7473,-1.0,1.0,-0.9103,1.0,1.0,1.0,1.0,0.0,0.0,0.0,0.0,0.0,0.0,0.0,0.0,0.0,-0.3333,0.0,-0.3333,0.0,3
4.28,run,9.59,6.22,-6.3,10.81,1.8,0.0,-0.05,0.0,0.481,11.95,-16.7,95.45,-25.31,-67.15,96.77,-18.37,-38.67,109.69,-34.89,-33.05,87.19,-12.83,8.09,105.21,34.89,-22.68,101.43,7.09,-26.71,83.07,-17.0,-64.92,108.66,-30.5,-49.5,122.24,-35.0,-25.65,76.01,-3.5,-3.0,118.28,35.0,-21.12,114.57,-0.6521,-0.5743,-1.0,1.0,1.0,1.0,-1.0,-1.0,1.0,-1.0,0.9437,-1.0,1.0,-1.0,1.0,1.0,1.0,1.0,0.026,0.006,0.0,0.033,0.013,0.006,0.019,0.019,0.019,0.0,0.0,0.019,0.026,0.019,0.111,0.006,0.013,0.013,0.227,-0.6213,0.2915,-0.4801,-1.4343,0.2915,-0.2915,-0.9848,0.4893,-0.6136,-0.8606,0.1672,-0.247,-0.1626,0.4264,0.609,-0.6796,0.3743,-0.107,0.113,-0.303,0.2009,-0.305,0.3112,-0.303,-0.2511,0.2961,-0.0017,-0.2128,-0.3009,0.2981,-0.2624,0.3297,0.0026,-0.3018,0.321,0.754,0.4495,-0.1713,0.135,0.0083,-0.5585,-0.8671,-1.0,1.0,0.9103,1.0,-1.0,-1.0,1.0,-1.0,0.8395,-1.0,1.0,-1.0,1.0,1.0,1.0,1.0,0.0,0.0,0.0,0.0,0.0,0.0,0.0,0.0,0.0,-0.3333,0.0,-0.3333,0.0,3
4.32,run,9.39,6.83,-5.29,15.41,-1.01,0.0,-0.05,0.0,0.481,10.9,-17.58,94.04,-23.82,-67.94,98.17,-19.78,-40.08,111.01,-34.89,-33.05,85.69,-11.43,6.59,106.61,34.89,-23.99,102.83,5.59,-28.21,81.57,-15.5,-63.42,110.16,-32.0,-51.0,123.74,-35.0,-24.15,74.51,-2.0,-4.5,119.78,35.0,-19.62,116.07,-0.3138,-0.5259,-1.0,1.0,1.0,1.0,-1.0,-1.0,1.0,-1.0,0.5193,-1.0,1.0,-1.0,1.0,1.0,1.0,1.0,0.026,0.006,0.0,0.033,0.013,0.006,0.019,0.019,0.019,0.0,0.0,0.019,0.026,0.019,0.111,0.006,0.013,0.013,0.2102,-0.6213,0.2684,-0.4403,-1.4527,0.316,-0.316,-1.014,0.5139,-0.6136,-0.8621,0.1427,-0.2224,-0.1856,0.4525,0.6105,-0.7026,0.3988,-0.1382,0.0791,-0.2984,0.2902,-0.2826,0.3099,-0.3042,-0.2851,0.2993,-0.0012,-0.1547,-0.3027,0.3007,-0.27,0.3286,0.0075,-0.2976,0.3168,0.7323,0.4872,-0.1099,0.1886,0.0314,-0.6521,-0.5743,-1.0,1.0,1.0,1.0,-1.0,-1.0,1.0,-1.0,0.9437,-1.0,1.0,-1.0,1.0,1.0,1.0,1.0,0.0,0.0,0.0,0.0,0.0,0.0,0.0,0.0,0.0,-0.3333,0.0,-0.3333,0.0,3
4.36,run,9.22,7.27,-4.93,11.27,4.44,0.0,-0.05,0.0,0.481,9.49,-18.72,92.64,-23.2,-68.55,99.58,-21.18,-41.4,112.41,-34.89,-32.43,84.38,-10.11,5.1,107.93,34.89,-24.26,104.15,4.09,-29.71,80.07,-14.0,-61.92,111.66,-33.5,-52.5,125.24,-35.0,-22.65,73.01,-0.5,-6.0,121.28,35.0,-18.12,117.57,-0.0751,-0.1477,-1.0,1.0,1.0,1.0,-1.0,-1.0,1.0,-1.0,0.2825,-1.0,1.0,-1.0,1.0,1.0,1.0,1.0,0.026,0.0,0.0,0.013,0.006,0.013,0.026,0.006,0.026,0.0,0.013,0.013,0.026,0.013,0.169,0.0,0.0,0.026,0.1917,-0.6366,0.2439,-0.4142,-1.4665,0.3405,-0.3405,-1.0385,0.5369,-0.6136,-0.8621,0.1166,-0.1979,-0.2117,0.4771,0.6105,-0.7256,0.4234,-0.1656,-0.002,-0.3007,0.3008,-0.2495,0.3088,-0.3048,-0.2914,0.2956,-0.0008,-0.1083,-0.3095,0.3024,-0.2866,0.3219,0.0053,-0.2944,0.3136,0.7151,0.5403,-0.0923,0.2689,-0.0175,-0.3138,-0.5259,-1.0,1.0,1.0,1.0,-1.0,-1.0,1.0,-1.0,0.5193,-1.0,1.0,-1.0,1.0,1.0,1.0,1.0,0.0,0.0,0.0,0.0,0.0,0.0,0.0,0.0,0.0,-0.3333,0.0,-0.3333,0.0,3
4.4,run,9.14,7.68,-2.52,9.49,4.04,0.0,-0.05,0.0,0.481,8.0,-19.95,91.23,-21.01,-68.73,100.99,-22.59,-42.8,113.82,-34.89,-31.46,82.88,-8.7,3.87,109.51,34.89,-24.43,105.47,5.59,-31.21,78.57,-12.5,-60.42,113.16,-35.0,-54.0,126.74,-35.0,-24.15,71.51,1.0,-7.5,122.78,35.0,-16.62,119.07,0.1727,-0.2768,-0.9756,1.0,1.0,1.0,-1.0,-1.0,1.0,-1.0,0.0076,-1.0,1.0,-1.0,1.0,1.0,1.0,1.0,0.026,0.0,0.0,0.013,0.006,0.013,0.026,0.006,0.026,0.0,0.013,0.013,0.026,0.013,0.169,0.0,0.0,0.026,0.1672,-0.6565,0.2194,-0.4034,-1.4772,0.3651,-0.3651,-1.0615,0.5614,-0.6136,-0.8514,0.0936,-0.1749,-0.2378,0.5001,0.6105,-0.7302,0.4464,-0.2081,-0.0763,-0.3027,0.2509,-0.215,0.3084,-0.3056,-0.2905,0.2992,-0.0006,-0.0355,-0.3031,0.2981,-0.2986,0.3118,0.0037,-0.2234,0.306,0.7002,0.5789,-0.0861,0.1967,0.0775,-0.0751,-0.1477,-1.0,1.0,1.0,1.0,-1.0,-1.0,1.0,-1.0,0.2825,-1.0,1.0,-1.0,1.0,1.0,1.0,1.0,0.0,0.0,0.0,0.0,0.0,0.0,0.0,0.0,0.0,-0.3333,0.0,-0.3333,0.0,3
4.44,run,9.17,8.02,0.91,8.91,3.28,0.0,-0.05,0.0,0.481,6.59,-21.18,89.91,-19.6,-68.64,102.48,-23.99,-44.21,115.14,-34.89,-30.32,81.47,-7.29,2.37,111.01,34.89,-24.43,106.7,7.09,-32.71,77.07,-11.0,-58.92,114.66,-35.0,-55.5,128.24,-35.0,-24.19,70.01,2.5,-9.0,124.28,35.0,-15.12,120.51,0.4445,-0.4858,-0.4773,1.0,0.7638,1.0,-1.0,-1.0,1.0,-1.0,0.0146,-1.0,1.0,-0.9253,1.0,1.0,1.0,0.653,0.026,0.0,0.0,0.013,0.006,0.013,0.026,0.006,0.026,0.0,0.013,0.013,0.026,0.013,0.169,0.0,0.0,0.026,0.1411,-0.678,0.1948,-0.3651,-1.4803,0.3896,-0.3896,-1.0861,0.586,-0.6136,-0.8345,0.0675,-0.1503,-0.2592,0.5277,0.6105,-0.7332,0.4694,-0.2435,-0.134,-0.3039,0.3194,-0.162,0.3079,-0.3059,-0.2953,0.3014,-0.0004,0.0384,-0.3099,0.3007,-0.2895,0.3218,0.0026,-0.1679,0.3004,0.6932,0.6151,-0.044,0.1657,0.0705,0.1727,-0.2768,-0.9756,1.0,1.0,1.0,-1.0,-1.0,1.0,-1.0,0.0076,-1.0,1.0,-1.0,1.0,1.0,1.0,1.0,0.0,0.0,0.0,0.0,0.0,0.0,0.0,0.0,0.0,-0.3333,0.0,-0.3333,0.0,3
4.48,run,9.23,8.04,1.3,0.46,1.45,0.0,-0.05,0.0,0.481,5.62,-22.5,88.51,-18.9,-68.2,103.97,-25.49,-45.44,116.54,-34.89,-28.92,80.07,-5.89,1.23,112.5,34.89,-24.26,108.02,8.59,-34.21,75.57,-9.5,-57.42,116.16,-35.0,-57.0,129.74,-35.0,-22.69,68.51,1.65,-10.5,125.78,35.0,-13.62,119.01,0.7369,-1.0,-0.2079,1.0,0.3495,1.0,-1.0,-1.0,1.0,-1.0,0.4125,-1.0,0.047,-0.7524,1.0,1.0,1.0,-0.6718,0.019,0.0,0.006,0.019,0.013,0.013,0.019,0.033,0.026,0.0,0.006,0.006,0.033,0.0,0.065,0.0,0.065,0.058,0.1166,-0.6995,0.1718,-0.3405,-1.4788,0.4157,-0.4142,-1.1106,0.609,-0.6136,-0.8145,0.043,-0.1258,-0.2853,0.5538,0.6105,-0.7332,0.4909,-0.2626,-0.1744,-0.2992,0.3158,-0.1076,0.3135,-0.3063,-0.2989,0.2974,-0.0003,0.1018,-0.3091,0.3027,-0.3006,0.3232,0.0018,-0.1175,0.291,0.6955,0.6448,0.0159,0.1556,0.0572,0.4445,-0.4858,-0.4773,1.0,0.7638,1.0,-1.0,-1.0,1.0,-1.0,0.0146,-1.0,1.0,-0.9253,1.0,1.0,1.0,0.653,0.0,0.0,0.0,0.0,0.0,0.0,0.0,0.0,0.0,-0.3333,0.0,-0.3333,0.0,3
4.52,run,9.34,8.04,2.94,-0.13,-3.81,0.0,-0.05,0.0,0.481,4.75,-23.82,87.28,-16.88,-67.24,105.29,-26.89,-46.76,117.95,-34.89,-27.51,78.66,-4.48,-0.18,114.08,34.89,-23.38,109.25,10.09,-35.71,77.07,-8.0,-55.92,117.66,-35.0,-58.5,131.24,-35.0,-21.19,67.01,0.15,-12.0,127.28,35.0,-12.12,117.51,1.0,-1.0,0.681,1.0,1.0,1.0,-1.0,-1.0,1.0,-1.0,1.0,-0.0745,-1.0,-0.8642,1.0,1.0,1.0,-1.0,0.019,0.0,0.006,0.019,0.013,0.013,0.019,0.033,0.026,0.0,0.006,0.006,0.033,0.0,0.065,0.0,0.065,0.058,0.0997,-0.7225,0.1473,-0.3283,-1.4711,0.4418,-0.4403,-1.1321,0.6335,-0.6136,-0.79,0.0184,-0.1012,-0.3053,0.5798,0.6105,-0.7302,0.5139,-0.247,-0.2083,-0.3013,0.267,-0.0466,0.3171,-0.3121,-0.2897,0.3001,-0.0002,0.1632,-0.3083,0.3038,-0.2851,0.3239,0.0013,-0.0708,0.2898,0.7013,0.6465,0.0227,0.0081,0.0252,0.7369,-1.0,-0.2079,1.0,0.3495,1.0,-1.0,-1.0,1.0,-1.0,0.4125,-1.0,0.047,-0.7524,1.0,1.0,1.0,-0.6718,0.0,0.0,0.0,0.0,0.0,0.0,0.0,0.0,0.0,-0.3333,0.0,-0.3333,0.0,3
4.56,run,9.37,7.84,-0.47,-3.32,-4.05,0.0,-0.05,0.0,0.481,4.31,-24.96,85.87,-15.82,-66.01,106.7,-28.3,-48.25,119.27,-34.89,-26.1,77.26,-3.08,-1.58,115.66,34.89,-22.41,110.48,11.59,-37.21,78.57,-6.5,-54.42,119.16,-35.0,-60.0,132.74,-35.0,-19.69,68.51,-1.35,-13.5,128.78,35.0,-10.62,116.01,1.0,-1.0,1.0,1.0,1.0,0.8051,-1.0,-1.0,1.0,-1.0,1.0,1.0,-1.0,-0.6473,1.0,1.0,1.0,-1.0,0.019,0.0,0.006,0.019,0.013,0.013,0.019,0.033,0.026,0.0,0.006,0.006,0.033,0.0,0.065,0.0,0.065,0.058,0.0844,-0.7455,0.1258,-0.293,-1.4542,0.4648,-0.4648,-1.1551,0.6581,-0.6136,-0.7655,-0.0061,-0.0767,-0.3298,0.6075,0.6105,-0.7148,0.5354,-0.2304,-0.232,-0.2914,0.3191,0.0306,0.3082,-0.3104,-0.289,0.3021,-0.0001,0.2062,-0.3078,0.3046,-0.2916,0.3302,0.0009,0.008,0.2834,0.7109,0.6464,0.0513,-0.0023,-0.0666,1.0,-1.0,0.681,1.0,1.0,1.0,-1.0,-1.0,1.0,-1.0,1.0,-0.0745,-1.0,-0.8642,1.0,1.0,1.0,-1.0,0.0,0.0,0.0,0.0,0.0,0.0,0.0,0.0,0.0,-0.3333,0.0,-0.3333,0.0,3
4.6,run,9.29,7.45,-4.37,-10.41,-3.43,0.0,-0.05,0.0,0.481,4.22,-26.1,84.46,-14.24,-64.69,108.19,-29.71,-49.66,120.67,-34.89,-24.7,75.85,-1.93,-2.9,117.16,34.89,-21.27,111.8,13.09,-38.71,80.07,-5.0,-52.92,117.66,-35.0,-61.5,134.24,-33.5,-18.19,70.01,-2.85,-15.0,130.28,35.0,-9.12,114.51,1.0,-1.0,1.0,1.0,1.0,-0.2776,-1.0,-1.0,1.0,-0.8444,1.0,1.0,-1.0,-0.8294,1.0,1.0,1.0,-1.0,0.006,0.006,0.013,0.013,0.006,0.013,0.019,0.019,0.039,0.0,0.006,0.019,0.019,0.0,0.052,0.0,0.169,0.071,0.0767,-0.7655,0.1012,-0.2746,-1.4327,0.4893,-0.4893,-1.1812,0.6811,-0.6136,-0.7409,-0.0307,-0.0522,-0.3543,0.6351,0.6105,-0.698,0.5568,-0.19,-0.2372,-0.296,0.2924,0.1019,0.3077,-0.3093,-0.3001,0.2977,-0.0001,0.2364,-0.3075,0.3053,-0.2961,0.3346,0.0006,0.0688,0.2789,0.7132,0.6291,-0.0082,-0.0579,-0.0707,1.0,-1.0,1.0,1.0,1.0,0.8051,-1.0,-1.0,1.0,-1.0,1.0,1.0,-1.0,-0.6473,1.0,1.0,1.0,-1.0,0.0,0.0,0.0,0.0,0.0,0.0,0.0,0.0,0.0,-0.3333,0.0,-0.3333,0.0,3
4.64,run,9.24,7.08,-1.01,-8.65,-5.52,0.0,-0.05,0.0,0.481,4.39,-27.69,83.06,-12.74,-63.28,109.6,-31.03,-51.15,122.08,-34.89,-23.29,74.44,-1.05,-4.31,118.74,34.89,-20.13,112.85,14.59,-40.21,81.57,-3.5,-51.42,116.16,-35.0,-63.0,135.74,-35.0,-16.69,71.51,-4.35,-16.5,128.78,35.0,-7.62,113.01,1.0,-1.0,1.0,1.0,1.0,-0.3603,-1.0,-1.0,1.0,-1.0,1.0,1.0,-1.0,-0.8386,0.3956,1.0,1.0,-1.0,0.006,0.006,0.013,0.013,0.006,0.013,0.019,0.019,0.039,0.0,0.006,0.019,0.019,0.0,0.052,0.0,0.169,0.071,0.0752,-0.7854,0.0767,-0.247,-1.4097,0.5154,-0.5139,-1.2057,0.7056,-0.6136,-0.7164,-0.0552,-0.0322,-0.3774,0.6611,0.6105,-0.678,0.5798,-0.1388,-0.2408,-0.2993,0.3083,0.1577,0.3133,-0.3086,-0.3021,0.3005,-0.0001,0.2575,-0.3073,0.2885,-0.2936,0.3321,0.0004,0.123,0.2815,0.7059,0.5949,-0.0762,-0.1817,-0.0599,1.0,-1.0,1.0,1.0,1.0,-0.2776,-1.0,-1.0,1.0,-0.8444,1.0,1.0,-1.0,-0.8294,1.0,1.0,1.0,-1.0,0.0,0.0,0.0,0.0,0.0,0.0,0.0,0.0,0.0,-0.3333,0.0,-0.3333,0.0,3
4.68,run,8.89,6.22,-8.63,-21.51,-10.74,0.0,-0.05,0.0,0.481,5.71,-29.27,82.35,-11.16,-61.61,111.27,-32.52,-52.56,123.84,-34.37,-21.71,72.77,-0.44,-5.89,120.41,34.89,-18.72,113.73,16.09,-41.71,83.07,-5.0,-49.92,114.66,-35.0,-64.5,137.24,-35.0,-15.19,73.01,-5.85,-18.0,127.28,35.0,-6.12,111.51,1.0,-1.0,1.0,-0.1507,1.0,-1.0,-1.0,-1.0,1.0,-1.0,1.0,1.0,-1.0,-0.8088,-0.7867,1.0,1.0,-1.0,0.006,0.006,0.013,0.013,0.006,0.013,0.019,0.019,0.039,0.0,0.006,0.019,0.019,0.0,0.052,0.0,0.169,0.071,0.0782,-0.813,0.0522,-0.2209,-1.3852,0.54,-0.5369,-1.2318,0.7302,-0.6136,-0.6918,-0.0798,-0.0169,-0.4019,0.6888,0.6105,-0.6581,0.5983,-0.0856,-0.2721,-0.3015,0.3136,0.2024,0.3113,-0.3023,-0.3093,0.3023,-0.0,0.2723,-0.3071,0.2595,-0.2975,0.336,0.0003,0.1609,0.2661,0.7021,0.5629,-0.0176,-0.151,-0.0963,1.0,-1.0,1.0,1.0,1.0,-0.3603,-1.0,-1.0,1.0,-1.0,1.0,1.0,-1.0,-0.8386,0.3956,1.0,1.0,-1.0,0.0,0.0,0.0,0.0,0.0,0.0,0.0,0.0,0.0,-0.3333,0.0,-0.3333,0.0,3
4.72,run,8.37,5.51,-15.66,-21.42,-13.31,0.0,-0.05,0.0,0.481,6.77,-30.5,81.21,-9.93,-60.38,112.41,-33.4,-53.79,124.98,-34.01,-20.39,71.89,-0.26,-7.03,121.73,34.89,-17.58,114.17,17.59,-43.21,84.57,-6.5,-48.42,113.16,-35.0,-66.0,135.74,-35.0,-13.69,74.51,-7.35,-19.5,125.78,35.0,-7.62,110.01,1.0,-1.0,1.0,-1.0,1.0,-1.0,-1.0,-1.0,0.1073,-1.0,1.0,1.0,-1.0,-1.0,-1.0,1.0,-0.327,-1.0,0.0,0.026,0.0,0.013,0.006,0.0,0.006,0.033,0.033,0.019,0.006,0.0,0.0,0.0,0.019,0.0,0.227,0.071,0.1012,-0.8406,0.0399,-0.1933,-1.356,0.5691,-0.563,-1.2563,0.7609,-0.6044,-0.6642,-0.1089,-0.0061,-0.4295,0.7179,0.6105,-0.6335,0.6136,0.016,-0.2816,-0.2515,0.3106,0.2378,0.3141,-0.2976,-0.2974,0.3129,0.0303,0.2817,-0.3111,0.217,-0.2994,0.3313,0.0002,0.1936,0.2369,0.6714,0.4877,-0.1507,-0.3755,-0.1874,1.0,-1.0,1.0,-0.1507,1.0,-1.0,-1.0,-1.0,1.0,-1.0,1.0,1.0,-1.0,-0.8088,-0.7867,1.0,1.0,-1.0,0.0,0.0,0.0,0.0,0.0,0.0,0.0,0.0,0.0,-0.3333,0.0,-0.3333,0.0,3
4.76,run,7.78,4.26,-17.51,-32.12,-9.11,0.0,-0.05,0.0,0.481,7.73,-31.99,80.6,-8.53,-58.97,113.38,-34.01,-55.2,126.47,-34.37,-19.07,71.1,-0.44,-8.44,123.05,34.8,-16.17,114.35,19.09,-44.71,86.07,-8.0,-46.92,111.66,-35.0,-67.5,134.24,-35.0,-12.19,76.01,-8.85,-21.0,124.28,35.0,-9.12,108.51,1.0,-1.0,1.0,-1.0,1.0,-1.0,-1.0,-1.0,-1.0,-1.0,1.0,1.0,-1.0,-1.0,-1.0,1.0,-0.6101,-1.0,0.0,0.026,0.0,0.013,0.006,0.0,0.006,0.033,0.033,0.019,0.006,0.0,0.0,0.0,0.019,0.0,0.227,0.071,0.1197,-0.8621,0.0199,-0.1718,-1.3346,0.589,-0.5783,-1.2778,0.7808,-0.5983,-0.6412,-0.1243,-0.0031,-0.4495,0.7409,0.6105,-0.6136,0.6213,0.0911,-0.2903,-0.2626,0.3106,0.2597,0.3064,-0.2749,-0.3014,0.3055,0.0479,0.297,-0.2844,0.1652,-0.2961,0.3318,0.0001,0.222,0.1991,0.6256,0.4257,-0.2734,-0.3738,-0.2323,1.0,-1.0,1.0,-1.0,1.0,-1.0,-1.0,-1.0,0.1073,-1.0,1.0,1.0,-1.0,-1.0,-1.0,1.0,-0.327,-1.0,0.0,0.0,0.0,0.0,0.0,0.0,0.0,0.0,0.0,-0.3333,0.0,-0.3333,0.0,3
4.8,run,7.07,2.91,-19.39,-35.12,2.32,0.0,-0.05,0.0,0.481,9.23,-33.4,80.33,-7.47,-57.57,114.08,-34.45,-56.6,127.79,-34.98,-17.58,70.66,-0.97,-9.93,124.1,34.8,-14.59,114.35,20.59,-46.21,87.57,-9.5,-45.42,110.16,-35.0,-66.0,132.74,-33.5,-10.69,77.51,-10.35,-22.5,122.78,35.0,-10.62,107.01,1.0,-1.0,1.0,-1.0,1.0,-1.0,-1.0,-0.6419,-1.0,-0.6847,1.0,1.0,-1.0,-1.0,-1.0,1.0,-1.0,-1.0,0.0,0.026,0.0,0.013,0.006,0.0,0.006,0.033,0.033,0.019,0.006,0.0,0.0,0.0,0.019,0.0,0.227,0.071,0.1365,-0.8882,0.0092,-0.1473,-1.31,0.6059,-0.589,-1.3023,0.8069,-0.6044,-0.6182,-0.1381,-0.0061,-0.474,0.7639,0.609,-0.589,0.6243,0.1271,-0.3011,-0.2241,0.3095,0.2739,0.2778,-0.2327,-0.3031,0.3117,0.0105,0.2943,-0.2509,0.1042,-0.2994,0.3186,-0.0057,0.2475,0.1509,0.574,0.3161,-0.3056,-0.5606,-0.159,1.0,-1.0,1.0,-1.0,1.0,-1.0,-1.0,-1.0,-1.0,-1.0,1.0,1.0,-1.0,-1.0,-1.0,1.0,-0.6101,-1.0,0.0,0.0,0.0,0.0,0.0,0.0,0.0,0.0,0.0,-0.3333,0.0,-0.3333,0.0,3
4.84,run,6.43,1.53,-16.2,-34.36,3.47,0.0,-0.05,0.0,0.481,10.72,-34.8,80.42,-6.59,-56.07,114.43,-34.54,-58.1,128.76,-34.8,-16.17,70.58,-2.02,-11.34,124.98,34.8,-13.27,114.43,22.09,-47.71,89.07,-11.0,-43.92,108.66,-33.5,-64.5,131.24,-32.0,-9.19,79.01,-11.85,-24.0,121.28,35.0,-12.12,105.51,1.0,-1.0,1.0,-1.0,1.0,-1.0,0.1788,-0.0236,-1.0,-0.2961,1.0,1.0,-1.0,-1.0,-1.0,1.0,-1.0,-1.0,0.019,0.026,0.013,0.006,0.013,0.0,0.006,0.033,0.065,0.013,0.006,0.013,0.006,0.0,0.006,0.006,0.123,0.0,0.1626,-0.9127,0.0046,-0.1289,-1.2855,0.6182,-0.5967,-1.3269,0.8299,-0.6151,-0.5921,-0.1457,-0.0153,-0.5001,0.7823,0.609,-0.5614,0.6243,0.1868,-0.3029,-0.1742,0.2857,0.2838,0.2405,-0.1917,-0.3043,0.3046,-0.033,0.3039,-0.2044,0.0384,-0.3074,0.2921,-0.004,0.2769,0.1056,0.5122,0.1986,-0.3384,-0.6129,0.0405,1.0,-1.0,1.0,-1.0,1.0,-1.0,-1.0,-0.6419,-1.0,-0.6847,1.0,1.0,-1.0,-1.0,-1.0,1.0,-1.0,-1.0,0.0,0.0,0.0,0.0,0.0,0.0,0.0,0.0,0.0,-0.3333,0.0,-0.3333,0.0,3
4.88,run,5.7,0.05,-18.4,-36.32,7.58,0.0,-0.05,0.0,0.481,12.13,-36.3,80.95,-5.98,-54.67,114.52,-34.54,-59.59,129.64,-34.37,-14.77,70.75,-2.81,-12.83,125.6,34.8,-12.13,113.73,23.59,-49.21,90.57,-12.5,-42.42,107.16,-32.0,-63.0,129.74,-30.5,-7.69,80.51,-13.35,-25.5,119.78,35.0,-13.62,104.01,1.0,-1.0,1.0,-1.0,1.0,-1.0,1.0,0.9305,-1.0,-0.7745,1.0,1.0,-1.0,-1.0,-1.0,1.0,-1.0,-1.0,0.019,0.026,0.013,0.006,0.013,0.0,0.006,0.033,0.065,0.013,0.006,0.013,0.006,0.0,0.006,0.006,0.123,0.0,0.1887,-0.9373,0.0061,-0.1135,-1.2594,0.6243,-0.5983,-1.353,0.8468,-0.6121,-0.5676,-0.1473,-0.0337,-0.5246,0.7977,0.609,-0.5384,0.6259,0.2285,-0.304,-0.1162,0.2575,0.2964,0.1913,-0.1399,-0.3107,0.2764,-0.0116,0.3047,-0.1488,-0.0421,-0.3072,0.2619,-0.0028,0.28,0.0797,0.4569,0.0781,-0.2827,-0.5997,0.0605,1.0,-1.0,1.0,-1.0,1.0,-1.0,0.1788,-0.0236,-1.0,-0.2961,1.0,1.0,-1.0,-1.0,-1.0,1.0,-1.0,-1.0,0.0,0.0,0.0,0.0,0.0,0.0,0.0,0.0,0.0,-0.3333,0.0,-0.3333,0.0,3
4.92,run,5.11,-0.76,-11.17,-20.27,6.09,0.0,-0.05,0.0,0.481,13.54,-37.62,81.83,-5.8,-53.35,114.08,-34.45,-61.0,130.34,-33.22,-13.8,71.54,-4.39,-14.24,125.86,34.8,-11.25,112.68,25.09,-50.71,92.07,-14.0,-40.92,105.66,-30.5,-61.5,128.24,-32.0,-6.19,82.01,-14.85,-27.0,118.28,35.0,-15.12,102.51,1.0,-1.0,1.0,-1.0,1.0,-1.0,1.0,1.0,-1.0,-1.0,1.0,1.0,-1.0,-1.0,-1.0,1.0,-1.0,-1.0,0.019,0.026,0.013,0.006,0.013,0.0,0.006,0.033,0.065,0.013,0.006,0.013,0.006,0.0,0.006,0.006,0.123,0.0,0.2132,-0.9633,0.0153,-0.1028,-1.2349,0.6259,-0.5983,-1.379,0.8621,-0.6044,-0.543,-0.1442,-0.0476,-0.5507,0.8084,0.609,-0.5185,0.6136,0.252,-0.3106,-0.0468,0.2205,0.2996,0.1397,-0.098,-0.3153,0.251,0.0207,0.3053,-0.0927,-0.0813,-0.3128,0.2237,-0.0019,0.2708,0.0097,0.3924,-0.0505,-0.3211,-0.6338,0.1323,1.0,-1.0,1.0,-1.0,1.0,-1.0,1.0,0.9305,-1.0,-0.7745,1.0,1.0,-1.0,-1.0,-1.0,1.0,-1.0,-1.0,0.0,0.0,0.0,0.0,0.0,0.0,0.0,0.0,0.0,-0.3333,0.0,-0.3333,0.0,3
4.96,run,5.16,-0.82,2.15,-0.45,4.67,0.0,-0.05,0.0,0.481,14.85,-39.02,83.06,-5.8,-51.86,113.2,-34.19,-61.96,130.87,-32.52,-12.04,72.51,-5.8,-15.47,125.42,34.8,-10.72,111.27,26.59,-52.21,93.57,-15.5,-39.42,104.16,-29.0,-60.0,126.74,-33.5,-4.69,83.51,-16.35,-28.5,116.78,35.0,-16.62,101.01,1.0,-1.0,1.0,-1.0,1.0,-1.0,1.0,1.0,-1.0,-1.0,0.8559,1.0,-1.0,-1.0,-1.0,1.0,-1.0,-1.0,0.013,0.026,0.013,0.019,0.013,0.006,0.019,0.019,0.045,0.013,0.013,0.019,0.019,0.0,0.006,0.0,0.033,0.0,0.2378,-0.9863,0.0307,-0.0997,-1.2118,0.6182,-0.5967,-1.4036,0.8744,-0.5844,-0.5262,-0.1304,-0.0752,-0.5752,0.813,0.609,-0.5031,0.5952,0.2685,-0.3038,0.0248,0.1659,0.296,0.069,-0.0628,-0.3128,0.2218,0.0893,0.2771,-0.0131,-0.1605,-0.3111,0.1738,-0.0014,0.2471,-0.0623,0.3416,-0.1219,-0.195,-0.3538,0.1062,1.0,-1.0,1.0,-1.0,1.0,-1.0,1.0,1.0,-1.0,-1.0,1.0,1.0,-1.0,-1.0,-1.0,1.0,-1.0,-1.0,0.0,0.0,0.0,0.0,0.0,0.0,0.0,0.0,0.0,-0.3333,0.0,-0.3333,0.0,3
5.0,run,5.16,-0.52,0.83,7.03,1.04,0.0,-0.05,0.0,0.481,16.26,-40.34,84.38,-5.8,-50.45,112.15,-32.87,-62.67,131.04,-31.82,-10.81,73.56,-7.21,-16.79,124.72,34.8,-10.72,110.13,28.09,-53.71,95.07,-17.0,-37.92,102.66,-27.5,-58.5,125.24,-35.0,-6.19,85.01,-17.85,-30.0,115.28,35.0,-18.12,99.51,1.0,-1.0,1.0,-1.0,0.7581,-1.0,1.0,1.0,-1.0,-1.0,-0.951,1.0,-1.0,-1.0,-1.0,1.0,-0.0741,-1.0,0.013,0.026,0.013,0.019,0.013,0.006,0.019,0.019,0.045,0.013,0.013,0.019,0.019,0.0,0.006,0.0,0.033,0.0,0.2608,-1.0109,0.0522,-0.0997,-1.1858,0.6029,-0.5921,-1.4205,0.8836,-0.5722,-0.4955,-0.1135,-0.0997,-0.5967,0.8053,0.609,-0.4939,0.5706,0.2742,-0.3046,0.0979,0.1161,0.305,-0.0092,-0.0267,-0.2822,0.1897,0.1085,0.309,0.0541,-0.2044,-0.2983,0.0929,-0.0009,0.2075,-0.1356,0.3455,-0.1265,0.0376,-0.0078,0.0814,1.0,-1.0,1.0,-1.0,1.0,-1.0,1.0,1.0,-1.0,-1.0,0.8559,1.0,-1.0,-1.0,-1.0,1.0,-1.0,-1.0,0.0,0.0,0.0,0.0,0.0,0.0,0.0,0.0,0.0,-0.3333,0.0,-0.3333,0.0,3
5.04,run,4.81,-0.34,-10.03,3.76,-1.23,0.0,-0.048,0.0,0.481,17.75,-41.66,85.78,-7.03,-49.04,110.83,-31.55,-63.19,131.13,-31.38,-9.58,74.97,-8.61,-18.19,123.66,34.8,-10.72,108.72,29.59,-55.21,96.57,-18.5,-39.42,101.16,-26.0,-57.0,123.74,-35.0,-7.69,86.51,-19.35,-31.5,113.78,35.0,-16.62,98.01,1.0,-1.0,1.0,-1.0,-1.0,-1.0,1.0,1.0,-1.0,-1.0,-1.0,1.0,-1.0,-1.0,-1.0,1.0,0.3778,-1.0,0.013,0.026,0.013,0.019,0.013,0.006,0.019,0.019,0.045,0.013,0.013,0.019,0.019,0.0,0.006,0.0,0.033,0.0,0.2853,-1.0339,0.0752,-0.0997,-1.1612,0.5844,-0.5691,-1.4327,0.8866,-0.5599,-0.474,-0.0951,-0.1243,-0.6197,0.7931,0.609,-0.4939,0.5507,0.284,-0.2995,0.1548,0.0813,0.3055,-0.0755,0.0676,-0.2436,0.1443,0.122,0.2968,0.1069,-0.2351,-0.2951,0.019,-0.0007,0.1453,-0.1697,0.3458,-0.1009,0.0145,0.1228,0.0182,1.0,-1.0,1.0,-1.0,0.7581,-1.0,1.0,1.0,-1.0,-1.0,-0.951,1.0,-1.0,-1.0,-1.0,1.0,-0.0741,-1.0,0.0,0.0,0.0,0.0,0.0,0.0,0.0,0.0,0.0,-0.32,0.0,-0.32,0.0,3
5.08,run,4.47,0.18,-13.1,14.72,2.38,0.0,-0.046,0.0,0.481,19.16,-43.07,87.28,-8.35,-47.64,109.42,-30.23,-63.37,131.04,-31.38,-8.61,76.29,-10.02,-19.6,122.26,34.8,-11.16,107.31,31.09,-56.71,98.07,-20.0,-37.92,99.66,-24.5,-55.5,122.24,-35.0,-9.19,88.01,-20.85,-33.0,112.28,35.0,-18.12,96.51,1.0,-1.0,1.0,-1.0,0.1155,-1.0,1.0,1.0,-1.0,-1.0,-1.0,1.0,-1.0,-0.9522,-1.0,1.0,-0.6312,-1.0,0.013,0.033,0.013,0.019,0.006,0.013,0.013,0.0,0.0,0.013,0.045,0.045,0.026,0.006,0.019,0.006,0.0,0.006,0.3114,-1.0569,0.0997,-0.1212,-1.1367,0.5614,-0.5461,-1.4419,0.8882,-0.5522,-0.4525,-0.0706,-0.1488,-0.6443,0.7747,0.609,-0.4939,0.5262,0.2966,-0.296,0.2004,-0.0236,0.3059,-0.1391,0.1336,-0.205,0.1068,0.1141,0.2883,0.1669,-0.2566,-0.2986,-0.0557,-0.0005,0.1017,-0.2108,0.3152,-0.0852,-0.1751,0.0656,-0.0215,1.0,-1.0,1.0,-1.0,-1.0,-1.0,1.0,1.0,-1.0,-1.0,-1.0,1.0,-1.0,-1.0,-1.0,1.0,0.3778,-1.0,0.0,0.0,0.0,0.0,0.0,0.0,0.0,0.0,0.0,-0.3067,0.0,-0.3067,0.0,3
