t_s,phase,roll_deg,pitch_deg,gyro_x_dps,gyro_y_dps,gyro_z_dps,height_ref_mm,vx_ref_mps,vy_ref_mps,max_cur_a,q0_deg,q1_deg,q2_deg,q3_deg,q4_deg,q5_deg,q6_deg,q7_deg,q8_deg,q9_deg,q10_deg,q11_deg,q12_deg,q13_deg,q14_deg,q15_deg,q16_deg,q17_deg,cmd0_deg,cmd1_deg,cmd2_deg,cmd3_deg,cmd4_deg,cmd5_deg,cmd6_deg,cmd7_deg,cmd8_deg,cmd9_deg,cmd10_deg,cmd11_deg,cmd12_deg,cmd13_deg,cmd14_deg,cmd15_deg,cmd16_deg,cmd17_deg,act0,act1,act2,act3,act4,act5,act6,act7,act8,act9,act10,act11,act12,act13,act14,act15,act16,act17,cur0_a,cur1_a,cur2_a,cur3_a,cur4_a,cur5_a,cur6_a,cur7_a,cur8_a,cur9_a,cur10_a,cur11_a,cur12_a,cur13_a,cur14_a,cur15_a,cur16_a,cur17_a,obs0,obs1,obs2,obs3,obs4,obs5,obs6,obs7,obs8,obs9,obs10,obs11,obs12,obs13,obs14,obs15,obs16,obs17,obs18,obs19,obs20,obs21,obs22,obs23,obs24,obs25,obs26,obs27,obs28,obs29,obs30,obs31,obs32,obs33,obs34,obs35,obs36,obs37,obs38,obs39,obs40,obs41,obs42,obs43,obs44,obs45,obs46,obs47,obs48,obs49,obs50,obs51,obs52,obs53,obs54,obs55,obs56,obs57,obs58,obs59,obs60,obs61,obs62,obs63,obs64,obs65,obs66,obs67,obs68,obs69,obs70,obs71,rot60_k
0.0,run,2.77,-1.43,0.33,1.02,1.38,0.0,0.0,0.0,0.039,5.71,16.7,79.37,-6.42,13.36,82.35,5.98,18.63,80.24,-5.8,13.45,82.62,6.15,17.67,78.66,-6.06,14.94,83.41,4.39,15.46,77.87,-7.92,12.39,84.21,7.48,17.13,81.57,-4.39,12.47,84.47,4.65,16.43,77.25,-7.56,13.44,85.0,-1.0,-1.0,-0.2434,-1.0,-1.0,1.0,1.0,-1.0,1.0,1.0,-1.0,1.0,-0.2311,-1.0,-0.6472,-1.0,-1.0,1.0,0.0,0.0,0.006,0.006,0.0,0.039,0.006,0.013,0.0,0.006,0.0,0.033,0.013,0.0,0.013,0.019,0.0,0.006,-0.0031,0.0,0.0,0.0,-0.0077,-0.0046,0.0,0.0,0.0,0.0015,-0.0092,-0.0061,0.0,-0.0046,-0.0015,0.0,0.0,-0.0015,-0.0064,0.0,0.0,0.0,-0.0188,-0.0113,0.0,0.0,0.0,0.0038,-0.0225,-0.015,0.0,-0.0113,-0.0032,0.0,0.0,-0.0032,0.0,0.0,-0.0486,-0.0026,0.0632,0.0,0.0,0.0,0.0,0.0,0.0,0.0,0.0,0.0,0.0,0.0,0.0,0.0,0.0,0.0,0.0,0.0,0.0,0.0,0.0,0.0,0.0,0.0,0.0,0.0,0.0,0.0,0.0,0.0,0.0,0.0,0
0.04,run,2.7,-1.51,0.01,-1.56,0.09,0.0,0.0,0.0,0.039,5.1,16.17,79.37,-6.77,12.74,82.53,5.98,18.11,80.6,-5.27,12.83,82.88,5.54,17.14,78.22,-6.68,14.68,83.76,2.89,16.96,79.37,-9.42,10.89,85.71,5.98,15.63,80.07,-2.89,10.97,85.97,3.15,16.05,78.75,-9.06,11.94,86.5,-1.0,1.0,1.0,-1.0,-1.0,1.0,-1.0,-1.0,-1.0,1.0,-1.0,1.0,-1.0,0.7463,1.0,-1.0,-1.0,1.0,0.0,0.0,0.006,0.006,0.0,0.039,0.006,0.013,0.0,0.006,0.0,0.033,0.013,0.0,0.013,0.019,0.0,0.006,-0.0031,-0.0046,0.0,0.0,-0.0092,-0.0061,0.0,0.0,0.0031,0.0015,-0.0092,-0.0061,0.0,-0.0046,-0.0015,0.0,0.0,-0.0015,-0.0045,-0.0075,0.0,0.0,-0.0157,-0.0104,0.0,0.0,0.005,0.0026,-0.0158,-0.0105,0.0,-0.0079,-0.0022,0.0,0.0,-0.0022,0.0016,0.0093,0.0057,0.0178,0.024,-1.0,-1.0,-0.2434,-1.0,-1.0,1.0,1.0,-1.0,1.0,1.0,-1.0,1.0,-0.2311,-1.0,-0.6472,-1.0,-1.0,1.0,0.0,0.0,0.0,0.0,0.0,0.0,0.0,0.0,0.0,0.0,0.0,0.0,0.0,0
0.08,run,2.62,-1.53,-1.82,-1.94,6.45,0.0,0.0,0.0,0.039,4.39,15.64,78.84,-6.94,12.22,83.14,6.77,17.58,81.12,-4.57,12.22,83.58,4.92,16.44,77.52,-7.38,14.06,84.38,3.66,15.46,80.87,-10.92,9.39,87.21,4.48,17.13,81.57,-1.39,9.47,87.47,1.65,17.55,80.25,-10.56,10.44,88.0,0.1046,0.5338,0.4587,-1.0,-1.0,0.9429,-1.0,1.0,1.0,1.0,-1.0,1.0,-1.0,1.0,1.0,-1.0,-1.0,1.0,0.0,0.0,0.006,0.006,0.0,0.039,0.006,0.013,0.0,0.006,0.0,0.033,0.013,0.0,0.013,0.019,0.0,0.006,-0.0138,-0.0138,0.0,-0.0061,-0.0199,-0.0031,0.0,-0.0092,0.0092,0.0107,-0.0199,-0.0015,-0.0107,-0.0138,-0.0092,-0.0107,-0.0046,0.0046,-0.0311,-0.0293,0.0,-0.016,-0.039,0.0007,0.0,-0.024,0.0195,0.0258,-0.0391,0.0046,-0.028,-0.0295,-0.0216,-0.028,-0.012,0.0144,-0.0039,0.0025,0.0001,-0.0272,0.0016,-1.0,1.0,1.0,-1.0,-1.0,1.0,-1.0,-1.0,-1.0,1.0,-1.0,1.0,-1.0,0.7463,1.0,-1.0,-1.0,1.0,0.0,0.0,0.0,0.0,0.0,0.0,0.0,0.0,0.0,0.0,0.0,0.0,0.0,0
0.12,run,2.79,-1.66,3.63,-3.77,-0.82,0.0,0.0,0.0,0.078,3.87,15.56,78.57,-7.82,11.34,84.11,7.03,17.14,81.39,-3.87,11.51,84.46,4.13,16.26,77.43,-8.17,13.36,85.08,2.16,16.96,79.37,-12.42,7.89,88.71,2.98,18.63,83.07,0.11,7.97,88.97,3.15,17.92,78.75,-12.06,8.94,89.5,-1.0,1.0,0.1684,-1.0,-1.0,1.0,-1.0,0.9136,1.0,1.0,-1.0,1.0,0.6101,0.7805,-1.0,-1.0,-1.0,1.0,0.0,0.0,0.0,0.013,0.0,0.078,0.0,0.019,0.006,0.019,0.0,0.065,0.013,0.0,0.0,0.013,0.019,0.019,-0.0261,-0.023,-0.0092,-0.0092,-0.0291,0.0077,0.0138,-0.0184,0.0184,0.023,-0.0307,0.0107,-0.0215,-0.0261,-0.0215,-0.023,-0.0153,0.0153,-0.0676,-0.0549,-0.0344,-0.0227,-0.0617,0.0406,0.0516,-0.0512,0.048,0.0639,-0.0674,0.0491,-0.0597,-0.0665,-0.0609,-0.0654,-0.0485,0.0502,-0.0109,0.0001,-0.0318,-0.0339,0.1126,0.1046,0.5338,0.4587,-1.0,-1.0,0.9429,-1.0,1.0,1.0,1.0,-1.0,1.0,-1.0,1.0,1.0,-1.0,-1.0,1.0,0.0,0.0,0.0,0.0,0.0,0.0,0.0,0.0,0.0,0.0,0.0,0.0,0.0,0
0.16,run,2.92,-1.88,3.98,-6.61,-9.75,0.0,0.0,0.0,0.078,3.16,15.56,78.57,-8.96,10.28,85.25,7.03,16.96,81.65,-2.99,10.28,85.61,3.25,16.0,77.52,-9.32,12.48,86.13,0.66,18.46,80.87,-13.92,6.39,90.21,1.48,20.13,81.57,1.61,6.47,90.47,4.65,19.42,80.25,-13.56,7.44,91.0,-1.0,1.0,0.2416,-1.0,-1.0,1.0,-1.0,0.8678,-0.1431,1.0,-1.0,1.0,0.4499,1.0,0.688,-1.0,-1.0,1.0,0.0,0.0,0.0,0.013,0.0,0.078,0.0,0.019,0.006,0.019,0.0,0.065,0.013,0.0,0.0,0.013,0.019,0.019,-0.0353,-0.0245,-0.0138,-0.0245,-0.0445,0.0245,0.0184,-0.0261,0.023,0.0353,-0.043,0.0261,-0.0353,-0.0291,-0.023,-0.0368,-0.0276,0.0276,-0.0818,-0.0442,-0.0413,-0.0733,-0.1006,0.0916,0.0533,-0.0645,0.0509,0.0907,-0.0932,0.0918,-0.0935,-0.058,-0.0484,-0.0975,-0.0799,0.0811,0.0032,-0.0106,0.0634,-0.0659,-0.0143,-1.0,1.0,0.1684,-1.0,-1.0,1.0,-1.0,0.9136,1.0,1.0,-1.0,1.0,0.6101,0.7805,-1.0,-1.0,-1.0,1.0,0.0,0.0,0.0,0.0,0.0,0.0,0.0,0.0,0.0,0.0,0.0,0.0,0.0,0
0.2,run,3.0,-2.03,2.73,-4.13,-4.13,0.0,0.0,0.0,0.078,2.29,15.56,78.75,-10.11,9.05,86.48,7.03,17.05,82.18,-1.58,9.05,86.92,2.72,16.17,78.22,-10.55,11.25,87.36,-0.84,16.96,82.37,-15.42,4.89,91.71,-0.02,21.63,83.07,3.11,4.97,91.97,6.15,20.92,78.75,-15.06,5.94,92.5,-1.0,0.2432,1.0,-1.0,-1.0,1.0,-1.0,1.0,0.6863,1.0,-1.0,1.0,0.3476,1.0,0.0079,-1.0,-1.0,1.0,0.0,0.0,0.0,0.013,0.0,0.078,0.0,0.019,0.006,0.019,0.0,0.065,0.013,0.0,0.0,0.013,0.019,0.019,-0.0476,-0.0245,-0.0138,-0.0445,-0.0629,0.0445,0.0184,-0.0291,0.0276,0.0506,-0.0644,0.046,-0.0506,-0.0337,-0.0215,-0.0568,-0.043,0.046,-0.1033,-0.0309,-0.0289,-0.1261,-0.1394,0.1389,0.0373,-0.0567,0.0529,0.121,-0.1457,0.139,-0.123,-0.0579,-0.0281,-0.143,-0.1134,0.1258,0.0152,-0.0304,0.0694,-0.1153,-0.1701,-1.0,1.0,0.2416,-1.0,-1.0,1.0,-1.0,0.8678,-0.1431,1.0,-1.0,1.0,0.4499,1.0,0.688,-1.0,-1.0,1.0,0.0,0.0,0.0,0.0,0.0,0.0,0.0,0.0,0.0,0.0,0.0,0.0,0.0,0
0.24,run,3.12,-2.21,2.8,-4.77,-4.01,0.0,0.0,0.0,0.13,1.23,15.56,79.54,-11.34,7.65,87.89,6.06,17.75,82.62,-0.44,7.73,88.42,2.55,16.79,78.75,-12.04,10.02,88.77,-2.34,15.46,80.87,-16.92,3.39,93.21,-1.52,23.13,84.57,4.61,3.47,93.47,6.54,22.42,77.25,-16.56,4.44,94.0,-1.0,0.0797,0.1009,-1.0,-1.0,1.0,-1.0,1.0,0.7473,1.0,-1.0,1.0,0.1867,1.0,-1.0,-1.0,-1.0,1.0,0.006,0.0,0.0,0.019,0.013,0.019,0.0,0.0,0.0,0.013,0.006,0.006,0.0,0.13,0.013,0.0,0.013,0.0,-0.0629,-0.0245,-0.0107,-0.0644,-0.0844,0.066,0.0184,-0.0276,0.0368,0.0752,-0.0859,0.069,-0.0598,-0.0307,-0.0092,-0.0782,-0.0644,0.0675,-0.1297,-0.0216,-0.0088,-0.1628,-0.1779,0.1775,0.0261,-0.0339,0.0714,0.1765,-0.1823,0.1834,-0.1205,-0.029,0.0262,-0.1804,-0.1597,0.1684,0.022,-0.0428,0.0477,-0.072,-0.0722,-1.0,0.2432,1.0,-1.0,-1.0,1.0,-1.0,1.0,0.6863,1.0,-1.0,1.0,0.3476,1.0,0.0079,-1.0,-1.0,1.0,0.0,0.0,0.0,0.0,0.0,0.0,0.0,0.0,0.0,0.0,0.0,0.0,0.0,0
0.28,run,2.99,-2.17,-0.11,0.04,0.32,0.0,0.0,0.0,0.13,-2.55,15.29,80.86,-16.17,2.81,92.64,-1.23,23.2,84.46,4.31,3.08,93.25,6.59,21.18,76.9,-16.52,5.01,93.96,-3.84,13.96,82.37,-18.42,1.89,94.71,-3.02,21.63,83.07,6.11,1.97,94.97,5.04,20.92,75.75,-18.06,2.94,95.5,-1.0,0.2742,0.8216,-1.0,-1.0,1.0,-1.0,0.5051,-0.5371,1.0,-1.0,1.0,-0.9914,0.6916,-0.492,-1.0,-1.0,1.0,0.0,0.006,0.0,0.019,0.006,0.019,0.006,0.006,0.0,0.013,0.0,0.006,0.006,0.084,0.006,0.0,0.013,0.0,-0.0813,-0.0245,0.0031,-0.0859,-0.1089,0.0905,0.0015,-0.0153,0.0445,0.0951,-0.1089,0.0951,-0.0629,-0.0199,0.0,-0.1043,-0.0859,0.092,-0.1584,-0.0151,0.0446,-0.1929,-0.2147,0.2144,-0.0437,0.0213,0.0782,0.1968,-0.2122,0.2242,-0.0956,0.0191,0.0522,-0.2221,-0.1907,0.208,0.032,-0.0588,0.0489,-0.0832,-0.07,-1.0,0.0797,0.1009,-1.0,-1.0,1.0,-1.0,1.0,0.7473,1.0,-1.0,1.0,0.1867,1.0,-1.0,-1.0,-1.0,1.0,0.0,0.0,0.0,0.0,0.0,0.0,0.0,0.0,0.0,0.0,0.0,0.0,0.0,0
0.32,run,2.99,-2.2,-0.56,-0.39,-0.49,0.0,0.0,0.0,0.13,-2.81,15.21,80.86,-16.17,2.81,92.64,-1.23,23.2,84.46,4.31,3.08,93.25,6.59,21.18,76.73,-16.52,5.01,93.96,-5.34,12.46,80.87,-19.92,0.39,93.21,-4.52,20.13,84.57,7.61,0.47,96.47,3.54,19.42,77.25,-19.56,1.44,97.0,-1.0,-0.8446,-0.4605,-1.0,-0.4227,-0.3222,-1.0,-0.0093,0.8362,1.0,-1.0,1.0,-1.0,-0.7453,1.0,-1.0,-1.0,0.7806,0.0,0.006,0.0,0.019,0.006,0.019,0.006,0.006,0.0,0.013,0.0,0.006,0.006,0.084,0.006,0.0,0.013,0.0,-0.1473,-0.0291,0.0261,-0.1703,-0.1933,0.1733,-0.1258,0.0798,0.0767,0.1779,-0.1902,0.1795,0.0077,0.0568,-0.0322,-0.1825,-0.1733,0.1825,-0.1584,-0.0151,0.0446,-0.1929,-0.2147,0.2144,-0.0437,0.0213,0.0782,0.1968,-0.2122,0.2242,-0.0956,0.0191,0.0522,-0.2221,-0.1907,0.208,0.0207,-0.0557,-0.0019,0.0007,0.0055,-1.0,0.2742,0.8216,-1.0,-1.0,1.0,-1.0,0.5051,-0.5371,1.0,-1.0,1.0,-0.9914,0.6916,-0.492,-1.0,-1.0,1.0,0.0,0.0,0.0,0.0,0.0,0.0,0.0,0.0,0.0,0.0,0.0,0.0,0.0,0
0.36,run,3.02,-2.3,0.58,-2.15,0.39,0.0,0.0,0.0,0.13,-3.08,14.85,80.86,-16.7,2.29,92.99,-1.67,22.85,84.46,4.66,2.64,93.78,6.24,21.18,76.46,-17.14,4.57,94.04,-6.84,10.96,82.37,-21.42,-1.11,94.71,-6.02,18.63,86.07,9.11,-1.03,97.97,2.04,17.92,78.75,-21.06,-0.06,98.5,-1.0,-0.0449,1.0,-1.0,-1.0,1.0,-1.0,-1.0,0.5968,1.0,-1.0,1.0,-1.0,-0.816,1.0,-1.0,-1.0,1.0,0.0,0.006,0.0,0.019,0.006,0.019,0.006,0.006,0.0,0.013,0.0,0.006,0.006,0.084,0.006,0.0,0.013,0.0,-0.1519,-0.0307,0.0261,-0.1703,-0.1933,0.1733,-0.1258,0.0798,0.0767,0.1779,-0.1902,0.1795,0.0077,0.0568,-0.0353,-0.1825,-0.1733,0.1825,-0.1305,-0.0171,0.0312,-0.135,-0.1503,0.1501,-0.0306,0.0149,0.0547,0.1378,-0.1485,0.1569,-0.0669,0.0134,0.0234,-0.1555,-0.1335,0.1456,0.0213,-0.0583,-0.0097,-0.0069,-0.0085,-1.0,-0.8446,-0.4605,-1.0,-0.4227,-0.3222,-1.0,-0.0093,0.8362,1.0,-1.0,1.0,-1.0,-0.7453,1.0,-1.0,-1.0,0.7806,0.0,0.0,0.0,0.0,0.0,0.0,0.0,0.0,0.0,0.0,0.0,0.0,0.0,0
0.4,run,2.86,-2.44,-3.5,-5.45,0.95,0.0,0.0,0.0,0.13,-3.96,14.15,81.12,-17.23,1.67,93.43,-2.37,22.24,84.46,5.36,1.85,94.39,5.62,20.39,76.46,-17.84,3.87,94.75,-8.34,9.46,80.87,-22.92,-2.61,93.21,-7.52,17.13,84.82,10.61,-2.53,99.47,0.54,16.42,80.25,-22.56,-1.56,97.0,-0.445,-1.0,-0.0357,-1.0,-1.0,0.1269,-1.0,-1.0,0.2331,1.0,-0.9368,1.0,-1.0,-0.6481,1.0,-1.0,-1.0,-0.2688,0.0,0.0,0.013,0.065,0.0,0.019,0.019,0.071,0.0,0.052,0.0,0.026,0.052,0.013,0.045,0.013,0.026,0.006,-0.1565,-0.0368,0.0261,-0.1795,-0.2025,0.1795,-0.1335,0.0736,0.0767,0.1841,-0.1979,0.1887,0.0015,0.0568,-0.0399,-0.1933,-0.181,0.1841,-0.1085,-0.0349,0.0218,-0.1288,-0.1395,0.1279,-0.05,-0.0124,0.0383,0.1193,-0.1325,0.1441,-0.0697,0.0094,-0.0007,-0.1488,-0.122,0.1076,0.0236,-0.0664,0.0101,-0.0375,0.0068,-1.0,-0.0449,1.0,-1.0,-1.0,1.0,-1.0,-1.0,0.5968,1.0,-1.0,1.0,-1.0,-0.816,1.0,-1.0,-1.0,1.0,0.0,0.0,0.0,0.0,0.0,0.0,0.0,0.0,0.0,0.0,0.0,0.0,0.0,0
0.44,run,2.82,-2.38,-1.76,-0.01,-5.2,0.0,0.0,0.0,0.13,-5.01,13.27,81.56,-18.11,0.62,94.04,-3.25,21.53,84.55,6.24,0.97,95.45,4.66,19.42,76.9,-18.9,2.99,95.89,-9.84,7.96,82.37,-24.42,-4.11,94.71,-9.02,15.63,86.32,12.11,-4.03,100.97,-0.96,14.92,81.75,-24.06,-3.06,95.5,-1.0,-0.9877,0.2368,-1.0,-1.0,1.0,-1.0,-0.0631,1.0,1.0,-1.0,1.0,-1.0,-0.2979,1.0,-1.0,-1.0,0.3397,0.0,0.0,0.013,0.065,0.0,0.019,0.019,0.071,0.0,0.052,0.0,0.026,0.052,0.013,0.045,0.013,0.026,0.006,-0.1718,-0.0491,0.0307,-0.1887,-0.2132,0.1871,-0.1457,0.0629,0.0767,0.1963,-0.2117,0.1994,-0.0092,0.043,-0.0399,-0.2056,-0.1933,0.1963,-0.1339,-0.0708,0.0327,-0.1249,-0.1382,0.1185,-0.0814,-0.0493,0.0268,0.1299,-0.145,0.1415,-0.0894,-0.0456,-0.0005,-0.1506,-0.1318,0.1217,0.0101,-0.0791,-0.061,-0.0951,0.0166,-0.445,-1.0,-0.0357,-1.0,-1.0,0.1269,-1.0,-1.0,0.2331,1.0,-0.9368,1.0,-1.0,-0.6481,1.0,-1.0,-1.0,-0.2688,0.0,0.0,0.0,0.0,0.0,0.0,0.0,0.0,0.0,0.0,0.0,0.0,0.0,0
0.48,run,2.89,-2.32,-0.4,0.34,-13.3,0.0,0.0,0.0,0.13,-6.33,12.13,81.74,-19.34,-0.7,94.39,-4.48,20.21,84.9,7.47,-0.26,96.68,3.43,18.11,77.7,-20.3,1.67,96.15,-11.34,9.46,83.87,-25.92,-5.61,96.21,-10.52,14.13,87.82,13.61,-5.53,102.47,-2.46,13.42,83.25,-25.56,-4.56,97.0,-0.9217,1.0,0.7625,-1.0,-1.0,1.0,-1.0,-1.0,1.0,1.0,-1.0,1.0,-1.0,-0.7455,1.0,-1.0,-1.0,1.0,0.0,0.0,0.013,0.065,0.0,0.019,0.019,0.071,0.0,0.052,0.0,0.026,0.052,0.013,0.045,0.013,0.026,0.006,-0.1902,-0.0644,0.0383,-0.204,-0.2316,0.1979,-0.1611,0.0506,0.0782,0.2117,-0.227,0.2178,-0.0261,0.0261,-0.0322,-0.224,-0.2086,0.2163,-0.1624,-0.1068,0.0515,-0.1447,-0.1654,0.123,-0.1142,-0.0803,0.0245,0.1481,-0.1587,0.1677,-0.1255,-0.0949,0.0283,-0.1741,-0.1495,0.1596,0.0065,-0.0736,-0.0308,-0.0002,-0.0908,-1.0,-0.9877,0.2368,-1.0,-1.0,1.0,-1.0,-0.0631,1.0,1.0,-1.0,1.0,-1.0,-0.2979,1.0,-1.0,-1.0,0.3397,0.0,0.0,0.0,0.0,0.0,0.0,0.0,0.0,0.0,0.0,0.0,0.0,0.0,0
0.52,run,3.8,-2.38,19.34,2.17,-9.14,0.0,0.0,0.0,0.136,-7.73,10.9,82.09,-20.83,-1.93,94.83,-5.8,18.81,85.52,8.7,-1.58,98.17,2.2,16.61,78.75,-21.71,0.35,96.59,-9.84,7.96,85.37,-27.42,-7.11,94.71,-12.02,12.63,89.32,15.11,-7.03,103.97,-3.96,11.92,84.75,-27.06,-6.06,95.92,-0.1445,0.0764,1.0,-1.0,-0.2924,0.0742,-1.0,-1.0,0.4128,1.0,-0.6382,1.0,-1.0,0.1822,1.0,-1.0,-1.0,0.3637,0.0,0.006,0.019,0.039,0.0,0.013,0.019,0.071,0.0,0.136,0.0,0.026,0.123,0.0,0.084,0.013,0.033,0.0,-0.2132,-0.0844,0.0414,-0.2255,-0.2546,0.204,-0.1825,0.0276,0.0844,0.2332,-0.2485,0.2393,-0.0476,0.0031,-0.0184,-0.2485,-0.2316,0.2209,-0.1998,-0.1494,0.0475,-0.1817,-0.202,0.1091,-0.1603,-0.1423,0.0401,0.1841,-0.1915,0.1978,-0.1683,-0.1526,0.0715,-0.2137,-0.1908,0.129,0.0121,-0.0686,-0.0069,0.0059,-0.232,-0.9217,1.0,0.7625,-1.0,-1.0,1.0,-1.0,-1.0,1.0,1.0,-1.0,1.0,-1.0,-0.7455,1.0,-1.0,-1.0,1.0,0.0,0.0,0.0,0.0,0.0,0.0,0.0,0.0,0.0,0.0,0.0,0.0,0.0,0
0.56,run,4.07,-2.33,5.85,1.25,-1.05,0.0,0.0,0.0,0.136,-9.32,9.4,82.79,-22.59,-3.69,95.27,-7.56,17.05,86.66,10.37,-3.43,100.11,0.44,14.77,80.42,-23.47,-1.41,96.77,-8.34,6.46,83.87,-28.92,-8.61,93.21,-13.52,11.13,90.82,16.61,-5.53,105.47,-5.46,13.42,86.25,-28.56,-7.56,94.42,0.8616,-1.0,-0.1544,-1.0,-1.0,0.0557,-1.0,-1.0,1.0,1.0,1.0,1.0,-1.0,1.0,1.0,-1.0,-1.0,-0.7701,0.0,0.006,0.019,0.039,0.0,0.013,0.019,0.071,0.0,0.136,0.0,0.026,0.123,0.0,0.084,0.013,0.033,0.0,-0.2378,-0.1058,0.0476,-0.2516,-0.2761,0.2117,-0.2056,0.0031,0.0951,0.2546,-0.2715,0.2654,-0.069,-0.023,0.0,-0.273,-0.2546,0.2286,-0.232,-0.1851,0.0563,-0.225,-0.2219,0.1051,-0.1986,-0.1917,0.0684,0.2094,-0.2204,0.2363,-0.1983,-0.2046,0.1191,-0.2417,-0.2199,0.119,0.0921,-0.0737,0.3376,0.0379,-0.1596,-0.1445,0.0764,1.0,-1.0,-0.2924,0.0742,-1.0,-1.0,0.4128,1.0,-0.6382,1.0,-1.0,0.1822,1.0,-1.0,-1.0,0.3637,0.0,0.0,0.0,0.0,0.0,0.0,0.0,0.0,0.0,0.0,0.0,0.0,0.0,0
0.6,run,4.64,-2.15,21.59,5.55,7.34,0.0,0.0,0.0,0.136,-10.02,8.61,83.32,-23.73,-4.75,95.01,-8.53,16.0,87.54,11.25,-4.48,101.16,-0.7,13.8,81.47,-24.52,-2.37,96.42,-6.84,7.96,85.37,-30.42,-10.11,94.71,-15.02,9.63,92.32,18.11,-4.03,103.97,-6.96,14.92,87.75,-30.06,-9.06,92.92,0.446,0.6165,0.7604,-1.0,-1.0,1.0,-1.0,0.4374,1.0,1.0,1.0,-0.7984,-1.0,1.0,0.8494,-0.9072,-1.0,-1.0,0.0,0.006,0.019,0.039,0.0,0.013,0.019,0.071,0.0,0.136,0.0,0.026,0.123,0.0,0.084,0.013,0.033,0.0,-0.2654,-0.1319,0.0598,-0.2823,-0.3068,0.2194,-0.2362,-0.0276,0.115,0.2838,-0.3037,0.2991,-0.0997,-0.0552,0.0291,-0.3037,-0.2853,0.2316,-0.2435,-0.2062,0.0755,-0.2477,-0.2455,0.0961,-0.2291,-0.2243,0.1065,0.2322,-0.2489,0.2646,-0.229,-0.2379,0.169,-0.2593,-0.2441,0.0923,0.1155,-0.0691,0.1021,0.0218,-0.0183,0.8616,-1.0,-0.1544,-1.0,-1.0,0.0557,-1.0,-1.0,1.0,1.0,1.0,1.0,-1.0,1.0,1.0,-1.0,-1.0,-0.7701,0.0,0.0,0.0,0.0,0.0,0.0,0.0,0.0,0.0,0.0,0.0,0.0,0.0,0
0.64,run,5.22,-2.82,14.89,-16.15,14.0,0.0,0.0,0.0,0.136,-10.55,7.56,83.94,-25.22,-6.15,94.66,-10.02,14.68,88.86,12.74,-5.62,102.48,-2.2,12.83,82.88,-26.02,-3.87,95.71,-5.34,6.46,86.87,-31.92,-11.61,96.21,-16.52,8.13,93.82,19.61,-2.53,102.47,-8.46,16.42,86.25,-28.56,-10.56,91.42,1.0,-1.0,1.0,-1.0,-1.0,1.0,-1.0,-1.0,1.0,1.0,1.0,0.0975,-1.0,1.0,0.0196,1.0,-1.0,-1.0,0.006,0.0,0.013,0.033,0.0,0.006,0.019,0.117,0.0,0.136,0.0,0.019,0.052,0.0,0.058,0.013,0.033,0.019,-0.2777,-0.1457,0.069,-0.3022,-0.3252,0.2148,-0.2531,-0.046,0.1304,0.2991,-0.3221,0.3175,-0.1197,-0.0721,0.0476,-0.3221,-0.3022,0.2255,-0.234,-0.2159,0.1005,-0.2767,-0.2672,0.0434,-0.2478,-0.2524,0.154,0.2421,-0.2696,0.2806,-0.2636,-0.254,0.2137,-0.2769,-0.2583,0.0328,0.1655,-0.0535,0.3768,0.0969,0.1281,0.446,0.6165,0.7604,-1.0,-1.0,1.0,-1.0,0.4374,1.0,1.0,1.0,-0.7984,-1.0,1.0,0.8494,-0.9072,-1.0,-1.0,0.0,0.0,0.0,0.0,0.0,0.0,0.0,0.0,0.0,0.0,0.0,0.0,0.0,0
0.68,run,6.11,-3.45,24.51,-18.28,18.75,0.0,0.0,0.0,0.136,-10.99,6.86,84.64,-26.54,-7.65,94.66,-11.43,13.45,90.26,14.33,-6.5,103.62,-3.69,12.13,84.2,-27.33,-5.27,94.75,-3.84,4.96,88.37,-33.42,-13.11,97.71,-18.02,9.63,95.32,21.11,-1.03,100.97,-9.96,17.92,84.75,-27.06,-12.06,89.92,1.0,-1.0,0.7911,-1.0,-1.0,1.0,-1.0,1.0,1.0,1.0,1.0,0.1432,-0.2877,1.0,0.23,1.0,-1.0,-1.0,0.006,0.0,0.013,0.033,0.0,0.006,0.019,0.117,0.0,0.136,0.0,0.019,0.052,0.0,0.058,0.013,0.033,0.019,-0.2869,-0.1641,0.0798,-0.3283,-0.3497,0.2086,-0.2792,-0.069,0.1534,0.3252,-0.3421,0.3405,-0.1457,-0.089,0.0721,-0.3482,-0.3283,0.2132,-0.1984,-0.2202,0.1106,-0.2915,-0.2791,0.0074,-0.2713,-0.263,0.1941,0.2673,-0.2635,0.2827,-0.2824,-0.2411,0.2417,-0.2917,-0.2786,-0.023,0.2153,-0.1118,0.2599,-0.2818,0.2444,1.0,-1.0,1.0,-1.0,-1.0,1.0,-1.0,-1.0,1.0,1.0,1.0,0.0975,-1.0,1.0,0.0196,1.0,-1.0,-1.0,0.0,0.0,0.0,0.0,0.0,0.0,0.0,0.0,0.0,0.0,0.0,0.0,0.0,0
0.72,run,7.08,-3.85,26.68,-12.49,8.97,0.0,0.0,0.0,0.136,-10.99,6.42,85.52,-28.04,-9.23,94.66,-12.74,12.04,91.76,15.82,-7.03,104.41,-5.19,11.69,85.17,-28.3,-6.68,93.52,-2.34,3.46,89.87,-34.92,-14.61,96.21,-19.52,11.13,96.82,22.61,0.47,102.47,-8.46,19.42,83.25,-25.56,-13.56,88.42,0.9756,-1.0,1.0,-1.0,-1.0,0.1746,-1.0,1.0,1.0,1.0,1.0,0.6104,0.4401,1.0,-0.9772,1.0,-1.0,-1.0,0.006,0.0,0.013,0.033,0.0,0.006,0.019,0.117,0.0,0.136,0.0,0.019,0.052,0.0,0.058,0.013,0.033,0.019,-0.2945,-0.1764,0.092,-0.3513,-0.3758,0.2086,-0.3037,-0.0905,0.1779,0.3528,-0.3574,0.3605,-0.1718,-0.1012,0.0951,-0.3712,-0.3528,0.1963,-0.1676,-0.2001,0.1234,-0.2903,-0.2931,0.0052,-0.2819,-0.2646,0.2279,0.2906,-0.242,0.2727,-0.2954,-0.2148,0.2554,-0.2904,-0.287,-0.0794,0.2936,-0.1667,0.4278,-0.319,0.3273,1.0,-1.0,0.7911,-1.0,-1.0,1.0,-1.0,1.0,1.0,1.0,1.0,0.1432,-0.2877,1.0,0.23,1.0,-1.0,-1.0,0.0,0.0,0.0,0.0,0.0,0.0,0.0,0.0,0.0,0.0,0.0,0.0,0.0,0
0.76,run,8.23,-4.25,26.92,-11.85,3.23,0.0,0.0,0.0,0.136,-10.63,5.62,86.48,-29.53,-10.63,95.27,-14.15,10.99,93.16,17.31,-7.38,104.77,-6.59,11.69,85.87,-29.0,-8.17,92.11,-3.84,1.96,91.37,-35.0,-16.11,97.71,-21.02,12.63,98.32,24.11,1.97,100.97,-6.96,20.92,81.75,-24.06,-15.06,86.92,-1.0,-1.0,0.8581,-1.0,-1.0,0.4862,-0.6756,1.0,1.0,1.0,1.0,0.2801,0.5657,1.0,-0.5105,1.0,-0.8924,-1.0,0.033,0.0,0.033,0.033,0.0,0.052,0.019,0.117,0.0,0.058,0.026,0.013,0.026,0.091,0.039,0.006,0.033,0.013,-0.2945,-0.1841,0.1074,-0.3774,-0.4034,0.2086,-0.3267,-0.115,0.204,0.3789,-0.3666,0.3743,-0.1979,-0.1089,0.112,-0.3881,-0.3774,0.1749,-0.1173,-0.1688,0.1439,-0.3009,-0.3087,0.0036,-0.2836,-0.2772,0.2572,0.3011,-0.2039,0.2426,-0.3045,-0.1791,0.242,-0.2665,-0.2929,-0.136,0.3782,-0.202,0.4657,-0.218,0.1566,0.9756,-1.0,1.0,-1.0,-1.0,0.1746,-1.0,1.0,1.0,1.0,1.0,0.6104,0.4401,1.0,-0.9772,1.0,-1.0,-1.0,0.0,0.0,0.0,0.0,0.0,0.0,0.0,0.0,0.0,0.0,0.0,0.0,0.0,0
0.8,run,8.1,-3.88,-4.71,6.91,2.35,0.0,0.0,0.0,0.136,-9.58,4.22,88.15,-31.64,-12.66,95.98,-16.35,9.84,95.19,19.6,-7.29,104.77,-7.82,11.69,86.31,-29.53,-10.2,90.18,-5.34,0.46,92.87,-35.0,-17.61,96.21,-22.52,11.13,99.82,25.61,3.47,102.47,-8.46,22.42,83.25,-22.56,-13.56,85.42,-0.2224,-1.0,1.0,-1.0,-1.0,-0.5906,-1.0,0.4536,0.7693,1.0,1.0,1.0,-1.0,1.0,0.9778,1.0,0.5327,-1.0,0.033,0.0,0.033,0.033,0.0,0.052,0.019,0.117,0.0,0.058,0.026,0.013,0.026,0.091,0.039,0.006,0.033,0.013,-0.2884,-0.1979,0.1243,-0.4034,-0.428,0.2194,-0.3513,-0.1335,0.2286,0.405,-0.3728,0.3804,-0.2224,-0.1089,0.1243,-0.4004,-0.4034,0.1503,-0.0591,-0.17,0.164,-0.3085,-0.3082,0.0428,-0.2906,-0.2631,0.2722,0.3086,-0.1657,0.1928,-0.3052,-0.1253,0.2155,-0.2326,-0.3029,-0.1873,0.4785,-0.2367,0.4699,-0.2068,0.0564,-1.0,-1.0,0.8581,-1.0,-1.0,0.4862,-0.6756,1.0,1.0,1.0,1.0,0.2801,0.5657,1.0,-0.5105,1.0,-0.8924,-1.0,0.0,0.0,0.0,0.0,0.0,0.0,0.0,0.0,0.0,0.0,0.0,0.0,0.0,0
0.84,run,8.82,-4.4,8.63,-8.08,1.63,0.0,0.0,0.0,0.136,-8.35,3.16,89.21,-32.7,-14.06,96.59,-17.67,9.49,96.33,21.01,-7.03,104.15,-8.26,12.3,86.31,-29.09,-11.6,88.86,-6.84,-1.04,94.37,-35.0,-16.11,97.71,-24.02,12.63,101.32,24.11,4.97,100.97,-9.96,23.92,82.87,-21.06,-12.06,83.92,-1.0,-1.0,1.0,-1.0,1.0,1.0,-1.0,1.0,1.0,0.656,1.0,-1.0,-1.0,1.0,0.2103,1.0,1.0,-1.0,0.033,0.0,0.033,0.033,0.0,0.052,0.019,0.117,0.0,0.058,0.026,0.013,0.026,0.091,0.039,0.006,0.033,0.013,-0.27,-0.2224,0.1534,-0.4403,-0.4633,0.2316,-0.3896,-0.1534,0.2638,0.4449,-0.3712,0.3804,-0.2439,-0.1089,0.1319,-0.4096,-0.4387,0.1166,0.0056,-0.1817,0.1893,-0.31,-0.3058,0.0613,-0.3014,-0.2351,0.2806,0.3179,-0.1121,0.135,-0.2685,-0.0877,0.1704,-0.1863,-0.3021,-0.2173,0.4671,-0.2047,-0.0822,0.1206,0.0409,-0.2224,-1.0,1.0,-1.0,-1.0,-0.5906,-1.0,0.4536,0.7693,1.0,1.0,1.0,-1.0,1.0,0.9778,1.0,0.5327,-1.0,0.0,0.0,0.0,0.0,0.0,0.0,0.0,0.0,0.0,0.0,0.0,0.0,0.0,0
0.88,run,9.22,-4.62,10.11,-4.61,4.25,0.0,0.0,0.0,0.175,-7.12,2.02,90.44,-33.49,-15.29,96.77,-19.07,9.49,97.56,22.15,-5.98,103.36,-8.88,13.62,85.61,-28.39,-12.74,87.71,-5.34,-2.54,95.87,-35.0,-17.61,96.21,-25.52,11.13,102.82,22.61,6.47,99.47,-11.46,25.42,84.37,-19.56,-10.56,82.42,-0.1092,-1.0,1.0,-1.0,-0.9853,-1.0,-0.9654,-0.873,1.0,-0.2672,1.0,-1.0,-1.0,1.0,0.2613,1.0,1.0,-1.0,0.013,0.0,0.033,0.019,0.0,0.033,0.026,0.013,0.0,0.078,0.111,0.0,0.039,0.175,0.0,0.013,0.019,0.013,-0.2485,-0.2408,0.1718,-0.4587,-0.4878,0.2424,-0.4126,-0.1595,0.2838,0.4694,-0.3666,0.3697,-0.2516,-0.0982,0.1319,-0.4019,-0.4633,0.0936,0.0834,-0.1952,0.2006,-0.2851,-0.3048,0.0826,-0.296,-0.1873,0.2702,0.3133,-0.0614,0.0548,-0.2163,-0.0217,0.1193,-0.1021,-0.3023,-0.2372,0.5299,-0.2498,0.1506,-0.141,0.0284,-1.0,-1.0,1.0,-1.0,1.0,1.0,-1.0,1.0,1.0,0.656,1.0,-1.0,-1.0,1.0,0.2103,1.0,1.0,-1.0,0.0,0.0,0.0,0.0,0.0,0.0,0.0,0.0,0.0,0.0,0.0,0.0,0.0,0
0.92,run,9.62,-4.27,7.21,7.73,5.32,0.0,0.0,0.0,0.175,-6.15,0.44,92.11,-34.01,-16.61,96.77,-20.83,9.49,99.14,23.12,-4.39,101.95,-9.58,15.03,84.73,-27.42,-13.71,85.96,-3.84,-4.04,97.37,-35.0,-19.11,94.71,-24.02,12.63,104.32,21.11,7.97,100.97,-12.96,26.92,82.87,-18.06,-9.06,80.92,1.0,-1.0,1.0,-1.0,-1.0,0.2112,-0.0939,1.0,1.0,-0.4457,1.0,0.9854,-1.0,1.0,-0.8682,1.0,1.0,-1.0,0.013,0.0,0.033,0.019,0.0,0.033,0.026,0.013,0.0,0.078,0.111,0.0,0.039,0.175,0.0,0.013,0.019,0.013,-0.227,-0.2608,0.1933,-0.4725,-0.5093,0.2454,-0.4372,-0.1595,0.3053,0.4893,-0.3482,0.3559,-0.2623,-0.0752,0.1197,-0.3896,-0.4832,0.0736,0.1393,-0.2119,0.2214,-0.2516,-0.2944,0.0694,-0.2998,-0.1311,0.2701,0.2945,0.0264,-0.0137,-0.1919,0.0716,0.0372,-0.0252,-0.2868,-0.2412,0.5646,-0.2692,0.1764,-0.0804,0.0743,-0.1092,-1.0,1.0,-1.0,-0.9853,-1.0,-0.9654,-0.873,1.0,-0.2672,1.0,-1.0,-1.0,1.0,0.2613,1.0,1.0,-1.0,0.0,0.0,0.0,0.0,0.0,0.0,0.0,0.0,0.0,0.0,0.0,0.0,0.0,0
0.96,run,10.04,-3.91,10.23,9.44,3.53,0.0,0.0,0.0,0.175,-5.71,-0.79,93.25,-34.37,-17.31,96.33,-22.24,10.55,100.37,23.73,-2.99,100.81,-10.2,16.26,84.02,-25.93,-14.24,84.73,-5.34,-5.54,98.87,-35.0,-20.61,93.21,-25.52,11.13,105.82,19.61,9.47,102.47,-14.46,28.42,81.37,-16.56,-7.56,79.42,-1.0,-1.0,1.0,-1.0,0.0025,-1.0,-1.0,-0.7199,1.0,-1.0,0.7093,1.0,-1.0,1.0,-1.0,1.0,1.0,-1.0,0.013,0.0,0.033,0.019,0.0,0.033,0.026,0.013,0.0,0.078,0.111,0.0,0.039,0.175,0.0,0.013,0.019,0.013,-0.2102,-0.2884,0.2224,-0.4817,-0.5323,0.2454,-0.4679,-0.1595,0.3329,0.5062,-0.3206,0.3313,-0.2746,-0.0506,0.1043,-0.3728,-0.5001,0.043,0.1507,-0.2353,0.2467,-0.2051,-0.2785,0.0486,-0.3065,-0.0918,0.276,0.2593,0.1054,-0.0869,-0.173,0.1274,-0.0222,0.0355,-0.2539,-0.2655,0.6001,-0.2384,0.1259,0.1349,0.0929,1.0,-1.0,1.0,-1.0,-1.0,0.2112,-0.0939,1.0,1.0,-0.4457,1.0,0.9854,-1.0,1.0,-0.8682,1.0,1.0,-1.0,0.0,0.0,0.0,0.0,0.0,0.0,0.0,0.0,0.0,0.0,0.0,0.0,0.0,0
1.0,run,10.59,-3.52,12.12,9.7,6.58,0.0,0.0,0.0,0.292,-5.19,-2.11,94.57,-34.37,-18.28,95.45,-23.38,11.34,101.69,23.99,-1.58,100.02,-11.07,17.58,83.32,-24.61,-14.41,83.32,-6.84,-7.04,100.37,-35.0,-19.11,91.71,-27.02,9.63,107.32,18.11,10.97,103.97,-15.96,29.92,82.87,-15.06,-6.06,77.92,-1.0,-1.0,1.0,-1.0,0.9202,-1.0,-1.0,-1.0,1.0,-1.0,0.8557,1.0,-1.0,1.0,1.0,1.0,1.0,-1.0,0.006,0.0,0.039,0.013,0.0,0.0,0.013,0.006,0.006,0.058,0.097,0.013,0.123,0.292,0.0,0.0,0.006,0.006,-0.2025,-0.3099,0.2424,-0.4878,-0.5446,0.2378,-0.4924,-0.1411,0.3543,0.517,-0.2961,0.3114,-0.2853,-0.0291,0.092,-0.3467,-0.5093,0.0215,0.134,-0.2446,0.2469,-0.1664,-0.2406,0.0055,-0.3059,0.0043,0.2731,0.2215,0.1651,-0.135,-0.1611,0.1691,-0.0612,0.1219,-0.212,-0.2658,0.6367,-0.2074,0.1785,0.1647,0.0616,-1.0,-1.0,1.0,-1.0,0.0025,-1.0,-1.0,-0.7199,1.0,-1.0,0.7093,1.0,-1.0,1.0,-1.0,1.0,1.0,-1.0,0.0,0.0,0.0,0.0,0.0,0.0,0.0,0.0,0.0,0.0,0.0,0.0,0.0,0
1.04,run,11.47,-3.03,22.19,12.71,8.35,0.0,0.002,0.0,0.292,-5.19,-3.43,95.89,-34.37,-19.25,94.22,-24.43,11.87,103.01,24.08,-0.09,99.4,-12.3,18.9,82.44,-23.2,-14.41,81.91,-5.34,-8.54,101.87,-35.0,-17.61,90.21,-28.52,8.13,108.82,16.61,12.47,105.47,-17.46,30.0,81.37,-13.56,-4.56,76.42,0.951,-1.0,1.0,-1.0,0.5665,-1.0,-1.0,-1.0,1.0,-1.0,1.0,1.0,-1.0,1.0,-0.0467,1.0,1.0,-1.0,0.006,0.0,0.039,0.013,0.0,0.0,0.013,0.006,0.006,0.058,0.097,0.013,0.123,0.292,0.0,0.0,0.006,0.006,-0.1933,-0.3329,0.2654,-0.4878,-0.5614,0.2224,-0.5123,-0.1273,0.3774,0.5216,-0.2715,0.2976,-0.3007,-0.0061,0.0798,-0.3237,-0.5123,-0.0031,0.1283,-0.2575,0.2591,-0.1165,-0.2317,-0.0537,-0.2889,0.0548,0.2775,0.1723,0.2076,-0.1463,-0.1703,0.2047,-0.0889,0.1716,-0.1599,-0.2781,0.6844,-0.1731,0.2114,0.1693,0.1148,-1.0,-1.0,1.0,-1.0,0.9202,-1.0,-1.0,-1.0,1.0,-1.0,0.8557,1.0,-1.0,1.0,1.0,1.0,1.0,-1.0,0.0,0.0,0.0,0.0,0.0,0.0,0.0,0.0,0.0,0.0133,0.0,0.0133,0.0,0
1.08,run,12.06,-2.76,14.99,6.87,-0.34,0.0,0.004,0.0,0.292,-5.27,-4.83,97.29,-34.63,-20.04,92.99,-25.58,12.04,103.8,23.99,1.32,99.23,-13.71,20.57,81.74,-21.71,-13.89,80.6,-3.84,-10.04,103.37,-35.0,-16.86,88.71,-30.02,6.63,110.32,15.11,13.97,106.97,-18.96,30.0,79.87,-12.06,-3.06,74.92,1.0,-1.0,1.0,-1.0,0.148,-0.5157,-1.0,-1.0,1.0,-1.0,1.0,1.0,-1.0,1.0,-0.4097,1.0,1.0,-1.0,0.006,0.0,0.039,0.013,0.0,0.0,0.013,0.006,0.006,0.058,0.097,0.013,0.123,0.292,0.0,0.0,0.006,0.006,-0.1933,-0.3559,0.2884,-0.4878,-0.5783,0.201,-0.5308,-0.1181,0.4004,0.5231,-0.2454,0.2869,-0.3221,0.0169,0.0644,-0.2991,-0.5123,-0.0276,0.0898,-0.267,0.2681,-0.0815,-0.2258,-0.1186,-0.2716,0.073,0.281,0.1264,0.2437,-0.1429,-0.2001,0.23,-0.1201,0.2127,-0.1119,-0.2872,0.7607,-0.1305,0.3873,0.2219,0.1458,0.951,-1.0,1.0,-1.0,0.5665,-1.0,-1.0,-1.0,1.0,-1.0,1.0,1.0,-1.0,1.0,-0.0467,1.0,1.0,-1.0,0.0,0.0,0.0,0.0,0.0,0.0,0.0,0.0,0.0,0.0267,0.0,0.0267,0.0,0
1.12,run,12.71,-2.27,15.47,13.85,-12.02,0.0,0.006,0.0,0.292,-5.36,-6.24,98.7,-34.89,-20.57,91.67,-26.72,12.04,105.47,23.29,2.81,99.23,-15.21,21.97,81.04,-20.3,-13.18,79.19,-2.34,-11.54,104.87,-35.0,-15.36,87.21,-31.52,5.13,111.82,13.61,15.47,108.47,-20.46,30.0,78.37,-10.56,-1.56,73.42,1.0,-1.0,1.0,-1.0,0.5705,0.0644,-1.0,-1.0,1.0,-1.0,1.0,1.0,-1.0,1.0,-0.9756,1.0,1.0,-1.0,0.026,0.0,0.033,0.006,0.0,0.0,0.013,0.013,0.013,0.006,0.084,0.065,0.058,0.279,0.006,0.013,0.026,0.013,-0.1948,-0.3804,0.3129,-0.4924,-0.5921,0.1795,-0.5507,-0.115,0.4142,0.5216,-0.2209,0.2838,-0.3467,0.046,0.0522,-0.273,-0.5031,-0.0506,0.0572,-0.2785,0.2793,-0.0743,-0.2096,-0.1631,-0.2646,0.0626,0.2482,0.0827,0.2622,-0.1115,-0.2317,0.2698,-0.1298,0.2462,-0.044,-0.2869,0.8127,-0.1066,0.2615,0.12,-0.006,1.0,-1.0,1.0,-1.0,0.148,-0.5157,-1.0,-1.0,1.0,-1.0,1.0,1.0,-1.0,1.0,-0.4097,1.0,1.0,-1.0,0.0,0.0,0.0,0.0,0.0,0.0,0.0,0.0,0.0,0.04,0.0,0.04,0.0,0
1.16,run,13.4,-1.81,15.96,12.27,-13.26,0.0,0.008,0.0,0.292,-4.83,-7.73,100.11,-35.42,-20.57,90.18,-27.95,11.43,107.05,22.5,4.13,99.76,-16.61,23.29,79.8,-18.9,-12.22,77.78,-0.84,-13.04,106.37,-35.0,-13.86,85.71,-33.02,3.63,113.32,12.11,13.97,109.97,-21.96,30.0,76.87,-9.06,-0.06,71.92,1.0,-1.0,1.0,-1.0,0.9294,-0.1857,-1.0,-1.0,1.0,-1.0,0.1354,0.6762,-1.0,1.0,-0.3277,1.0,1.0,-1.0,0.026,0.0,0.033,0.006,0.0,0.0,0.013,0.013,0.013,0.006,0.084,0.065,0.058,0.279,0.006,0.013,0.026,0.013,-0.1963,-0.405,0.3375,-0.497,-0.6013,0.1565,-0.5706,-0.115,0.4433,0.5093,-0.1948,0.2838,-0.3728,0.0706,0.0399,-0.2485,-0.4909,-0.0752,0.0342,-0.2878,0.2884,-0.0694,-0.1815,-0.2012,-0.2606,0.0438,0.284,0.0115,0.2822,-0.078,-0.2609,0.2817,-0.1373,0.2652,0.0156,-0.2937,0.8693,-0.064,0.2701,0.2418,-0.2098,1.0,-1.0,1.0,-1.0,0.5705,0.0644,-1.0,-1.0,1.0,-1.0,1.0,1.0,-1.0,1.0,-0.9756,1.0,1.0,-1.0,0.0,0.0,0.0,0.0,0.0,0.0,0.0,0.0,0.0,0.0533,0.0,0.0533,0.0,0
1.2,run,14.12,-1.5,16.08,8.7,-10.71,0.0,0.01,0.0,0.292,-4.04,-9.14,101.6,-35.42,-20.57,88.86,-29.27,10.63,108.37,21.01,5.54,100.55,-18.11,24.79,78.93,-17.23,-10.02,76.38,0.66,-14.54,107.87,-35.0,-12.36,84.21,-34.52,2.13,114.82,10.61,12.47,111.47,-23.46,30.0,75.37,-7.56,1.44,70.42,1.0,-1.0,1.0,-1.0,0.4765,0.0429,-1.0,-1.0,1.0,-1.0,0.2814,0.7728,-1.0,1.0,-0.4783,1.0,1.0,-1.0,0.026,0.0,0.033,0.006,0.0,0.0,0.013,0.013,0.013,0.006,0.084,0.065,0.058,0.279,0.006,0.013,0.026,0.013,-0.1871,-0.431,0.362,-0.5062,-0.6013,0.1304,-0.5921,-0.1258,0.4709,0.4955,-0.1718,0.293,-0.3973,0.0936,0.0184,-0.224,-0.474,-0.0997,0.0581,-0.2983,0.293,-0.0828,-0.1271,-0.2378,-0.2622,-0.0092,0.3014,-0.0432,0.283,-0.0204,-0.2738,0.2827,-0.1759,0.2768,0.0736,-0.2968,0.9298,-0.024,0.2786,0.2142,-0.2315,1.0,-1.0,1.0,-1.0,0.9294,-0.1857,-1.0,-1.0,1.0,-1.0,0.1354,0.6762,-1.0,1.0,-0.3277,1.0,1.0,-1.0,0.0,0.0,0.0,0.0,0.0,0.0,0.0,0.0,0.0,0.0667,0.0,0.0667,0.0,0
1.24,run,14.5,-0.82,11.22,15.4,-8.3,0.0,0.012,0.0,0.292,-3.08,-10.55,103.01,-35.33,-20.48,87.36,-30.67,9.49,109.69,19.6,6.77,101.6,-19.42,26.1,77.61,-16.08,-8.79,74.97,2.16,-16.04,109.37,-35.0,-10.86,85.71,-33.02,0.63,116.32,9.11,10.97,109.97,-24.96,30.0,73.87,-6.06,2.94,68.92,1.0,-1.0,1.0,-1.0,0.3303,1.0,-0.7763,-1.0,1.0,-1.0,0.4366,0.1102,-1.0,1.0,-1.0,1.0,1.0,-1.0,0.058,0.0,0.033,0.013,0.071,0.0,0.019,0.033,0.026,0.026,0.117,0.163,0.071,0.227,0.006,0.026,0.019,0.013,-0.1733,-0.4556,0.3881,-0.5062,-0.6013,0.1074,-0.6151,-0.1396,0.4939,0.4694,-0.1473,0.3068,-0.4234,0.1197,0.0031,-0.1948,-0.4357,-0.1243,0.0924,-0.3008,0.3028,-0.0579,-0.089,-0.2526,-0.2698,-0.0582,0.2972,-0.128,0.2901,0.0374,-0.2894,0.2956,-0.1806,0.303,0.1952,-0.2997,0.9924,0.0034,0.2807,0.1518,-0.187,1.0,-1.0,1.0,-1.0,0.4765,0.0429,-1.0,-1.0,1.0,-1.0,0.2814,0.7728,-1.0,1.0,-0.4783,1.0,1.0,-1.0,0.0,0.0,0.0,0.0,0.0,0.0,0.0,0.0,0.0,0.08,0.0,0.08,0.0,0
1.28,run,15.03,-0.46,13.46,7.97,-4.3,0.0,0.014,0.0,0.292,-1.85,-11.87,104.41,-35.33,-19.86,86.04,-31.9,8.0,111.01,18.37,8.0,103.01,-20.74,27.16,76.2,-14.68,-7.73,73.56,3.66,-14.54,110.87,-35.0,-9.36,87.21,-31.52,-0.87,117.82,7.61,9.47,108.47,-26.46,30.0,72.37,-4.56,4.44,67.42,1.0,0.7664,1.0,-1.0,0.4452,1.0,1.0,-1.0,1.0,-1.0,-0.5291,-0.9369,-1.0,1.0,-0.9091,1.0,1.0,-1.0,0.058,0.0,0.033,0.013,0.071,0.0,0.019,0.033,0.026,0.026,0.117,0.163,0.071,0.227,0.006,0.026,0.019,0.013,-0.1565,-0.4801,0.4126,-0.5047,-0.5998,0.0813,-0.6397,-0.1595,0.517,0.4449,-0.1258,0.3252,-0.4464,0.1427,-0.0199,-0.1749,-0.4142,-0.1488,0.128,-0.3027,0.3041,-0.0348,-0.0565,-0.2747,-0.281,-0.1156,0.2944,-0.1817,0.2837,0.0953,-0.2889,0.2933,-0.2128,0.2869,0.2173,-0.3019,1.0257,0.0622,0.1959,0.2688,-0.1448,1.0,-1.0,1.0,-1.0,0.3303,1.0,-0.7763,-1.0,1.0,-1.0,0.4366,0.1102,-1.0,1.0,-1.0,1.0,1.0,-1.0,0.0,0.0,0.0,0.0,0.0,0.0,0.0,0.0,0.0,0.0933,0.0,0.0933,0.0,0
1.32,run,15.38,-0.45,8.36,1.29,-9.31,0.0,0.016,0.0,0.292,-0.62,-13.18,105.82,-35.33,-18.9,85.08,-32.87,6.5,112.41,17.05,8.96,104.24,-22.24,28.12,74.88,-13.01,-6.06,72.16,5.16,-16.04,112.37,-35.0,-10.86,85.71,-30.02,-2.37,119.32,6.11,7.97,106.97,-27.96,30.0,70.87,-3.06,5.94,65.92,1.0,-0.906,1.0,-1.0,-1.0,-1.0,0.0527,-1.0,1.0,-1.0,0.2877,0.0416,-1.0,1.0,-0.6141,1.0,1.0,-1.0,0.058,0.0,0.033,0.013,0.071,0.0,0.019,0.033,0.026,0.026,0.117,0.163,0.071,0.227,0.006,0.026,0.019,0.013,-0.135,-0.5031,0.4372,-0.5047,-0.589,0.0583,-0.6611,-0.1856,0.54,0.4234,-0.1043,0.3497,-0.4694,0.1611,-0.0445,-0.1503,-0.3958,-0.1733,0.1706,-0.2987,0.3054,-0.0244,0.0009,-0.2791,-0.2777,-0.1792,0.2928,-0.2082,0.2795,0.1593,-0.289,0.2747,-0.2415,0.2934,0.2215,-0.3039,1.0721,0.094,0.2349,0.139,-0.075,1.0,0.7664,1.0,-1.0,0.4452,1.0,1.0,-1.0,1.0,-1.0,-0.5291,-0.9369,-1.0,1.0,-0.9091,1.0,1.0,-1.0,0.0,0.0,0.0,0.0,0.0,0.0,0.0,0.0,0.0,0.1067,0.0,0.1067,0.0,0
1.36,run,15.51,-0.64,3.04,-4.99,-9.03,0.0,0.018,0.0,0.292,0.88,-14.33,107.23,-35.33,-17.75,84.55,-33.57,5.19,113.82,15.73,9.58,105.29,-23.64,28.56,73.65,-11.95,-4.57,70.75,6.66,-17.54,113.87,-35.0,-12.36,87.21,-28.52,-3.87,120.82,4.61,9.47,105.47,-29.46,30.0,69.37,-1.56,7.44,64.42,1.0,-0.4172,1.0,-1.0,-1.0,1.0,-0.0227,-1.0,1.0,-1.0,1.0,-0.833,-1.0,1.0,-1.0,1.0,1.0,-1.0,0.091,0.0,0.033,0.006,0.111,0.006,0.006,0.019,0.039,0.045,0.156,0.156,0.052,0.111,0.0,0.006,0.019,0.013,-0.1135,-0.5262,0.4617,-0.5047,-0.5722,0.0414,-0.678,-0.2117,0.5645,0.4004,-0.0874,0.3712,-0.4955,0.1779,-0.0675,-0.1212,-0.3666,-0.1979,0.1995,-0.2948,0.3053,-0.0171,0.0635,-0.2582,-0.2573,-0.2227,0.2965,-0.2315,0.2586,0.1915,-0.2995,0.2552,-0.2548,0.314,0.2637,-0.3042,1.1027,0.0947,0.1459,0.0225,-0.1625,1.0,-0.906,1.0,-1.0,-1.0,-1.0,0.0527,-1.0,1.0,-1.0,0.2877,0.0416,-1.0,1.0,-0.6141,1.0,1.0,-1.0,0.0,0.0,0.0,0.0,0.0,0.0,0.0,0.0,0.0,0.12,0.0,0.12,0.0,0
1.4,run,15.75,-1.1,5.82,-11.1,-14.51,0.0,0.02,0.0,0.292,2.37,-15.38,108.54,-35.33,-16.61,84.02,-34.1,3.78,115.22,14.33,9.84,106.0,-25.05,28.74,72.25,-10.02,-3.52,69.26,8.16,-19.04,115.37,-35.0,-13.86,88.71,-27.02,-5.37,122.32,3.11,10.97,103.97,-30.96,30.0,67.87,-0.06,8.94,62.92,1.0,-1.0,1.0,-1.0,-1.0,1.0,1.0,-1.0,1.0,-1.0,1.0,-1.0,-1.0,1.0,-1.0,1.0,1.0,-1.0,0.091,0.0,0.033,0.006,0.111,0.006,0.006,0.019,0.039,0.045,0.156,0.156,0.052,0.111,0.0,0.006,0.019,0.013,-0.0874,-0.5461,0.4863,-0.5047,-0.5522,0.0322,-0.6903,-0.2347,0.589,0.3774,-0.0767,0.3896,-0.52,0.1856,-0.089,-0.1028,-0.3405,-0.2224,0.2378,-0.2814,0.3061,-0.0119,0.1196,-0.2154,-0.2263,-0.2425,0.2999,-0.2487,0.2214,0.2034,-0.3021,0.2075,-0.2592,0.2891,0.2828,-0.3053,1.114,0.0783,0.053,-0.0871,-0.1576,1.0,-0.4172,1.0,-1.0,-1.0,1.0,-0.0227,-1.0,1.0,-1.0,1.0,-0.833,-1.0,1.0,-1.0,1.0,1.0,-1.0,0.0,0.0,0.0,0.0,0.0,0.0,0.0,0.0,0.0,0.1333,0.0,0.1333,0.0,0
1.44,run,15.81,-1.5,1.37,-10.2,-17.13,0.0,0.022,0.0,0.292,3.87,-16.44,110.04,-35.33,-15.64,83.94,-34.19,2.29,116.63,12.92,9.93,106.61,-26.54,29.0,70.93,-9.23,-1.85,67.85,9.66,-20.54,116.87,-35.0,-15.36,90.21,-25.52,-6.87,123.82,1.61,12.47,102.47,-32.46,30.0,66.37,1.44,10.44,61.42,1.0,-1.0,1.0,-1.0,-1.0,1.0,1.0,-1.0,1.0,-1.0,1.0,-1.0,-1.0,1.0,-0.2251,1.0,1.0,-0.6693,0.091,0.0,0.033,0.006,0.111,0.006,0.006,0.019,0.039,0.045,0.156,0.156,0.052,0.111,0.0,0.006,0.019,0.013,-0.0614,-0.5645,0.5093,-0.5047,-0.5323,0.023,-0.6995,-0.2592,0.6136,0.3528,-0.0721,0.4019,-0.5446,0.1887,-0.1135,-0.069,-0.3221,-0.2485,0.2639,-0.2658,0.3003,-0.0084,0.1582,-0.1852,-0.1928,-0.2615,0.3017,-0.2658,0.1722,0.1882,-0.3032,0.1567,-0.2732,0.3285,0.2667,-0.3112,1.1344,0.0377,0.1015,-0.1936,-0.2532,1.0,-1.0,1.0,-1.0,-1.0,1.0,1.0,-1.0,1.0,-1.0,1.0,-1.0,-1.0,1.0,-1.0,1.0,1.0,-1.0,0.0,0.0,0.0,0.0,0.0,0.0,0.0,0.0,0.0,0.1467,0.0,0.1467,0.0,0
1.48,run,15.9,-1.57,2.47,-0.96,-12.91,0.0,0.024,0.0,0.292,5.36,-17.67,111.36,-35.33,-15.03,84.02,-34.1,0.88,117.95,11.6,9.93,106.88,-28.04,29.18,69.7,-7.03,-0.53,66.53,11.16,-22.04,118.37,-33.5,-16.86,91.71,-24.02,-8.37,125.32,0.11,13.97,100.97,-33.96,28.5,67.25,2.94,11.94,62.92,1.0,-1.0,1.0,0.2616,-1.0,1.0,1.0,-1.0,1.0,-1.0,1.0,-1.0,-1.0,0.8615,0.0264,0.9452,1.0,0.5046,0.052,0.0,0.045,0.006,0.136,0.097,0.019,0.026,0.045,0.058,0.189,0.111,0.039,0.019,0.0,0.0,0.013,0.006,-0.0353,-0.5829,0.5354,-0.5047,-0.5154,0.0215,-0.701,-0.2853,0.6381,0.3283,-0.0706,0.4126,-0.5706,0.1933,-0.1365,-0.0552,-0.293,-0.273,0.2824,-0.255,0.3078,-0.0058,0.1739,-0.1354,-0.1407,-0.2807,0.3031,-0.2779,0.1263,0.172,-0.3098,0.1269,-0.2774,0.2816,0.2958,-0.3097,1.1397,0.0027,0.024,-0.1781,-0.2989,1.0,-1.0,1.0,-1.0,-1.0,1.0,1.0,-1.0,1.0,-1.0,1.0,-1.0,-1.0,1.0,-0.2251,1.0,1.0,-0.6693,0.0,0.0,0.0,0.0,0.0,0.0,0.0,0.0,0.0,0.16,0.0,0.16,0.0,0
1.52,run,15.99,-1.81,0.57,-6.71,-14.33,0.0,0.026,0.0,0.292,6.77,-18.9,112.85,-35.33,-14.59,84.73,-33.66,-0.44,119.27,10.2,9.93,106.88,-29.44,29.18,68.29,-6.59,1.05,65.13,12.66,-23.54,119.87,-32.0,-18.36,93.21,-22.52,-9.87,126.82,-1.39,15.47,99.47,-35.0,27.0,65.75,1.44,13.44,64.42,1.0,-1.0,1.0,1.0,-1.0,1.0,1.0,-1.0,1.0,-1.0,1.0,-1.0,-1.0,-0.6746,-0.072,-1.0,1.0,1.0,0.052,0.0,0.045,0.006,0.136,0.097,0.019,0.026,0.045,0.058,0.189,0.111,0.039,0.019,0.0,0.0,0.013,0.006,-0.0092,-0.6044,0.5584,-0.5047,-0.5047,0.023,-0.6995,-0.3099,0.6611,0.3053,-0.0706,0.4172,-0.5967,0.1963,-0.158,-0.0169,-0.27,-0.2961,0.2952,-0.2588,0.3016,-0.0041,0.1619,-0.089,-0.0927,-0.2883,0.2982,-0.2806,0.0884,0.1376,-0.3145,0.1003,-0.2745,0.3406,0.2932,-0.3029,1.148,-0.0033,0.0432,-0.0167,-0.2254,1.0,-1.0,1.0,0.2616,-1.0,1.0,1.0,-1.0,1.0,-1.0,1.0,-1.0,-1.0,0.8615,0.0264,0.9452,1.0,0.5046,0.0,0.0,0.0,0.0,0.0,0.0,0.0,0.0,0.0,0.1733,0.0,0.1733,0.0,0
1.56,run,15.97,-1.65,-1.33,4.38,-3.57,0.0,0.028,0.0,0.292,8.09,-20.21,114.26,-35.07,-14.5,85.78,-32.43,-1.67,120.67,8.96,10.37,106.79,-30.94,28.74,67.32,-4.22,1.85,64.07,14.16,-25.04,118.37,-30.5,-19.86,94.71,-21.02,-11.37,128.32,-2.89,16.97,97.97,-35.0,25.5,67.25,-0.06,14.94,65.92,1.0,-1.0,0.2107,1.0,-1.0,1.0,1.0,-1.0,1.0,-1.0,1.0,-1.0,-1.0,-1.0,0.8002,-1.0,1.0,1.0,0.052,0.0,0.045,0.006,0.136,0.097,0.019,0.026,0.045,0.058,0.189,0.111,0.039,0.019,0.0,0.0,0.013,0.006,0.0153,-0.6259,0.5844,-0.5047,-0.497,0.0353,-0.6918,-0.3329,0.6842,0.2807,-0.0706,0.4172,-0.6213,0.1963,-0.1825,-0.0092,-0.2424,-0.3206,0.2991,-0.262,0.3093,-0.0029,0.1422,-0.0161,-0.0361,-0.2884,0.2954,-0.2888,0.0619,0.0963,-0.3125,0.0702,-0.2845,0.2673,0.3092,-0.3044,1.1553,-0.0242,0.01,-0.1172,-0.25,1.0,-1.0,1.0,1.0,-1.0,1.0,1.0,-1.0,1.0,-1.0,1.0,-1.0,-1.0,-0.6746,-0.072,-1.0,1.0,1.0,0.0,0.0,0.0,0.0,0.0,0.0,0.0,0.0,0.0,0.1867,0.0,0.1867,0.0,0
1.6,run,16.23,-1.14,2.93,14.79,0.32,0.0,0.03,0.0,0.377,9.49,-21.62,115.58,-34.54,-14.5,86.84,-31.11,-2.81,122.17,7.65,11.16,105.73,-32.34,28.04,66.53,-3.6,3.87,63.19,15.66,-26.54,116.87,-29.0,-21.36,96.21,-19.52,-12.87,129.82,-4.39,18.47,96.47,-35.0,24.0,68.75,-1.56,16.44,67.42,1.0,-1.0,0.1419,1.0,-1.0,1.0,1.0,-1.0,1.0,-1.0,0.9977,-1.0,-1.0,-1.0,1.0,-1.0,1.0,1.0,0.058,0.006,0.026,0.058,0.026,0.182,0.019,0.117,0.045,0.143,0.377,0.026,0.026,0.006,0.006,0.026,0.0,0.006,0.0383,-0.6489,0.609,-0.5001,-0.4955,0.0537,-0.6703,-0.3543,0.7087,0.2592,-0.0629,0.4157,-0.6473,0.1887,-0.1994,0.0322,-0.2286,-0.339,0.2954,-0.2695,0.3083,0.0152,0.1053,0.0576,0.0551,-0.2822,0.2986,-0.2825,0.072,0.0617,-0.3163,0.0205,-0.2623,0.342,0.268,-0.2819,1.1541,-0.0098,-0.0232,0.0764,-0.0623,1.0,-1.0,0.2107,1.0,-1.0,1.0,1.0,-1.0,1.0,-1.0,1.0,-1.0,-1.0,-1.0,0.8002,-1.0,1.0,1.0,0.0,0.0,0.0,0.0,0.0,0.0,0.0,0.0,0.0,0.2,0.0,0.2,0.0,0
1.64,run,16.14,-0.59,-4.53,16.94,11.08,0.0,0.032,0.0,0.377,10.81,-23.03,116.63,-33.57,-14.59,88.07,-29.79,-3.96,123.49,6.33,12.13,104.77,-33.4,26.98,65.92,-1.67,5.62,62.75,17.16,-28.04,115.37,-27.5,-22.86,97.71,-18.02,-14.37,131.32,-5.89,16.97,94.97,-35.0,22.5,70.25,-3.06,17.94,68.92,1.0,-1.0,0.0893,1.0,-1.0,1.0,1.0,-1.0,1.0,-1.0,0.2177,-1.0,-1.0,-0.9091,1.0,-1.0,1.0,1.0,0.058,0.006,0.026,0.058,0.026,0.182,0.019,0.117,0.045,0.143,0.377,0.026,0.026,0.006,0.006,0.026,0.0,0.006,0.0629,-0.6734,0.632,-0.4909,-0.4955,0.0721,-0.6473,-0.3743,0.7348,0.2362,-0.0491,0.3973,-0.6719,0.1764,-0.2132,0.043,-0.1933,-0.3543,0.2989,-0.2808,0.3022,0.0452,0.0737,0.1094,0.125,-0.2724,0.3069,-0.2842,0.1022,-0.0259,-0.3136,-0.0317,-0.2354,0.2797,0.3201,-0.255,1.1766,0.0347,0.0512,0.2581,0.0056,1.0,-1.0,0.1419,1.0,-1.0,1.0,1.0,-1.0,1.0,-1.0,0.9977,-1.0,-1.0,-1.0,1.0,-1.0,1.0,1.0,0.0,0.0,0.0,0.0,0.0,0.0,0.0,0.0,0.0,0.2133,0.0,0.2133,0.0,0
1.68,run,16.36,-0.86,9.26,-9.81,16.86,0.0,0.034,0.0,0.377,12.3,-24.43,117.42,-32.26,-15.38,89.21,-28.3,-5.89,124.98,5.1,13.1,103.45,-34.28,25.84,65.92,-1.49,6.68,62.58,18.66,-29.54,113.87,-26.0,-24.36,99.21,-16.52,-15.87,132.82,-7.39,15.47,93.47,-35.0,21.0,71.75,-4.56,19.44,70.42,0.7639,-1.0,-0.2359,1.0,-1.0,1.0,1.0,-1.0,1.0,-1.0,-0.8933,-1.0,-1.0,-1.0,1.0,-1.0,1.0,1.0,0.058,0.006,0.026,0.058,0.026,0.182,0.019,0.117,0.045,0.143,0.377,0.026,0.026,0.006,0.006,0.026,0.0,0.006,0.0859,-0.698,0.6504,-0.474,-0.497,0.0936,-0.6243,-0.3942,0.7578,0.2132,-0.0322,0.3804,-0.6903,0.158,-0.224,0.0767,-0.1626,-0.362,0.2956,-0.2887,0.2806,0.095,0.0458,0.1572,0.1738,-0.2656,0.3012,-0.2853,0.1349,-0.0815,-0.2886,-0.0913,-0.2051,0.3225,0.3392,-0.2073,1.1686,0.082,-0.079,0.2957,0.1934,1.0,-1.0,0.0893,1.0,-1.0,1.0,1.0,-1.0,1.0,-1.0,0.2177,-1.0,-1.0,-0.9091,1.0,-1.0,1.0,1.0,0.0,0.0,0.0,0.0,0.0,0.0,0.0,0.0,0.0,0.2267,0.0,0.2267,0.0,0
1.72,run,15.99,-0.66,-7.38,7.15,17.02,0.0,0.036,0.0,0.396,13.8,-26.02,117.86,-30.67,-16.7,90.62,-26.89,-7.65,126.39,3.87,13.8,102.04,-34.72,24.43,65.92,-0.18,7.56,62.23,17.16,-31.04,112.37,-24.5,-25.86,100.71,-15.02,-17.37,134.32,-8.89,13.97,91.97,-33.5,19.5,73.25,-6.06,20.94,71.92,-0.3403,-1.0,-0.7034,1.0,-1.0,1.0,1.0,-1.0,1.0,-1.0,0.571,-1.0,-0.1318,-0.5619,1.0,-1.0,1.0,1.0,0.033,0.0,0.019,0.033,0.0,0.37,0.019,0.019,0.045,0.195,0.396,0.0,0.006,0.013,0.013,0.013,0.0,0.006,0.112,-0.7225,0.6642,-0.451,-0.5108,0.1135,-0.5983,-0.428,0.7839,0.1917,-0.0153,0.3574,-0.7056,0.1381,-0.224,0.0798,-0.1442,-0.3651,0.3047,-0.2941,0.2482,0.1528,-0.0197,0.1848,0.2195,-0.3125,0.3087,-0.2802,0.1577,-0.1434,-0.2596,-0.1387,-0.1436,0.2373,0.3065,-0.1566,1.1881,0.0589,0.1616,-0.1711,0.2942,0.7639,-1.0,-0.2359,1.0,-1.0,1.0,1.0,-1.0,1.0,-1.0,-0.8933,-1.0,-1.0,-1.0,1.0,-1.0,1.0,1.0,0.0,0.0,0.0,0.0,0.0,0.0,0.0,0.0,0.0,0.24,0.0,0.24,0.0,0
1.76,run,15.34,-0.35,-14.14,6.61,0.35,0.0,0.038,0.0,0.396,15.21,-27.51,118.12,-29.18,-18.02,92.11,-25.31,-9.05,127.79,2.46,14.41,100.55,-34.89,22.85,66.8,-0.35,10.2,63.63,15.66,-32.54,110.87,-23.0,-27.36,102.21,-13.52,-18.87,135.82,-10.39,12.47,90.47,-32.0,18.0,74.75,-7.56,22.44,73.42,-1.0,-1.0,-1.0,1.0,-1.0,1.0,1.0,-1.0,1.0,-1.0,-1.0,-1.0,-0.3962,-1.0,1.0,-1.0,1.0,1.0,0.033,0.0,0.019,0.033,0.0,0.37,0.019,0.019,0.045,0.195,0.396,0.0,0.006,0.013,0.013,0.013,0.0,0.006,0.1381,-0.7501,0.6719,-0.4234,-0.5338,0.1381,-0.5737,-0.4587,0.8084,0.1703,-0.0031,0.3329,-0.7133,0.1135,-0.224,0.1028,-0.1289,-0.3712,0.3112,-0.3095,0.2025,0.2105,-0.1001,0.2215,0.2457,-0.3338,0.3081,-0.2767,0.1564,-0.1924,-0.2105,-0.1892,-0.1005,0.2524,0.2721,-0.1326,1.1555,0.0762,-0.1288,0.1248,0.297,-0.3403,-1.0,-0.7034,1.0,-1.0,1.0,1.0,-1.0,1.0,-1.0,0.571,-1.0,-0.1318,-0.5619,1.0,-1.0,1.0,1.0,0.0,0.0,0.0,0.0,0.0,0.0,0.0,0.0,0.0,0.2533,0.0,0.2533,0.0,0
1.8,run,14.39,0.15,-24.42,12.45,-5.8,0.0,0.04,0.0,0.396,16.26,-28.92,118.12,-27.86,-19.16,93.69,-23.99,-10.28,129.2,1.05,14.77,99.05,-34.45,21.62,67.76,-0.26,11.07,64.25,14.16,-34.04,109.37,-21.5,-28.86,103.71,-12.02,-20.37,137.32,-11.89,10.97,88.97,-30.5,16.5,76.25,-9.06,23.94,74.92,-1.0,-1.0,-1.0,1.0,-1.0,1.0,1.0,-1.0,1.0,-1.0,-1.0,-0.8587,-0.1737,-1.0,1.0,-1.0,1.0,1.0,0.033,0.0,0.019,0.033,0.0,0.37,0.019,0.019,0.045,0.195,0.396,0.0,0.006,0.013,0.013,0.013,0.0,0.006,0.1626,-0.7762,0.6765,-0.3973,-0.5568,0.1641,-0.5461,-0.4832,0.833,0.1457,0.0077,0.3068,-0.7164,0.0859,-0.2086,0.0997,-0.0828,-0.3467,0.3057,-0.31,0.1582,0.2407,-0.1524,0.2484,0.2708,-0.3215,0.3035,-0.2816,0.1479,-0.228,-0.1583,-0.2313,-0.0155,0.1657,0.3552,-0.005,1.0989,0.1034,-0.2467,0.1155,0.006,-1.0,-1.0,-1.0,1.0,-1.0,1.0,1.0,-1.0,1.0,-1.0,-1.0,-1.0,-0.3962,-1.0,1.0,-1.0,1.0,1.0,0.0,0.0,0.0,0.0,0.0,0.0,0.0,0.0,0.0,0.2667,0.0,0.2667,0.0,0
1.84,run,13.93,0.2,-17.06,3.65,-10.69,0.0,0.042,0.0,0.396,16.96,-30.23,117.69,-26.63,-20.48,95.36,-22.59,-11.69,130.69,-0.35,14.85,97.65,-33.66,20.13,68.91,-1.05,11.87,65.65,12.66,-35.54,107.87,-20.0,-30.36,105.21,-10.52,-21.87,138.82,-13.39,9.47,87.47,-29.0,15.0,77.75,-10.56,25.44,76.42,-1.0,-0.6194,-1.0,1.0,-1.0,1.0,1.0,-1.0,1.0,-1.0,-1.0,-0.6874,-0.0248,-1.0,1.0,-1.0,1.0,1.0,0.019,0.0,0.013,0.065,0.0,0.189,0.019,0.026,0.065,0.175,0.169,0.0,0.019,0.013,0.013,0.0,0.0,0.026,0.181,-0.8007,0.6765,-0.3743,-0.5768,0.1917,-0.5231,-0.5047,0.8575,0.1212,0.0138,0.2807,-0.7087,0.0644,-0.1917,0.1012,-0.0675,-0.3359,0.2818,-0.3075,0.1108,0.2533,-0.1802,0.2757,0.2744,-0.3042,0.303,-0.2876,0.1262,-0.2558,-0.0825,-0.2411,0.0514,0.1216,0.3052,0.0361,1.0158,0.1473,-0.4262,0.2172,-0.1012,-1.0,-1.0,-1.0,1.0,-1.0,1.0,1.0,-1.0,1.0,-1.0,-1.0,-0.8587,-0.1737,-1.0,1.0,-1.0,1.0,1.0,0.0,0.0,0.0,0.0,0.0,0.0,0.0,0.0,0.0,0.28,0.0,0.28,0.0,0
1.88,run,13.61,0.46,-7.46,4.87,3.1,0.0,0.044,0.0,0.396,17.4,-31.64,116.89,-25.22,-21.88,96.94,-21.18,-13.54,131.92,-1.76,14.85,96.15,-32.61,18.72,70.4,-2.02,13.62,66.62,11.16,-37.04,106.37,-18.5,-31.86,106.71,-9.02,-23.37,140.32,-14.89,7.97,85.97,-27.5,13.5,79.25,-12.06,23.94,77.92,-1.0,-0.2293,-1.0,1.0,-1.0,1.0,1.0,-1.0,1.0,-1.0,-1.0,-0.0954,0.7156,-1.0,1.0,-1.0,0.6118,1.0,0.019,0.0,0.013,0.065,0.0,0.189,0.019,0.026,0.065,0.175,0.169,0.0,0.019,0.013,0.013,0.0,0.0,0.026,0.1933,-0.8237,0.6688,-0.3528,-0.5998,0.2209,-0.4985,-0.5292,0.8836,0.0966,0.0153,0.2562,-0.6949,0.0383,-0.1718,0.0874,-0.0537,-0.3114,0.2433,-0.3016,0.0488,0.2579,-0.2125,0.3023,0.2842,-0.3051,0.3099,-0.2934,0.0941,-0.2711,-0.006,-0.2666,0.1108,0.0333,0.2654,0.1174,0.9754,0.1516,-0.2978,0.0638,-0.1866,-1.0,-0.6194,-1.0,1.0,-1.0,1.0,1.0,-1.0,1.0,-1.0,-1.0,-0.6874,-0.0248,-1.0,1.0,-1.0,1.0,1.0,0.0,0.0,0.0,0.0,0.0,0.0,0.0,0.0,0.0,0.2933,0.0,0.2933,0.0,0
1.92,run,13.42,0.39,-5.63,-4.4,-2.76,0.0,0.046,0.0,0.396,17.58,-33.13,116.28,-23.82,-23.29,98.44,-19.69,-14.94,133.07,-3.25,14.85,94.83,-31.29,17.31,71.81,-3.25,14.94,68.2,9.66,-35.54,104.87,-17.0,-33.36,108.21,-7.52,-24.87,141.82,-16.39,6.47,84.47,-26.0,12.0,80.75,-13.56,22.44,79.42,-1.0,0.6222,-1.0,1.0,-1.0,1.0,1.0,-1.0,1.0,-1.0,-1.0,0.1043,1.0,-1.0,1.0,-1.0,-0.0164,1.0,0.019,0.0,0.013,0.065,0.0,0.189,0.019,0.026,0.065,0.175,0.169,0.0,0.019,0.013,0.013,0.0,0.0,0.026,0.201,-0.8483,0.655,-0.3283,-0.6243,0.2485,-0.474,-0.5614,0.905,0.0721,0.0153,0.2301,-0.6765,0.0138,-0.1457,0.0706,-0.023,-0.2945,0.1992,-0.3036,-0.0179,0.2731,-0.2413,0.3157,0.2915,-0.335,0.2979,-0.2979,0.0659,-0.2881,0.0652,-0.2792,0.1759,-0.0403,0.3015,0.1458,0.9482,0.1745,-0.1302,0.0849,0.0541,-1.0,-0.2293,-1.0,1.0,-1.0,1.0,1.0,-1.0,1.0,-1.0,-1.0,-0.0954,0.7156,-1.0,1.0,-1.0,0.6118,1.0,0.0,0.0,0.0,0.0,0.0,0.0,0.0,0.0,0.0,0.3067,0.0,0.3067,0.0,0
1.96,run,13.34,0.08,-1.7,-9.83,-9.22,0.0,0.048,0.0,0.396,17.14,-34.37,114.7,-22.5,-24.61,99.84,-18.28,-16.35,134.03,-4.75,14.41,93.34,-29.88,15.91,73.21,-4.57,16.26,69.61,8.16,-34.04,103.37,-15.5,-34.86,109.71,-6.02,-26.37,143.32,-17.89,4.97,85.97,-24.5,10.5,82.25,-15.06,20.94,80.92,-1.0,1.0,-1.0,1.0,-1.0,1.0,1.0,-1.0,1.0,-1.0,-1.0,0.3477,1.0,-0.9438,1.0,-1.0,-0.3318,1.0,0.013,0.0,0.033,0.065,0.0,0.104,0.019,0.019,0.169,0.189,0.0,0.0,0.013,0.019,0.006,0.013,0.039,0.026,0.204,-0.8744,0.6443,-0.3037,-0.6489,0.2746,-0.4479,-0.586,0.925,0.046,0.0153,0.2071,-0.6535,-0.0107,-0.1212,0.0491,0.0,-0.2669,0.1509,-0.3098,-0.0526,0.2827,-0.2605,0.3183,0.3013,-0.3261,0.2829,-0.3058,0.0461,-0.2875,0.1315,-0.287,0.2147,-0.1083,0.2969,0.205,0.9317,0.1679,-0.0983,-0.0768,-0.0482,-1.0,0.6222,-1.0,1.0,-1.0,1.0,1.0,-1.0,1.0,-1.0,-1.0,0.1043,1.0,-1.0,1.0,-1.0,-0.0164,1.0,0.0,0.0,0.0,0.0,0.0,0.0,0.0,0.0,0.0,0.32,0.0,0.32,0.0,0
2.0,run,13.93,1.28,12.63,25.19,-9.46,0.0,0.05,0.0,0.396,16.35,-35.16,112.68,-21.01,-26.02,101.43,-16.88,-17.67,134.91,-6.33,13.1,92.02,-28.48,14.59,74.79,-6.06,17.4,70.93,6.66,-32.54,101.87,-14.0,-36.36,111.21,-4.52,-27.87,144.82,-19.39,3.47,87.47,-23.0,9.0,83.75,-16.56,19.44,82.42,-1.0,1.0,-1.0,1.0,-1.0,1.0,1.0,-1.0,1.0,-1.0,-1.0,0.4661,1.0,-0.2787,1.0,-1.0,-0.6398,1.0,0.013,0.0,0.033,0.065,0.0,0.104,0.019,0.019,0.169,0.189,0.0,0.0,0.013,0.019,0.006,0.013,0.039,0.026,0.1963,-0.8958,0.6167,-0.2807,-0.6719,0.2991,-0.4234,-0.6105,0.9419,0.0199,0.0077,0.181,-0.6289,-0.0353,-0.0966,0.0261,0.023,-0.2424,0.0769,-0.2973,-0.1402,0.284,-0.2685,0.3147,0.3028,-0.3201,0.2612,-0.3117,0.0036,-0.2989,0.1839,-0.2927,0.2421,-0.1619,0.2939,0.2354,0.9241,0.141,-0.0297,-0.1715,-0.1609,-1.0,1.0,-1.0,1.0,-1.0,1.0,1.0,-1.0,1.0,-1.0,-1.0,0.3477,1.0,-0.9438,1.0,-1.0,-0.3318,1.0,0.0,0.0,0.0,0.0,0.0,0.0,0.0,0.0,0.0,0.3333,0.0,0.3333,0.0,0
2.04,run,12.44,2.58,-37.4,38.75,-12.34,0.0,0.05,0.0,0.396,15.64,-36.12,111.53,-19.86,-27.51,102.92,-15.47,-19.07,135.53,-8.0,12.04,90.53,-27.07,12.92,76.11,-7.47,18.28,72.16,5.16,-31.04,100.37,-12.5,-37.86,112.71,-3.02,-29.37,146.32,-20.89,1.97,88.97,-21.5,10.5,85.25,-18.06,17.94,83.92,-1.0,1.0,-1.0,1.0,-1.0,1.0,1.0,-1.0,1.0,-1.0,-1.0,0.4298,1.0,1.0,1.0,-1.0,0.2788,1.0,0.013,0.0,0.033,0.065,0.0,0.104,0.019,0.019,0.169,0.189,0.0,0.0,0.013,0.019,0.006,0.013,0.039,0.026,0.1825,-0.9097,0.5814,-0.2546,-0.6964,0.3267,-0.3988,-0.6335,0.9572,-0.0077,-0.0153,0.158,-0.6044,-0.0583,-0.069,0.0,0.043,-0.2194,0.0022,-0.2597,-0.2301,0.2964,-0.2797,0.3236,0.3038,-0.3102,0.2402,-0.3215,-0.0836,-0.2953,0.2206,-0.291,0.2728,-0.2109,0.2804,0.2509,0.9758,0.2459,0.2205,0.4396,-0.1652,-1.0,1.0,-1.0,1.0,-1.0,1.0,1.0,-1.0,1.0,-1.0,-1.0,0.4661,1.0,-0.2787,1.0,-1.0,-0.6398,1.0,0.0,0.0,0.0,0.0,0.0,0.0,0.0,0.0,0.0,0.3333,0.0,0.3333,0.0,0
2.08,run,12.14,2.67,-12.97,2.46,-11.42,0.0,0.05,0.0,0.76,13.89,-36.47,110.21,-18.37,-28.74,104.33,-14.15,-20.57,136.14,-9.23,10.63,89.47,-25.66,11.51,77.43,-9.23,18.81,73.39,3.66,-29.54,98.87,-11.0,-39.36,114.21,-1.52,-30.87,147.82,-22.39,0.47,87.47,-20.0,9.0,86.75,-19.56,16.44,85.42,-1.0,1.0,-1.0,1.0,-0.4684,1.0,1.0,-1.0,1.0,-1.0,-1.0,-0.0681,1.0,-1.0,1.0,-1.0,-0.6076,1.0,0.013,0.0,0.0,0.065,0.0,0.104,0.019,0.019,0.76,0.117,0.0,0.0,0.013,0.019,0.019,0.013,0.071,0.058,0.1703,-0.9265,0.5614,-0.2347,-0.7225,0.3528,-0.3743,-0.6581,0.9679,-0.0368,-0.0337,0.1319,-0.5798,-0.0874,-0.046,-0.0245,0.0583,-0.1979,-0.0447,-0.2454,-0.2362,0.2826,-0.294,0.3247,0.3051,-0.3096,0.2086,-0.3348,-0.1279,-0.3049,0.2468,-0.3135,0.2776,-0.2401,0.254,0.2565,0.8454,0.3594,-0.6528,0.6764,-0.2154,-1.0,1.0,-1.0,1.0,-1.0,1.0,1.0,-1.0,1.0,-1.0,-1.0,0.4298,1.0,1.0,1.0,-1.0,0.2788,1.0,0.0,0.0,0.0,0.0,0.0,0.0,0.0,0.0,0.0,0.3333,0.0,0.3333,0.0,0
2.12,run,11.87,2.94,-2.69,3.77,-1.61,0.0,0.05,0.0,0.76,12.74,-36.56,108.28,-16.96,-30.15,105.73,-12.66,-21.88,136.67,-10.9,9.49,88.42,-24.26,10.72,78.84,-9.93,19.07,74.71,2.16,-28.04,97.37,-9.5,-40.86,115.71,-0.02,-32.37,149.32,-23.89,-1.03,88.97,-18.5,7.5,88.25,-21.06,14.94,86.92,-1.0,1.0,-1.0,1.0,-1.0,1.0,1.0,-1.0,1.0,-1.0,-1.0,1.0,1.0,0.3165,1.0,-1.0,-0.9755,1.0,0.013,0.0,0.0,0.065,0.0,0.104,0.019,0.019,0.76,0.117,0.0,0.0,0.013,0.019,0.019,0.013,0.071,0.058,0.1396,-0.9327,0.5384,-0.2086,-0.744,0.3774,-0.3513,-0.6842,0.9787,-0.0583,-0.0583,0.1135,-0.5553,-0.112,-0.023,-0.0552,0.0675,-0.1764,-0.1463,-0.1948,-0.2516,0.2956,-0.2864,0.3193,0.2998,-0.3145,0.1863,-0.3149,-0.1815,-0.2825,0.2648,-0.3115,0.2806,-0.2831,0.2123,0.2601,0.8195,0.3667,-0.2263,0.043,-0.1993,-1.0,1.0,-1.0,1.0,-0.4684,1.0,1.0,-1.0,1.0,-1.0,-1.0,-0.0681,1.0,-1.0,1.0,-1.0,-0.6076,1.0,0.0,0.0,0.0,0.0,0.0,0.0,0.0,0.0,0.0,0.3333,0.0,0.3333,0.0,0
2.16,run,11.59,2.93,-6.07,-6.73,-14.38,0.0,0.05,0.0,0.76,11.34,-36.39,107.23,-15.47,-31.55,107.23,-11.25,-23.29,137.2,-12.48,8.09,87.8,-22.85,9.4,80.33,-11.95,19.07,75.94,0.66,-26.54,95.87,-8.0,-42.36,117.21,1.48,-33.87,150.0,-25.39,-2.53,90.47,-17.0,9.0,86.75,-22.56,13.44,88.42,-1.0,1.0,-1.0,1.0,-1.0,1.0,1.0,-1.0,1.0,-1.0,-1.0,0.8963,1.0,1.0,0.0036,-1.0,-0.2125,1.0,0.013,0.0,0.0,0.065,0.0,0.104,0.019,0.019,0.76,0.117,0.0,0.0,0.013,0.019,0.019,0.013,0.071,0.058,0.1197,-0.9342,0.5047,-0.1841,-0.7685,0.4019,-0.3252,-0.7072,0.9879,-0.0874,-0.0782,0.0951,-0.5308,-0.1258,0.0015,-0.0675,0.0721,-0.1534,-0.1774,-0.1421,-0.303,0.2992,-0.2927,0.3158,0.3079,-0.3066,0.165,-0.33,-0.202,-0.2669,0.2776,-0.2699,0.2887,-0.2443,0.1659,0.2685,0.7964,0.3904,-0.047,0.0658,-0.0281,-1.0,1.0,-1.0,1.0,-1.0,1.0,1.0,-1.0,1.0,-1.0,-1.0,1.0,1.0,0.3165,1.0,-1.0,-0.9755,1.0,0.0,0.0,0.0,0.0,0.0,0.0,0.0,0.0,0.0,0.3333,0.0,0.3333,0.0,0
2.2,run,11.44,3.01,-4.88,1.03,-22.56,0.0,0.05,0.0,1.95,9.58,-35.86,105.82,-13.97,-32.96,108.72,-9.84,-24.61,137.37,-13.8,6.94,87.28,-21.45,8.53,81.74,-13.18,19.07,77.26,-0.84,-25.04,94.37,-6.5,-43.86,118.71,2.98,-32.37,148.5,-26.89,-4.03,91.97,-15.5,10.5,85.25,-24.06,11.94,89.92,-1.0,1.0,-1.0,1.0,-1.0,1.0,1.0,0.9828,0.0464,-1.0,-1.0,0.8099,1.0,1.0,-0.9506,-1.0,-0.3595,1.0,0.013,0.026,0.026,0.052,0.0,0.084,0.019,0.033,1.95,0.065,0.0,0.019,0.019,0.0,0.013,0.013,0.006,0.104,0.0951,-0.9311,0.4863,-0.158,-0.7931,0.428,-0.3007,-0.7317,0.9971,-0.115,-0.1028,0.0844,-0.5062,-0.1488,0.0276,-0.1028,0.0721,-0.1319,-0.216,-0.088,-0.281,0.307,-0.2967,0.3186,0.3074,-0.3065,0.1499,-0.3343,-0.2332,-0.227,0.2862,-0.275,0.2996,-0.303,0.1162,0.2683,0.7713,0.39,-0.1059,-0.1174,-0.251,-1.0,1.0,-1.0,1.0,-1.0,1.0,1.0,-1.0,1.0,-1.0,-1.0,0.8963,1.0,1.0,0.0036,-1.0,-0.2125,1.0,0.0,0.0,0.0,0.0,0.0,0.0,0.0,0.0,0.0,0.3333,0.0,0.3333,0.0,0
2.24,run,11.27,2.8,-5.92,-6.58,-22.11,0.0,0.05,0.0,1.95,8.44,-34.98,104.77,-12.39,-34.28,110.21,-8.44,-25.93,137.37,-15.29,5.54,87.19,-20.04,7.82,82.97,-14.59,18.9,78.4,-2.34,-23.54,92.87,-5.0,-45.36,120.21,4.48,-30.87,147.0,-28.39,-5.53,93.47,-14.0,12.0,83.75,-25.56,10.44,91.42,-1.0,1.0,-1.0,1.0,-1.0,1.0,1.0,1.0,-0.715,-1.0,-1.0,0.686,1.0,1.0,-0.861,-1.0,-0.4443,1.0,0.013,0.026,0.026,0.052,0.0,0.084,0.019,0.033,1.95,0.065,0.0,0.019,0.019,0.0,0.013,0.013,0.006,0.104,0.0644,-0.9219,0.4617,-0.1319,-0.8176,0.4541,-0.2761,-0.7547,1.0002,-0.1381,-0.1227,0.0752,-0.4817,-0.1641,0.0522,-0.1243,0.0721,-0.1089,-0.2663,-0.0271,-0.2887,0.3127,-0.2998,0.3209,0.3072,-0.3008,0.1165,-0.3203,-0.2381,-0.1934,0.2924,-0.2501,0.3018,-0.2927,0.0813,0.2741,0.7581,0.3969,-0.0853,0.0181,-0.3938,-1.0,1.0,-1.0,1.0,-1.0,1.0,1.0,0.9828,0.0464,-1.0,-1.0,0.8099,1.0,1.0,-0.9506,-1.0,-0.3595,1.0,0.0,0.0,0.0,0.0,0.0,0.0,0.0,0.0,0.0,0.3333,0.0,0.3333,0.0,0
2.28,run,10.84,2.51,-10.49,-6.74,-17.81,0.0,0.05,0.0,1.95,6.94,-33.84,103.01,-10.9,-35.6,111.71,-7.03,-27.42,137.37,-16.7,4.04,87.36,-18.72,7.56,83.94,-16.08,17.93,79.72,-3.84,-22.04,91.37,-3.5,-46.86,121.71,5.98,-29.37,145.5,-29.89,-7.03,94.97,-12.5,13.5,82.25,-27.06,8.94,92.92,-1.0,1.0,-1.0,1.0,-1.0,1.0,1.0,1.0,-1.0,-1.0,-1.0,0.8184,1.0,1.0,-1.0,-1.0,-0.2606,1.0,0.013,0.026,0.026,0.052,0.0,0.084,0.019,0.033,1.95,0.065,0.0,0.019,0.019,0.0,0.013,0.013,0.006,0.104,0.0445,-0.9066,0.4433,-0.1043,-0.8406,0.4801,-0.2516,-0.7777,1.0002,-0.1641,-0.1473,0.0736,-0.4571,-0.1764,0.0736,-0.1488,0.069,-0.089,-0.2616,0.0389,-0.2715,0.323,-0.2966,0.3229,0.3076,-0.2973,0.0815,-0.3225,-0.2592,-0.1412,0.2972,-0.2213,0.2922,-0.2974,0.0454,0.2671,0.7433,0.3784,-0.1034,-0.1149,-0.3859,-1.0,1.0,-1.0,1.0,-1.0,1.0,1.0,1.0,-0.715,-1.0,-1.0,0.686,1.0,1.0,-0.861,-1.0,-0.4443,1.0,0.0,0.0,0.0,0.0,0.0,0.0,0.0,0.0,0.0,0.3333,0.0,0.3333,0.0,0
2.32,run,10.48,2.52,-10.31,-1.82,-10.36,0.0,0.05,0.0,2.574,5.62,-32.43,101.34,-9.49,-36.91,113.2,-5.62,-28.56,137.37,-18.11,2.81,88.15,-17.4,7.47,84.64,-17.4,16.7,81.12,-5.34,-20.54,89.87,-2.0,-48.36,123.21,7.48,-27.87,144.0,-31.39,-8.53,93.47,-11.0,15.0,80.75,-28.56,7.44,94.42,-1.0,1.0,-1.0,1.0,-1.0,1.0,1.0,1.0,-1.0,-1.0,-1.0,0.1319,1.0,1.0,-1.0,-1.0,-0.0949,1.0,0.013,0.039,0.013,0.019,0.006,0.052,0.013,0.013,2.574,0.045,0.0,0.026,0.019,0.071,0.0,0.019,0.0,0.097,0.0184,-0.8866,0.4126,-0.0782,-0.8636,0.5062,-0.227,-0.8038,1.0002,-0.1887,-0.1733,0.0767,-0.4341,-0.181,0.0905,-0.1749,0.0522,-0.066,-0.2803,0.1016,-0.3045,0.3233,-0.2934,0.3233,0.3068,-0.3054,0.0571,-0.3173,-0.2787,-0.0874,0.2938,-0.1721,0.2675,-0.3054,-0.0312,0.2728,0.7062,0.3527,-0.183,-0.1177,-0.3109,-1.0,1.0,-1.0,1.0,-1.0,1.0,1.0,1.0,-1.0,-1.0,-1.0,0.8184,1.0,1.0,-1.0,-1.0,-0.2606,1.0,0.0,0.0,0.0,0.0,0.0,0.0,0.0,0.0,0.0,0.3333,0.0,0.3333,0.0,0
2.46,tail,7.43,4.61,-13.04,8.74,-4.46,,0.0,0.0,2.574,-1.14,-27.51,95.19,-4.39,-44.38,118.04,0.0,-29.36,129.73,-23.29,-5.01,91.49,-12.92,8.17,81.74,-23.38,6.77,85.08,,,,,,,,,,,,,,,,,,,,,,,,,,,,,,,,,,,,,0.0,0.0,0.0,0.0,0.0,0.0,0.0,0.0,0.0,0.0,0.0,0.0,0.0,0.0,0.0,0.0,0.0,0.0,,,,,,,,,,,,,,,,,,,,,,,,,,,,,,,,,,,,,,,,,,,,,,,,,,,,,,,,,,,,,,,,,,,,,,,,,
2.56,tail,4.03,7.18,-28.2,21.6,-7.91,,0.0,0.0,2.574,-1.58,-27.6,95.1,-4.39,-43.86,116.89,0.0,-27.16,127.18,-22.24,-5.89,90.62,-13.01,1.93,78.22,-23.82,0.35,84.38,,,,,,,,,,,,,,,,,,,,,,,,,,,,,,,,,,,,,0.0,0.0,0.0,0.0,0.0,0.0,0.0,0.0,0.0,0.0,0.0,0.0,0.0,0.0,0.0,0.0,0.0,0.0,,,,,,,,,,,,,,,,,,,,,,,,,,,,,,,,,,,,,,,,,,,,,,,,,,,,,,,,,,,,,,,,,,,,,,,,,
2.66,tail,3.07,6.95,-7.85,-1.54,0.19,,0.0,0.0,2.574,-1.49,-27.51,95.1,-4.31,-43.77,116.81,0.0,-26.54,127.18,-21.18,-5.98,90.53,-13.01,-2.9,75.67,-23.82,-3.78,84.29,,,,,,,,,,,,,,,,,,,,,,,,,,,,,,,,,,,,,0.0,0.0,0.0,0.0,0.0,0.0,0.0,0.0,0.0,0.0,0.0,0.0,0.0,0.0,0.0,0.0,0.0,0.0,,,,,,,,,,,,,,,,,,,,,,,,,,,,,,,,,,,,,,,,,,,,,,,,,,,,,,,,,,,,,,,,,,,,,,,,,
2.76,tail,3.11,6.9,-0.19,-0.18,0.09,,0.0,0.0,2.574,-1.49,-27.51,95.1,-4.31,-43.68,116.81,0.0,-26.54,127.18,-20.3,-5.98,90.53,-13.01,-3.25,75.41,-23.82,-4.48,84.38,,,,,,,,,,,,,,,,,,,,,,,,,,,,,,,,,,,,,0.0,0.0,0.0,0.0,0.0,0.006,0.0,0.0,0.0,0.0,0.0,0.0,0.0,0.0,0.0,0.0,0.0,0.0,,,,,,,,,,,,,,,,,,,,,,,,,,,,,,,,,,,,,,,,,,,,,,,,,,,,,,,,,,,,,,,,,,,,,,,,,
2.86,tail,3.16,6.88,-0.14,0.05,0.0,,0.0,0.0,2.574,-1.49,-27.51,95.1,-4.31,-43.68,116.81,0.0,-26.54,127.18,-20.21,-5.98,90.53,-13.01,-3.25,75.41,-23.82,-4.48,84.38,,,,,,,,,,,,,,,,,,,,,,,,,,,,,,,,,,,,,0.0,0.0,0.0,0.0,0.0,0.0,0.0,0.006,0.0,0.0,0.0,0.0,0.0,0.0,0.0,0.0,0.0,0.0,,,,,,,,,,,,,,,,,,,,,,,,,,,,,,,,,,,,,,,,,,,,,,,,,,,,,,,,,,,,,,,,,,,,,,,,,
2.96,tail,3.21,6.86,-0.04,-0.03,0.01,,0.0,0.0,2.574,-1.49,-27.51,95.1,-4.31,-43.68,116.81,0.0,-26.54,127.18,-20.21,-5.98,90.53,-13.01,-3.25,75.41,-23.82,-4.48,84.38,,,,,,,,,,,,,,,,,,,,,,,,,,,,,,,,,,,,,0.0,0.0,0.0,0.0,0.0,0.0,0.0,0.0,0.0,0.0,0.0,0.0,0.0,0.0,0.0,0.0,0.0,0.0,,,,,,,,,,,,,,,,,,,,,,,,,,,,,,,,,,,,,,,,,,,,,,,,,,,,,,,,,,,,,,,,,,,,,,,,,
3.06,tail,3.28,6.84,0.03,-0.02,-0.02,,0.0,0.0,2.574,-1.49,-27.51,95.1,-4.31,-43.68,116.81,0.0,-26.54,127.18,-20.21,-5.98,90.53,-13.01,-3.25,75.41,-23.82,-4.48,84.38,,,,,,,,,,,,,,,,,,,,,,,,,,,,,,,,,,,,,0.0,0.0,0.0,0.0,0.0,0.0,0.0,0.0,0.0,0.0,0.0,0.0,0.0,0.0,0.0,0.0,0.0,0.0,,,,,,,,,,,,,,,,,,,,,,,,,,,,,,,,,,,,,,,,,,,,,,,,,,,,,,,,,,,,,,,,,,,,,,,,,
3.16,tail,3.34,6.82,0.05,-0.01,-0.04,,0.0,0.0,2.574,-1.49,-27.51,95.1,-4.31,-43.68,116.81,0.0,-26.54,127.18,-20.21,-5.98,90.53,-13.01,-3.25,75.41,-23.82,-4.48,84.38,,,,,,,,,,,,,,,,,,,,,,,,,,,,,,,,,,,,,0.0,0.0,0.0,0.0,0.0,0.0,0.0,0.0,0.0,0.0,0.0,0.0,0.0,0.0,0.0,0.0,0.0,0.0,,,,,,,,,,,,,,,,,,,,,,,,,,,,,,,,,,,,,,,,,,,,,,,,,,,,,,,,,,,,,,,,,,,,,,,,,
3.26,tail,3.39,6.8,-0.05,-0.01,-0.01,,0.0,0.0,2.574,-1.49,-27.51,95.1,-4.31,-43.68,116.81,0.0,-26.54,127.18,-20.21,-5.98,90.53,-13.01,-3.25,75.41,-23.82,-4.48,84.38,,,,,,,,,,,,,,,,,,,,,,,,,,,,,,,,,,,,,0.0,0.0,0.0,0.0,0.0,0.0,0.0,0.0,0.0,0.0,0.0,0.0,0.0,0.0,0.0,0.0,0.0,0.0,,,,,,,,,,,,,,,,,,,,,,,,,,,,,,,,,,,,,,,,,,,,,,,,,,,,,,,,,,,,,,,,,,,,,,,,,
3.36,tail,3.44,6.79,0.0,0.01,0.04,,0.0,0.0,2.574,-1.49,-27.51,95.1,-4.31,-43.68,116.81,0.0,-26.54,127.18,-20.21,-5.98,90.53,-13.01,-3.25,75.41,-23.82,-4.48,84.38,,,,,,,,,,,,,,,,,,,,,,,,,,,,,,,,,,,,,0.0,0.0,0.0,0.0,0.0,0.0,0.0,0.0,0.0,0.0,0.0,0.0,0.0,0.0,0.0,0.0,0.0,0.0,,,,,,,,,,,,,,,,,,,,,,,,,,,,,,,,,,,,,,,,,,,,,,,,,,,,,,,,,,,,,,,,,,,,,,,,,
3.46,tail,3.5,6.78,0.02,0.04,-0.04,,0.0,0.0,2.574,-1.49,-27.51,95.1,-4.31,-43.68,116.81,0.0,-26.54,127.18,-20.21,-5.98,90.53,-13.01,-3.25,75.41,-23.82,-4.48,84.38,,,,,,,,,,,,,,,,,,,,,,,,,,,,,,,,,,,,,0.0,0.0,0.0,0.0,0.0,0.0,0.0,0.0,0.0,0.0,0.0,0.0,0.0,0.0,0.0,0.0,0.0,0.0,,,,,,,,,,,,,,,,,,,,,,,,,,,,,,,,,,,,,,,,,,,,,,,,,,,,,,,,,,,,,,,,,,,,,,,,,
3.56,tail,3.56,6.76,0.02,-0.03,-0.02,,0.0,0.0,2.574,-1.49,-27.51,95.1,-4.31,-43.68,116.81,0.0,-26.54,127.18,-20.21,-5.98,90.53,-13.01,-3.25,75.41,-23.82,-4.48,84.38,,,,,,,,,,,,,,,,,,,,,,,,,,,,,,,,,,,,,0.0,0.0,0.0,0.0,0.0,0.0,0.0,0.0,0.0,0.0,0.0,0.0,0.0,0.0,0.0,0.0,0.0,0.0,,,,,,,,,,,,,,,,,,,,,,,,,,,,,,,,,,,,,,,,,,,,,,,,,,,,,,,,,,,,,,,,,,,,,,,,,
3.66,tail,3.61,6.74,0.0,0.04,-0.01,,0.0,0.0,2.574,-1.49,-27.51,95.1,-4.31,-43.68,116.81,0.0,-26.54,127.18,-20.21,-5.98,90.53,-13.01,-3.25,75.41,-23.82,-4.48,84.38,,,,,,,,,,,,,,,,,,,,,,,,,,,,,,,,,,,,,0.0,0.0,0.0,0.0,0.0,0.0,0.0,0.0,0.0,0.0,0.0,0.0,0.0,0.0,0.0,0.0,0.0,0.0,,,,,,,,,,,,,,,,,,,,,,,,,,,,,,,,,,,,,,,,,,,,,,,,,,,,,,,,,,,,,,,,,,,,,,,,,
3.76,tail,3.67,6.73,0.05,0.03,0.06,,0.0,0.0,2.574,-1.49,-27.51,95.1,-4.31,-43.68,116.81,0.0,-26.54,127.18,-20.21,-5.98,90.53,-13.01,-3.34,75.41,-23.82,-4.48,84.38,,,,,,,,,,,,,,,,,,,,,,,,,,,,,,,,,,,,,0.0,0.0,0.0,0.0,0.0,0.0,0.0,0.0,0.0,0.0,0.0,0.0,0.0,0.0,0.0,0.0,0.0,0.0,,,,,,,,,,,,,,,,,,,,,,,,,,,,,,,,,,,,,,,,,,,,,,,,,,,,,,,,,,,,,,,,,,,,,,,,,
3.86,tail,3.72,6.71,-0.01,-0.0,0.03,,0.0,0.0,2.574,-1.49,-27.51,95.1,-4.31,-43.68,116.81,0.0,-26.54,127.18,-20.21,-5.98,90.53,-13.01,-3.34,75.41,-23.82,-4.48,84.38,,,,,,,,,,,,,,,,,,,,,,,,,,,,,,,,,,,,,0.0,0.0,0.0,0.0,0.0,0.0,0.0,0.0,0.0,0.0,0.0,0.0,0.0,0.0,0.0,0.0,0.0,0.0,,,,,,,,,,,,,,,,,,,,,,,,,,,,,,,,,,,,,,,,,,,,,,,,,,,,,,,,,,,,,,,,,,,,,,,,,
3.96,tail,3.78,6.7,0.09,0.02,-0.01,,0.0,0.0,2.574,-1.49,-27.51,95.1,-4.31,-43.68,116.81,0.0,-26.54,127.18,-20.21,-5.98,90.53,-13.01,-3.34,75.41,-23.82,-4.48,84.38,,,,,,,,,,,,,,,,,,,,,,,,,,,,,,,,,,,,,0.0,0.0,0.0,0.0,0.0,0.0,0.0,0.0,0.0,0.0,0.0,0.0,0.0,0.0,0.0,0.0,0.0,0.0,,,,,,,,,,,,,,,,,,,,,,,,,,,,,,,,,,,,,,,,,,,,,,,,,,,,,,,,,,,,,,,,,,,,,,,,,
4.06,tail,3.83,6.69,-0.01,0.0,-0.03,,0.0,0.0,2.574,-1.49,-27.51,95.1,-4.31,-43.68,116.81,0.0,-26.54,127.18,-20.21,-5.98,90.53,-13.01,-3.34,75.41,-23.82,-4.48,84.38,,,,,,,,,,,,,,,,,,,,,,,,,,,,,,,,,,,,,0.0,0.0,0.0,0.0,0.0,0.0,0.0,0.0,0.0,0.0,0.0,0.0,0.0,0.0,0.0,0.0,0.0,0.0,,,,,,,,,,,,,,,,,,,,,,,,,,,,,,,,,,,,,,,,,,,,,,,,,,,,,,,,,,,,,,,,,,,,,,,,,
4.16,tail,3.88,6.68,0.03,0.03,0.03,,0.0,0.0,2.574,-1.49,-27.51,95.1,-4.31,-43.68,116.81,0.0,-26.54,127.18,-20.21,-5.98,90.53,-13.01,-3.34,75.41,-23.82,-4.48,84.38,,,,,,,,,,,,,,,,,,,,,,,,,,,,,,,,,,,,,0.0,0.0,0.0,0.0,0.0,0.0,0.0,0.0,0.0,0.0,0.0,0.0,0.0,0.0,0.0,0.0,0.0,0.0,,,,,,,,,,,,,,,,,,,,,,,,,,,,,,,,,,,,,,,,,,,,,,,,,,,,,,,,,,,,,,,,,,,,,,,,,
4.26,tail,3.93,6.66,0.03,-0.03,0.05,,0.0,0.0,2.574,-1.49,-27.51,95.1,-4.31,-43.68,116.81,0.0,-26.54,127.18,-20.21,-5.98,90.53,-13.01,-3.34,75.41,-23.82,-4.48,84.38,,,,,,,,,,,,,,,,,,,,,,,,,,,,,,,,,,,,,0.0,0.0,0.0,0.0,0.0,0.0,0.0,0.0,0.0,0.0,0.0,0.0,0.0,0.0,0.0,0.0,0.0,0.0,,,,,,,,,,,,,,,,,,,,,,,,,,,,,,,,,,,,,,,,,,,,,,,,,,,,,,,,,,,,,,,,,,,,,,,,,
4.36,tail,3.97,6.65,0.02,0.07,0.01,,0.0,0.0,2.574,-1.49,-27.51,95.1,-4.31,-43.68,116.81,0.0,-26.54,127.18,-20.21,-5.98,90.53,-13.01,-3.34,75.41,-23.82,-4.48,84.38,,,,,,,,,,,,,,,,,,,,,,,,,,,,,,,,,,,,,0.0,0.0,0.0,0.0,0.0,0.0,0.0,0.0,0.0,0.0,0.0,0.0,0.0,0.0,0.0,0.0,0.0,0.0,,,,,,,,,,,,,,,,,,,,,,,,,,,,,,,,,,,,,,,,,,,,,,,,,,,,,,,,,,,,,,,,,,,,,,,,,
4.46,tail,4.01,6.64,-0.03,0.0,0.0,,0.0,0.0,2.574,-1.49,-27.51,95.1,-4.31,-43.68,116.81,0.0,-26.54,127.18,-20.21,-5.98,90.53,-13.01,-3.34,75.41,-23.82,-4.48,84.38,,,,,,,,,,,,,,,,,,,,,,,,,,,,,,,,,,,,,0.0,0.0,0.0,0.0,0.0,0.0,0.0,0.0,0.0,0.0,0.0,0.0,0.0,0.0,0.0,0.0,0.0,0.0,,,,,,,,,,,,,,,,,,,,,,,,,,,,,,,,,,,,,,,,,,,,,,,,,,,,,,,,,,,,,,,,,,,,,,,,,
4.56,tail,4.06,6.63,0.01,-0.02,0.0,,0.0,0.0,2.574,-1.49,-27.51,95.1,-4.31,-43.68,116.81,0.0,-26.54,127.18,-20.21,-5.98,90.53,-13.01,-3.34,75.41,-23.82,-4.48,84.38,,,,,,,,,,,,,,,,,,,,,,,,,,,,,,,,,,,,,0.0,0.0,0.0,0.0,0.0,0.0,0.0,0.0,0.0,0.0,0.0,0.0,0.0,0.0,0.0,0.0,0.0,0.0,,,,,,,,,,,,,,,,,,,,,,,,,,,,,,,,,,,,,,,,,,,,,,,,,,,,,,,,,,,,,,,,,,,,,,,,,
4.66,tail,4.1,6.62,-0.08,0.02,0.0,,0.0,0.0,2.574,-1.49,-27.51,95.1,-4.31,-43.68,116.81,0.0,-26.54,127.18,-20.21,-5.98,90.53,-13.01,-3.34,75.41,-23.82,-4.48,84.38,,,,,,,,,,,,,,,,,,,,,,,,,,,,,,,,,,,,,0.0,0.0,0.0,0.0,0.0,0.0,0.0,0.0,0.0,0.0,0.0,0.0,0.0,0.0,0.0,0.0,0.0,0.0,,,,,,,,,,,,,,,,,,,,,,,,,,,,,,,,,,,,,,,,,,,,,,,,,,,,,,,,,,,,,,,,,,,,,,,,,
4.76,tail,4.13,6.6,-0.05,-0.0,-0.01,,0.0,0.0,2.574,-1.49,-27.51,95.1,-4.31,-43.68,116.81,0.0,-26.54,127.18,-20.21,-5.98,90.53,-13.01,-3.34,75.41,-23.82,-4.48,84.38,,,,,,,,,,,,,,,,,,,,,,,,,,,,,,,,,,,,,0.0,0.0,0.0,0.0,0.0,0.0,0.0,0.0,0.0,0.0,0.0,0.0,0.0,0.0,0.0,0.0,0.0,0.0,,,,,,,,,,,,,,,,,,,,,,,,,,,,,,,,,,,,,,,,,,,,,,,,,,,,,,,,,,,,,,,,,,,,,,,,,
4.86,tail,4.18,6.58,0.05,-0.05,0.03,,0.0,0.0,2.574,-1.49,-27.51,95.1,-4.31,-43.68,116.81,0.0,-26.54,127.18,-20.21,-5.98,90.53,-13.01,-3.34,75.41,-23.82,-4.48,84.38,,,,,,,,,,,,,,,,,,,,,,,,,,,,,,,,,,,,,0.0,0.0,0.0,0.0,0.0,0.0,0.0,0.0,0.0,0.0,0.0,0.0,0.0,0.0,0.0,0.0,0.0,0.0,,,,,,,,,,,,,,,,,,,,,,,,,,,,,,,,,,,,,,,,,,,,,,,,,,,,,,,,,,,,,,,,,,,,,,,,,
4.96,tail,4.21,6.57,-0.01,-0.02,0.03,,0.0,0.0,2.574,-1.49,-27.51,95.1,-4.31,-43.68,116.81,0.0,-26.54,127.18,-20.21,-5.98,90.53,-13.01,-3.34,75.41,-23.82,-4.48,84.38,,,,,,,,,,,,,,,,,,,,,,,,,,,,,,,,,,,,,0.0,0.0,0.0,0.0,0.0,0.0,0.0,0.0,0.0,0.0,0.0,0.0,0.0,0.0,0.0,0.0,0.0,0.0,,,,,,,,,,,,,,,,,,,,,,,,,,,,,,,,,,,,,,,,,,,,,,,,,,,,,,,,,,,,,,,,,,,,,,,,,
5.06,tail,4.25,6.56,0.02,0.05,0.05,,0.0,0.0,2.574,-1.49,-27.51,95.1,-4.31,-43.68,116.81,0.0,-26.54,127.18,-20.21,-5.98,90.53,-13.01,-3.34,75.41,-23.82,-4.48,84.38,,,,,,,,,,,,,,,,,,,,,,,,,,,,,,,,,,,,,0.0,0.0,0.0,0.0,0.0,0.0,0.0,0.0,0.0,0.0,0.0,0.0,0.0,0.0,0.0,0.0,0.0,0.0,,,,,,,,,,,,,,,,,,,,,,,,,,,,,,,,,,,,,,,,,,,,,,,,,,,,,,,,,,,,,,,,,,,,,,,,,
5.16,tail,4.3,6.55,0.02,-0.01,0.08,,0.0,0.0,2.574,-1.49,-27.51,95.1,-4.31,-43.68,116.81,0.0,-26.54,127.18,-20.21,-5.98,90.53,-13.01,-3.34,75.41,-23.82,-4.48,84.38,,,,,,,,,,,,,,,,,,,,,,,,,,,,,,,,,,,,,0.0,0.0,0.0,0.0,0.0,0.0,0.0,0.0,0.0,0.0,0.0,0.0,0.0,0.0,0.0,0.0,0.0,0.0,,,,,,,,,,,,,,,,,,,,,,,,,,,,,,,,,,,,,,,,,,,,,,,,,,,,,,,,,,,,,,,,,,,,,,,,,
5.26,tail,4.34,6.54,0.02,0.03,-0.03,,0.0,0.0,2.574,-1.49,-27.51,95.1,-4.31,-43.68,116.81,0.0,-26.54,127.18,-20.21,-5.98,90.53,-13.01,-3.34,75.41,-23.82,-4.48,84.38,,,,,,,,,,,,,,,,,,,,,,,,,,,,,,,,,,,,,0.0,0.0,0.0,0.0,0.0,0.0,0.0,0.0,0.0,0.0,0.0,0.0,0.0,0.0,0.0,0.0,0.0,0.0,,,,,,,,,,,,,,,,,,,,,,,,,,,,,,,,,,,,,,,,,,,,,,,,,,,,,,,,,,,,,,,,,,,,,,,,,
5.36,tail,4.37,6.52,-0.01,-0.06,0.04,,0.0,0.0,2.574,-1.49,-27.51,95.1,-4.31,-43.68,116.81,0.0,-26.54,127.18,-20.21,-5.98,90.53,-13.01,-3.34,75.41,-23.82,-4.48,84.38,,,,,,,,,,,,,,,,,,,,,,,,,,,,,,,,,,,,,0.0,0.0,0.0,0.0,0.0,0.0,0.0,0.0,0.0,0.0,0.0,0.0,0.0,0.0,0.0,0.0,0.0,0.0,,,,,,,,,,,,,,,,,,,,,,,,,,,,,,,,,,,,,,,,,,,,,,,,,,,,,,,,,,,,,,,,,,,,,,,,,
