t_s,phase,roll_deg,pitch_deg,gyro_x_dps,gyro_y_dps,gyro_z_dps,height_ref_mm,vx_ref_mps,vy_ref_mps,max_cur_a,q0_deg,q1_deg,q2_deg,q3_deg,q4_deg,q5_deg,q6_deg,q7_deg,q8_deg,q9_deg,q10_deg,q11_deg,q12_deg,q13_deg,q14_deg,q15_deg,q16_deg,q17_deg,cmd0_deg,cmd1_deg,cmd2_deg,cmd3_deg,cmd4_deg,cmd5_deg,cmd6_deg,cmd7_deg,cmd8_deg,cmd9_deg,cmd10_deg,cmd11_deg,cmd12_deg,cmd13_deg,cmd14_deg,cmd15_deg,cmd16_deg,cmd17_deg,act0,act1,act2,act3,act4,act5,act6,act7,act8,act9,act10,act11,act12,act13,act14,act15,act16,act17,cur0_a,cur1_a,cur2_a,cur3_a,cur4_a,cur5_a,cur6_a,cur7_a,cur8_a,cur9_a,cur10_a,cur11_a,cur12_a,cur13_a,cur14_a,cur15_a,cur16_a,cur17_a,obs0,obs1,obs2,obs3,obs4,obs5,obs6,obs7,obs8,obs9,obs10,obs11,obs12,obs13,obs14,obs15,obs16,obs17,obs18,obs19,obs20,obs21,obs22,obs23,obs24,obs25,obs26,obs27,obs28,obs29,obs30,obs31,obs32,obs33,obs34,obs35,obs36,obs37,obs38,obs39,obs40,obs41,obs42,obs43,obs44,obs45,obs46,obs47,obs48,obs49,obs50,obs51,obs52,obs53,obs54,obs55,obs56,obs57,obs58,obs59,obs60,obs61,obs62,obs63,obs64,obs65,obs66,obs67,obs68,obs69,obs70,obs71,rot60_k
0.0,run,-0.54,0.87,0.19,0.65,0.96,0.0,-0.0,0.0,0.019,-0.09,19.25,79.54,0.18,16.52,79.28,-0.44,19.42,79.72,0.09,16.79,78.75,-0.09,18.54,79.63,0.0,17.58,78.75,-1.59,17.75,77.95,-1.32,15.2,80.51,1.06,17.92,81.22,1.59,15.55,80.34,1.41,17.22,78.13,-1.5,16.25,80.16,-1.0,-1.0,-0.3783,-1.0,-1.0,1.0,1.0,-1.0,1.0,1.0,-1.0,1.0,0.2172,-1.0,-0.3395,-1.0,-1.0,1.0,0.019,0.006,0.006,0.006,0.0,0.006,0.006,0.013,0.006,0.006,0.0,0.013,0.013,0.006,0.013,0.019,0.006,0.006,0.0,0.0,0.0015,0.0,-0.0031,0.0046,0.0,0.0,0.0,0.0,-0.0046,-0.0015,0.0,-0.0031,0.0015,0.0,-0.0031,0.0015,0.0,0.0,0.0038,0.0,-0.0075,0.0113,0.0,0.0,0.0,0.0,-0.0113,-0.0032,0.0,-0.007,0.0038,0.0,-0.0075,0.0038,0.0,0.0,0.0011,-0.0059,0.0152,0.0,0.0,0.0,0.0,0.0,0.0,0.0,0.0,0.0,0.0,0.0,0.0,0.0,0.0,0.0,0.0,0.0,0.0,0.0,0.0,0.0,0.0,0.0,0.0,0.0,0.0,0.0,-0.0,0.0,-0.0,0.0,0
0.04,run,-0.58,0.88,0.21,-0.48,0.22,0.0,-0.0,0.0,0.019,-0.35,19.07,79.37,0.09,16.44,79.63,-0.44,19.07,79.8,0.18,16.52,79.1,-0.09,18.28,79.37,-0.26,17.49,78.84,-3.09,19.25,79.45,-2.82,13.7,82.01,-0.44,16.42,79.72,3.09,14.05,81.84,-0.09,15.72,79.63,-3.0,14.75,81.66,-1.0,1.0,1.0,-1.0,-1.0,1.0,-1.0,-1.0,-1.0,1.0,-1.0,1.0,-1.0,0.2451,1.0,-1.0,-1.0,1.0,0.019,0.006,0.006,0.006,0.0,0.006,0.006,0.013,0.006,0.006,0.0,0.013,0.013,0.006,0.013,0.019,0.006,0.006,0.0,0.0,0.0015,0.0,-0.0031,0.0046,0.0,0.0,0.0,0.0,-0.0046,-0.0015,0.0,-0.0031,0.0,0.0,-0.0031,0.0015,0.0,0.0,0.0026,0.0,-0.0053,0.0079,0.0,0.0,0.0,0.0,-0.0079,-0.0022,0.0,-0.0049,0.0001,0.0,-0.0053,0.0026,0.0011,0.0045,0.0033,0.0114,0.0167,-1.0,-1.0,-0.3783,-1.0,-1.0,1.0,1.0,-1.0,1.0,1.0,-1.0,1.0,0.2172,-1.0,-0.3395,-1.0,-1.0,1.0,0.0,0.0,0.0,0.0,0.0,0.0,0.0,0.0,0.0,-0.0,0.0,-0.0,0.0,0
0.08,run,-0.77,0.96,-3.3,1.42,2.15,0.0,-0.0,0.0,0.019,-1.23,18.54,78.75,-0.18,15.82,80.24,0.09,18.28,80.33,1.05,15.91,79.63,0.79,17.75,79.01,-0.97,16.88,79.37,-4.59,20.75,80.69,-4.32,12.2,83.51,-1.94,17.92,81.22,4.59,12.55,83.34,-1.59,17.22,81.13,-4.5,13.25,83.16,-0.322,1.0,0.1846,-1.0,-1.0,0.4945,-1.0,1.0,1.0,1.0,-1.0,1.0,-0.7877,1.0,1.0,-1.0,-1.0,1.0,0.019,0.006,0.006,0.006,0.0,0.006,0.006,0.013,0.006,0.006,0.0,0.013,0.013,0.006,0.013,0.019,0.006,0.006,-0.0046,-0.0031,-0.0015,-0.0015,-0.0046,0.0107,0.0,-0.0061,0.0015,0.0015,-0.0092,0.0046,0.0,-0.0077,-0.0046,-0.0046,-0.0046,0.0031,-0.0173,-0.0115,-0.0097,-0.0058,-0.0095,0.0286,0.0,-0.0231,0.0058,0.0058,-0.0228,0.0215,0.0,-0.0207,-0.0172,-0.0173,-0.0095,0.0076,-0.0024,0.0048,0.0037,-0.0083,0.0038,-1.0,1.0,1.0,-1.0,-1.0,1.0,-1.0,-1.0,-1.0,1.0,-1.0,1.0,-1.0,0.2451,1.0,-1.0,-1.0,1.0,0.0,0.0,0.0,0.0,0.0,0.0,0.0,0.0,0.0,-0.0,0.0,-0.0,0.0,0
0.12,run,-0.72,0.99,2.73,-0.2,-1.11,0.0,-0.0,0.0,0.033,-2.29,18.28,78.57,-1.14,14.85,81.21,0.35,17.58,80.77,2.02,15.03,80.68,0.88,16.79,78.75,-1.85,16.0,80.24,-6.09,22.25,79.19,-5.82,10.7,85.01,-3.44,19.42,82.72,6.09,11.05,84.84,-0.09,15.72,79.63,-6.0,11.75,84.66,-1.0,1.0,0.1593,-1.0,-1.0,1.0,-1.0,1.0,1.0,1.0,-1.0,1.0,0.9362,0.1948,-1.0,-1.0,-1.0,1.0,0.013,0.006,0.0,0.013,0.006,0.0,0.0,0.006,0.0,0.019,0.0,0.019,0.006,0.019,0.006,0.033,0.006,0.013,-0.0199,-0.0123,-0.0123,-0.0061,-0.0153,0.0215,0.0092,-0.0199,0.0107,0.0169,-0.0199,0.0138,0.0153,-0.0169,-0.0107,-0.0169,-0.0153,0.0123,-0.0698,-0.0427,-0.0472,-0.0213,-0.047,0.0604,0.0346,-0.0681,0.0386,0.0617,-0.0564,0.0497,0.0577,-0.0491,-0.0351,-0.0583,-0.047,0.0399,-0.0186,0.0122,-0.0577,0.0249,0.0375,-0.322,1.0,0.1846,-1.0,-1.0,0.4945,-1.0,1.0,1.0,1.0,-1.0,1.0,-0.7877,1.0,1.0,-1.0,-1.0,1.0,0.0,0.0,0.0,0.0,0.0,0.0,0.0,0.0,0.0,-0.0,0.0,-0.0,0.0,0
0.16,run,-0.95,1.04,-4.27,0.7,-8.92,0.0,-0.0,0.0,0.033,-3.52,18.28,78.57,-2.64,13.62,82.71,0.26,17.31,81.3,3.34,13.71,82.0,0.7,16.17,79.19,-3.34,14.68,80.95,-7.59,23.75,77.69,-7.32,9.2,86.51,-4.94,17.92,81.22,7.59,9.55,86.34,1.41,17.22,81.13,-7.5,10.25,86.16,-1.0,1.0,-0.1856,-1.0,-1.0,1.0,-0.7245,-0.0086,-0.4648,1.0,-1.0,1.0,1.0,1.0,1.0,-1.0,-1.0,1.0,0.013,0.006,0.0,0.013,0.006,0.0,0.0,0.006,0.0,0.019,0.0,0.019,0.006,0.019,0.006,0.033,0.006,0.013,-0.0383,-0.0169,-0.0153,-0.023,-0.0322,0.0383,0.0138,-0.0322,0.0184,0.0337,-0.0353,0.0322,0.0169,-0.0337,-0.0153,-0.0322,-0.0307,0.0276,-0.1175,-0.047,-0.0444,-0.0778,-0.0958,0.1052,0.0414,-0.0934,0.0556,0.1061,-0.0966,0.1034,0.0461,-0.0973,-0.0417,-0.0979,-0.0901,0.0851,-0.0145,0.015,0.0476,-0.0035,-0.0194,-1.0,1.0,0.1593,-1.0,-1.0,1.0,-1.0,1.0,1.0,1.0,-1.0,1.0,0.9362,0.1948,-1.0,-1.0,-1.0,1.0,0.0,0.0,0.0,0.0,0.0,0.0,0.0,0.0,0.0,-0.0,0.0,-0.0,0.0,0
0.2,run,-0.98,0.45,3.48,-17.73,-5.07,0.0,-0.0,0.0,0.033,-4.83,18.37,79.01,-3.78,12.39,83.67,0.0,17.49,81.91,4.39,12.39,83.23,0.0,15.64,79.54,-4.48,13.71,82.62,-9.09,25.25,79.19,-8.82,7.7,88.01,-6.44,19.42,82.72,9.09,8.05,87.84,2.91,15.72,82.63,-9.0,8.75,87.66,-0.9029,1.0,1.0,-1.0,-1.0,1.0,-1.0,1.0,0.5708,1.0,-1.0,1.0,1.0,-0.1684,1.0,-1.0,-1.0,1.0,0.013,0.006,0.0,0.013,0.006,0.0,0.0,0.006,0.0,0.019,0.0,0.019,0.006,0.019,0.006,0.033,0.006,0.013,-0.0598,-0.0169,-0.0153,-0.0491,-0.0537,0.0644,0.0123,-0.0368,0.0276,0.0568,-0.0583,0.0552,0.0138,-0.0445,-0.0077,-0.0583,-0.0537,0.0399,-0.1498,-0.0329,-0.0311,-0.1365,-0.1346,0.1557,0.0241,-0.0798,0.0679,0.1467,-0.14,0.1448,0.0226,-0.1019,-0.0051,-0.1506,-0.1355,0.0982,-0.0344,0.0195,-0.0745,0.0122,-0.1557,-1.0,1.0,-0.1856,-1.0,-1.0,1.0,-0.7245,-0.0086,-0.4648,1.0,-1.0,1.0,1.0,1.0,1.0,-1.0,-1.0,1.0,0.0,0.0,0.0,0.0,0.0,0.0,0.0,0.0,0.0,-0.0,0.0,-0.0,0.0,0
0.24,run,-1.21,0.17,-4.76,-6.39,-8.76,0.0,-0.0,0.0,0.071,-5.98,18.98,79.01,-5.01,11.07,84.99,-0.97,18.02,82.44,5.71,11.07,84.55,0.09,15.56,80.16,-5.89,13.01,83.85,-10.59,23.75,77.69,-10.32,6.2,89.51,-7.94,20.92,81.22,10.59,6.55,89.34,4.41,17.22,84.13,-10.5,7.25,89.16,-0.7798,-1.0,0.1369,-1.0,-1.0,1.0,-1.0,1.0,-0.6445,1.0,-1.0,1.0,1.0,1.0,0.2594,-1.0,-1.0,1.0,0.006,0.071,0.0,0.019,0.006,0.013,0.013,0.006,0.006,0.026,0.0,0.026,0.0,0.039,0.039,0.019,0.039,0.013,-0.0828,-0.0153,-0.0077,-0.069,-0.0752,0.0813,0.0077,-0.0337,0.0383,0.0752,-0.0813,0.0767,0.0015,-0.0537,-0.0015,-0.0782,-0.0706,0.069,-0.1905,-0.0173,0.0068,-0.1698,-0.1741,0.1717,-0.0002,-0.0445,0.0875,0.1711,-0.1836,0.1812,-0.0298,-0.1056,0.0193,-0.1796,-0.1576,0.1772,-0.0372,-0.0323,0.0608,-0.3094,-0.0884,-0.9029,1.0,1.0,-1.0,-1.0,1.0,-1.0,1.0,0.5708,1.0,-1.0,1.0,1.0,-0.1684,1.0,-1.0,-1.0,1.0,0.0,0.0,0.0,0.0,0.0,0.0,0.0,0.0,0.0,-0.0,0.0,-0.0,0.0,0
0.28,run,-1.24,-0.56,-1.71,-14.55,-2.19,0.0,-0.0,0.0,0.071,-7.82,20.04,79.01,-6.77,9.58,86.75,-2.64,19.25,82.53,7.38,9.4,86.13,0.7,15.47,81.21,-7.73,11.07,85.52,-12.09,25.25,79.19,-11.82,4.7,91.01,-9.44,22.42,79.72,12.09,5.05,90.84,5.91,15.72,85.63,-12.0,5.75,90.66,-1.0,1.0,1.0,-1.0,-0.4953,1.0,-1.0,1.0,-1.0,1.0,-1.0,1.0,1.0,0.4831,0.7403,-1.0,-1.0,1.0,0.006,0.071,0.0,0.019,0.006,0.013,0.013,0.006,0.006,0.026,0.0,0.026,0.0,0.039,0.039,0.019,0.039,0.013,-0.1028,-0.0046,-0.0077,-0.0905,-0.0982,0.1043,-0.0092,-0.0245,0.0476,0.0982,-0.1043,0.0997,0.0031,-0.0552,0.0092,-0.1028,-0.0828,0.0905,-0.2081,0.0282,0.0047,-0.1994,-0.2082,0.2066,-0.0635,0.0034,0.0958,0.2061,-0.2149,0.2132,-0.0151,-0.0796,0.0538,-0.2178,-0.1564,0.2046,-0.0576,-0.0571,-0.0831,-0.1114,-0.1529,-0.7798,-1.0,0.1369,-1.0,-1.0,1.0,-1.0,1.0,-0.6445,1.0,-1.0,1.0,1.0,1.0,0.2594,-1.0,-1.0,1.0,0.0,0.0,0.0,0.0,0.0,0.0,0.0,0.0,0.0,-0.0,0.0,-0.0,0.0,0
0.32,run,-1.27,-1.0,-2.57,-11.59,-0.88,0.0,-0.0,0.0,0.071,-8.88,20.74,78.57,-8.0,8.26,87.89,-3.96,20.13,82.53,8.61,8.0,87.45,1.49,15.64,82.18,-8.88,9.76,86.84,-13.59,23.75,77.69,-13.32,3.2,89.51,-10.94,23.92,78.22,13.59,3.55,92.34,7.41,17.22,87.13,-13.5,4.25,92.16,-1.0,-1.0,-0.0302,-1.0,-1.0,-1.0,-1.0,1.0,-1.0,1.0,-1.0,1.0,1.0,0.9099,0.3113,-1.0,-1.0,1.0,0.006,0.071,0.0,0.019,0.006,0.013,0.013,0.006,0.006,0.026,0.0,0.026,0.0,0.039,0.039,0.019,0.039,0.013,-0.135,0.0138,-0.0077,-0.1212,-0.1243,0.135,-0.0383,-0.0031,0.0491,0.1273,-0.1335,0.1273,0.0138,-0.0568,0.0276,-0.135,-0.1166,0.1197,-0.2449,0.0764,0.0033,-0.2341,-0.2261,0.2391,-0.1342,0.0685,0.0718,0.2341,-0.2402,0.2343,0.0225,-0.0605,0.0943,-0.2517,-0.2134,0.233,-0.0597,-0.1202,-0.0298,-0.254,-0.0382,-1.0,1.0,1.0,-1.0,-0.4953,1.0,-1.0,1.0,-1.0,1.0,-1.0,1.0,1.0,0.4831,0.7403,-1.0,-1.0,1.0,0.0,0.0,0.0,0.0,0.0,0.0,0.0,0.0,0.0,-0.0,0.0,-0.0,0.0,0
0.36,run,-0.93,-1.78,7.45,-22.27,3.4,0.0,-0.0,0.0,0.123,-10.28,21.53,78.13,-9.32,6.94,89.03,-5.36,21.18,81.83,9.93,6.77,88.59,2.37,16.08,83.5,-10.28,8.53,88.59,-15.09,22.25,79.19,-14.82,1.7,91.01,-12.44,25.42,76.72,15.09,2.05,93.84,5.91,15.72,85.63,-15.0,2.75,93.66,-1.0,-1.0,1.0,-1.0,-0.1351,1.0,-1.0,1.0,-1.0,1.0,-1.0,1.0,-0.6661,-0.221,0.1824,-1.0,-1.0,1.0,0.019,0.123,0.0,0.026,0.006,0.0,0.006,0.019,0.045,0.033,0.0,0.045,0.013,0.045,0.039,0.006,0.033,0.006,-0.1534,0.0261,-0.0153,-0.1427,-0.1473,0.1549,-0.0614,0.0123,0.0491,0.1488,-0.158,0.1503,0.0276,-0.0537,0.0445,-0.1549,-0.1396,0.1427,-0.2399,0.0991,-0.0262,-0.2437,-0.2438,0.2415,-0.1795,0.105,0.0502,0.2437,-0.2593,0.2495,0.067,-0.0309,0.1287,-0.2503,-0.2349,0.2486,-0.0625,-0.159,-0.0449,-0.2023,-0.0153,-1.0,-1.0,-0.0302,-1.0,-1.0,-1.0,-1.0,1.0,-1.0,1.0,-1.0,1.0,1.0,0.9099,0.3113,-1.0,-1.0,1.0,0.0,0.0,0.0,0.0,0.0,0.0,0.0,0.0,0.0,-0.0,0.0,-0.0,0.0,0
0.4,run,-0.64,-2.36,5.7,-17.39,9.17,0.0,-0.0,0.0,0.123,-11.78,22.41,78.05,-10.63,5.62,90.09,-6.77,22.59,80.95,11.34,5.45,90.0,3.96,16.08,84.73,-11.69,7.12,89.56,-16.59,20.75,80.69,-16.32,0.2,89.51,-13.94,26.92,75.22,16.59,0.55,95.34,4.41,17.22,87.13,-16.5,1.25,95.16,-0.6927,-1.0,0.2893,-1.0,-1.0,-0.9472,-1.0,1.0,-0.7675,1.0,-0.6372,1.0,-0.0875,1.0,0.7295,-1.0,-1.0,1.0,0.019,0.123,0.0,0.026,0.006,0.0,0.006,0.019,0.045,0.033,0.0,0.045,0.013,0.045,0.039,0.006,0.033,0.006,-0.1779,0.0399,-0.023,-0.1657,-0.1703,0.1749,-0.0859,0.0307,0.0368,0.1718,-0.1795,0.1703,0.043,-0.046,0.0675,-0.1795,-0.1611,0.1733,-0.26,0.1211,-0.0471,-0.2569,-0.2569,0.2438,-0.2177,0.1425,-0.0109,0.2569,-0.2621,0.2495,0.1045,0.0071,0.1764,-0.2673,-0.245,0.2891,-0.0326,-0.2272,0.13,-0.3887,0.0593,-1.0,-1.0,1.0,-1.0,-0.1351,1.0,-1.0,1.0,-1.0,1.0,-1.0,1.0,-0.6661,-0.221,0.1824,-1.0,-1.0,1.0,0.0,0.0,0.0,0.0,0.0,0.0,0.0,0.0,0.0,-0.0,0.0,-0.0,0.0,0
0.44,run,-0.31,-2.97,8.03,-16.81,3.77,0.0,-0.0,0.0,0.123,-13.1,22.94,78.13,-12.04,4.22,90.7,-8.17,23.82,79.89,12.83,3.96,91.49,4.75,16.08,85.69,-13.01,5.71,91.05,-18.09,19.25,82.19,-17.82,-1.3,88.01,-15.44,28.42,73.72,18.09,-0.95,96.84,2.91,18.72,85.63,-18.0,-0.25,96.66,-1.0,-1.0,0.8489,-1.0,-0.5961,0.062,-1.0,1.0,-0.2454,1.0,-0.1597,1.0,-0.336,1.0,-0.4533,-1.0,-1.0,1.0,0.019,0.123,0.0,0.026,0.006,0.0,0.006,0.019,0.045,0.033,0.0,0.045,0.013,0.045,0.039,0.006,0.033,0.006,-0.204,0.0552,-0.0245,-0.1887,-0.1933,0.1933,-0.1104,0.0552,0.0215,0.1963,-0.2025,0.1948,0.0706,-0.046,0.089,-0.204,-0.1856,0.1902,-0.2803,0.1427,-0.0388,-0.2666,-0.2666,0.2401,-0.2449,0.1923,-0.0655,0.2724,-0.2702,0.2672,0.1773,0.005,0.2045,-0.2796,-0.264,0.266,-0.0077,-0.278,0.0994,-0.3034,0.1601,-0.6927,-1.0,0.2893,-1.0,-1.0,-0.9472,-1.0,1.0,-0.7675,1.0,-0.6372,1.0,-0.0875,1.0,0.7295,-1.0,-1.0,1.0,0.0,0.0,0.0,0.0,0.0,0.0,0.0,0.0,0.0,-0.0,0.0,-0.0,0.0,0
0.48,run,0.19,-3.39,14.26,-12.18,1.64,0.0,-0.0,0.0,0.123,-14.5,23.03,78.22,-13.54,2.81,90.97,-9.67,25.14,78.84,14.24,2.55,92.99,5.45,16.08,86.31,-14.5,4.31,92.46,-19.59,17.75,80.69,-19.32,-2.8,89.51,-16.94,29.92,72.22,19.59,0.55,98.34,1.41,20.22,84.13,-19.5,-1.75,95.16,-1.0,-1.0,-0.0859,-1.0,-0.1724,0.3626,-1.0,1.0,-0.6916,1.0,0.7023,1.0,-0.371,1.0,-0.5456,-1.0,-1.0,0.0415,0.013,0.033,0.019,0.019,0.013,0.006,0.006,0.019,0.111,0.026,0.0,0.019,0.006,0.111,0.026,0.013,0.033,0.013,-0.227,0.0644,-0.023,-0.2132,-0.2178,0.204,-0.135,0.0767,0.0031,0.2224,-0.2286,0.2209,0.0844,-0.046,0.1058,-0.227,-0.2102,0.2163,-0.282,0.1342,-0.0214,-0.2781,-0.2782,0.2081,-0.263,0.2147,-0.1145,0.2879,-0.2864,0.2843,0.1756,0.0035,0.2061,-0.2816,-0.2764,0.2835,0.0217,-0.3304,0.1402,-0.2934,0.0657,-1.0,-1.0,0.8489,-1.0,-0.5961,0.062,-1.0,1.0,-0.2454,1.0,-0.1597,1.0,-0.336,1.0,-0.4533,-1.0,-1.0,1.0,0.0,0.0,0.0,0.0,0.0,0.0,0.0,0.0,0.0,-0.0,0.0,-0.0,0.0,0
0.52,run,0.86,-4.07,19.02,-17.04,-1.74,0.0,-0.0,0.0,0.123,-16.0,23.03,79.45,-15.38,1.41,90.88,-10.99,26.54,77.61,15.64,1.23,94.48,5.71,16.35,86.66,-16.0,2.9,93.43,-18.09,16.25,82.19,-20.82,-4.3,88.01,-18.44,28.42,70.72,21.09,2.05,99.84,-0.09,21.72,85.63,-21.0,-3.25,93.66,0.0339,-1.0,0.3206,-1.0,-0.9795,-1.0,-1.0,0.6786,-0.855,1.0,1.0,1.0,-1.0,1.0,0.8855,-1.0,-1.0,-1.0,0.013,0.033,0.019,0.019,0.013,0.006,0.006,0.019,0.111,0.026,0.0,0.019,0.006,0.111,0.026,0.013,0.033,0.013,-0.2516,0.066,-0.0215,-0.2393,-0.2424,0.2086,-0.1611,0.0997,-0.0153,0.247,-0.2531,0.247,0.0966,-0.046,0.1166,-0.2531,-0.2347,0.2408,-0.2894,0.0997,-0.0092,-0.2924,-0.2867,0.1629,-0.2818,0.2366,-0.1491,0.2935,-0.2925,0.2967,0.1689,0.0024,0.1845,-0.2948,-0.2854,0.2904,0.0645,-0.3674,0.2489,-0.2126,0.0286,-1.0,-1.0,-0.0859,-1.0,-0.1724,0.3626,-1.0,1.0,-0.6916,1.0,0.7023,1.0,-0.371,1.0,-0.5456,-1.0,-1.0,0.0415,0.0,0.0,0.0,0.0,0.0,0.0,0.0,0.0,0.0,-0.0,0.0,-0.0,0.0,0
0.56,run,1.53,-5.01,19.26,-22.35,-4.52,0.0,-0.0,0.0,0.123,-17.23,22.85,80.16,-16.7,0.0,90.35,-12.39,27.77,76.2,17.14,0.09,95.98,5.71,17.23,86.4,-17.4,1.49,94.92,-16.59,14.75,83.69,-22.32,-5.8,86.51,-19.94,29.92,72.22,22.59,3.55,101.34,-1.59,23.22,84.13,-19.5,-4.75,92.16,1.0,-1.0,0.8222,-1.0,-0.9769,-1.0,-1.0,1.0,0.2154,1.0,1.0,1.0,-1.0,1.0,0.1644,1.0,-1.0,-1.0,0.013,0.033,0.019,0.019,0.013,0.006,0.006,0.019,0.111,0.026,0.0,0.019,0.006,0.111,0.026,0.013,0.033,0.013,-0.2777,0.066,0.0,-0.2715,-0.2669,0.2071,-0.1841,0.1243,-0.0368,0.2715,-0.2761,0.273,0.1012,-0.0414,0.1227,-0.2792,-0.2592,0.2577,-0.3009,0.0698,0.0745,-0.3262,-0.2933,0.1083,-0.2841,0.2582,-0.1854,0.298,-0.2915,0.3061,0.1356,0.0191,0.1523,-0.3047,-0.2924,0.2669,0.1234,-0.4265,0.3319,-0.2974,-0.0303,0.0339,-1.0,0.3206,-1.0,-0.9795,-1.0,-1.0,0.6786,-0.855,1.0,1.0,1.0,-1.0,1.0,0.8855,-1.0,-1.0,-1.0,0.0,0.0,0.0,0.0,0.0,0.0,0.0,0.0,0.0,-0.0,0.0,-0.0,0.0,0
0.6,run,2.41,-5.55,25.51,-14.39,-6.01,0.0,-0.0,0.0,0.123,-18.37,21.97,80.95,-17.93,-1.49,89.56,-13.71,28.74,75.06,18.72,-0.53,97.29,5.27,18.46,85.78,-18.63,0.0,95.54,-15.09,13.25,85.19,-23.82,-7.3,85.01,-21.44,30.0,73.72,24.09,5.05,102.84,-3.09,24.72,82.63,-18.0,-6.25,90.66,1.0,-1.0,0.6708,-1.0,-0.8054,-1.0,-1.0,1.0,0.9777,1.0,1.0,1.0,-1.0,1.0,-1.0,1.0,-1.0,-1.0,0.006,0.0,0.019,0.006,0.0,0.019,0.019,0.006,0.111,0.006,0.0,0.026,0.013,0.078,0.006,0.0,0.026,0.0,-0.2991,0.0629,0.0123,-0.2945,-0.2915,0.1979,-0.2086,0.1457,-0.0614,0.2976,-0.2961,0.2991,0.1012,-0.0261,0.1181,-0.3037,-0.2838,0.2838,-0.2907,0.0374,0.0979,-0.3141,-0.2968,0.0415,-0.2903,0.2608,-0.2213,0.3058,-0.2784,0.3115,0.0949,0.0705,0.0895,-0.3048,-0.2962,0.2841,0.1816,-0.509,0.3362,-0.3902,-0.079,1.0,-1.0,0.8222,-1.0,-0.9769,-1.0,-1.0,1.0,0.2154,1.0,1.0,1.0,-1.0,1.0,0.1644,1.0,-1.0,-1.0,0.0,0.0,0.0,0.0,0.0,0.0,0.0,0.0,0.0,-0.0,0.0,-0.0,0.0,0
0.64,run,4.02,-6.54,39.88,-21.7,-6.01,0.0,-0.0,0.0,0.123,-19.34,20.83,82.0,-19.51,-2.9,88.33,-15.12,29.62,74.09,20.13,-0.97,98.61,4.48,19.69,84.99,-19.69,-1.32,96.15,-13.59,11.75,86.69,-25.32,-8.8,83.51,-22.94,28.5,75.22,25.59,6.55,104.34,-4.59,26.22,81.13,-16.5,-7.75,89.16,0.2634,-1.0,0.5377,-1.0,-0.591,-1.0,-1.0,0.8181,1.0,1.0,1.0,1.0,-1.0,1.0,-1.0,1.0,-1.0,-1.0,0.006,0.0,0.019,0.006,0.0,0.019,0.019,0.006,0.111,0.006,0.0,0.026,0.013,0.078,0.006,0.0,0.026,0.0,-0.3191,0.0476,0.0261,-0.316,-0.3175,0.1841,-0.2316,0.1626,-0.0813,0.3252,-0.3068,0.3221,0.0936,-0.0046,0.1074,-0.3252,-0.3099,0.2945,-0.2783,-0.0314,0.1204,-0.3005,-0.3056,-0.0228,-0.2896,0.2459,-0.2297,0.3177,-0.2352,0.3044,0.0376,0.13,0.0223,-0.294,-0.3052,0.2391,0.2588,-0.556,0.4453,-0.2511,-0.1048,1.0,-1.0,0.6708,-1.0,-0.8054,-1.0,-1.0,1.0,0.9777,1.0,1.0,1.0,-1.0,1.0,-1.0,1.0,-1.0,-1.0,0.0,0.0,0.0,0.0,0.0,0.0,0.0,0.0,0.0,-0.0,0.0,-0.0,0.0,0
0.68,run,6.07,-7.57,49.47,-25.48,-5.56,0.0,-0.0,0.0,0.123,-19.42,19.42,83.14,-20.83,-4.48,86.84,-16.52,29.71,73.21,21.88,-1.14,99.84,3.43,21.18,83.67,-20.39,-2.72,96.33,-12.09,10.25,88.19,-26.82,-10.3,82.01,-24.44,27.0,76.72,27.09,8.05,105.84,-6.09,27.72,79.63,-15.0,-9.25,87.66,1.0,-1.0,0.6188,-1.0,-1.0,-1.0,-1.0,0.0956,1.0,1.0,1.0,1.0,-1.0,1.0,-0.1292,1.0,-1.0,-1.0,0.006,0.0,0.019,0.006,0.0,0.019,0.019,0.006,0.111,0.006,0.0,0.026,0.013,0.078,0.006,0.0,0.026,0.0,-0.3359,0.0276,0.0445,-0.3436,-0.3421,0.1626,-0.2562,0.1779,-0.0982,0.3497,-0.3145,0.3451,0.0798,0.0169,0.0936,-0.3436,-0.3329,0.3053,-0.2584,-0.0971,0.1536,-0.3143,-0.3064,-0.0968,-0.2952,0.2299,-0.2244,0.3148,-0.1935,0.2997,-0.0256,0.1719,-0.0364,-0.2751,-0.3003,0.2078,0.3988,-0.6421,0.696,-0.3787,-0.1048,0.2634,-1.0,0.5377,-1.0,-0.591,-1.0,-1.0,0.8181,1.0,1.0,1.0,1.0,-1.0,1.0,-1.0,1.0,-1.0,-1.0,0.0,0.0,0.0,0.0,0.0,0.0,0.0,0.0,0.0,-0.0,0.0,-0.0,0.0,0
0.72,run,9.67,-10.44,88.7,-73.85,-4.03,0.0,-0.0,0.0,0.123,-19.6,18.02,84.29,-22.32,-6.15,85.17,-17.84,30.23,72.6,22.94,-1.14,101.16,2.02,22.68,82.44,-20.74,-4.13,96.24,-10.59,8.75,89.69,-28.32,-11.8,80.51,-25.94,25.5,78.22,28.59,9.55,107.34,-7.59,29.22,78.13,-13.5,-10.75,86.16,1.0,-1.0,1.0,-1.0,-1.0,-1.0,-1.0,0.3995,0.683,1.0,1.0,1.0,-1.0,1.0,-0.2047,1.0,-0.9791,-1.0,0.019,0.0,0.033,0.006,0.0,0.006,0.033,0.078,0.071,0.026,0.065,0.045,0.019,0.052,0.0,0.006,0.033,0.019,-0.3375,0.0031,0.0644,-0.3666,-0.3697,0.1365,-0.2807,0.1795,-0.1135,0.3804,-0.3175,0.3666,0.0614,0.043,0.0706,-0.3559,-0.3574,0.3083,-0.1866,-0.1595,0.1819,-0.3059,-0.3175,-0.1651,-0.2982,0.1666,-0.2143,0.3348,-0.1469,0.2899,-0.0866,0.2176,-0.1113,-0.2384,-0.3018,0.1569,0.5784,-0.7325,0.8633,-0.4448,-0.0971,1.0,-1.0,0.6188,-1.0,-1.0,-1.0,-1.0,0.0956,1.0,1.0,1.0,1.0,-1.0,1.0,-0.1292,1.0,-1.0,-1.0,0.0,0.0,0.0,0.0,0.0,0.0,0.0,0.0,0.0,-0.0,0.0,-0.0,0.0,0
0.76,run,11.04,-8.37,34.81,51.26,-7.36,0.0,-0.0,0.0,0.123,-19.16,16.44,85.61,-23.73,-7.82,83.76,-19.25,29.97,72.6,24.17,-1.23,102.66,0.44,24.35,81.12,-20.65,-5.89,95.62,-9.09,7.25,91.19,-29.82,-13.3,79.01,-27.44,27.0,76.72,30.09,11.05,108.84,-9.09,30.0,79.63,-12.0,-12.25,84.66,1.0,-1.0,0.9112,-1.0,-1.0,-1.0,-1.0,1.0,-0.8359,1.0,1.0,1.0,-0.4359,1.0,0.7389,1.0,-1.0,-1.0,0.019,0.0,0.033,0.006,0.0,0.006,0.033,0.078,0.071,0.026,0.065,0.045,0.019,0.052,0.0,0.006,0.033,0.019,-0.3405,-0.0215,0.0844,-0.3927,-0.3988,0.1074,-0.3037,0.1887,-0.1243,0.3988,-0.3175,0.3896,0.0368,0.069,0.0491,-0.362,-0.382,0.3068,-0.1421,-0.2037,0.2021,-0.312,-0.3316,-0.2249,-0.295,0.1512,-0.1903,0.3034,-0.1028,0.2893,-0.1527,0.2502,-0.1585,-0.1899,-0.3033,0.1041,0.892,-0.9831,1.5482,-1.2889,-0.0703,1.0,-1.0,1.0,-1.0,-1.0,-1.0,-1.0,0.3995,0.683,1.0,1.0,1.0,-1.0,1.0,-0.2047,1.0,-0.9791,-1.0,0.0,0.0,0.0,0.0,0.0,0.0,0.0,0.0,0.0,-0.0,0.0,-0.0,0.0,0
0.8,run,12.02,-8.91,2.05,1.16,-24.01,0.0,-0.0,0.0,0.123,-18.37,15.12,86.84,-25.31,-9.05,82.35,-20.83,29.27,72.51,26.1,-0.44,103.71,-0.7,25.31,79.63,-20.21,-6.86,94.13,-7.59,5.75,92.69,-31.32,-14.8,77.51,-28.94,25.5,78.22,31.59,12.55,110.34,-10.59,30.0,81.13,-10.5,-10.75,83.16,1.0,-1.0,0.9817,-1.0,-1.0,-0.2938,-1.0,-1.0,0.2382,1.0,1.0,1.0,-1.0,1.0,1.0,1.0,1.0,-1.0,0.019,0.0,0.033,0.006,0.0,0.006,0.033,0.078,0.071,0.026,0.065,0.045,0.019,0.052,0.0,0.006,0.033,0.019,-0.3329,-0.0491,0.1074,-0.4172,-0.428,0.0828,-0.3283,0.1841,-0.1243,0.4203,-0.3191,0.4157,0.0092,0.0982,0.0261,-0.3605,-0.4126,0.2961,-0.0706,-0.2467,0.2282,-0.3109,-0.342,-0.2499,-0.299,0.0885,-0.1332,0.2934,-0.0778,0.3008,-0.211,0.285,-0.1977,-0.1271,-0.328,0.0324,1.012,-0.8022,0.6075,0.8947,-0.1285,1.0,-1.0,0.9112,-1.0,-1.0,-1.0,-1.0,1.0,-0.8359,1.0,1.0,1.0,-0.4359,1.0,0.7389,1.0,-1.0,-1.0,0.0,0.0,0.0,0.0,0.0,0.0,0.0,0.0,0.0,-0.0,0.0,-0.0,0.0,0
0.84,run,13.85,-8.57,41.93,13.96,-16.88,0.0,-0.0,0.0,0.195,-17.49,13.8,88.15,-26.72,-10.37,80.95,-22.32,28.56,72.69,26.72,0.79,104.94,-2.2,26.72,79.01,-19.07,-8.44,93.69,-6.09,4.25,94.19,-32.82,-16.3,76.01,-30.44,24.0,79.72,30.09,14.05,108.84,-12.09,30.0,82.63,-9.0,-9.25,81.66,1.0,-1.0,1.0,-1.0,-1.0,-0.058,-1.0,0.6244,1.0,0.7055,1.0,-0.1125,-1.0,1.0,0.9632,1.0,1.0,-1.0,0.026,0.0,0.039,0.006,0.0,0.006,0.013,0.195,0.0,0.033,0.111,0.071,0.019,0.045,0.0,0.006,0.026,0.0,-0.3191,-0.0721,0.1289,-0.4449,-0.4495,0.0583,-0.3559,0.1718,-0.1258,0.4541,-0.3053,0.4341,-0.0107,0.115,0.0,-0.3528,-0.4295,0.27,0.0021,-0.2585,0.2399,-0.3206,-0.3195,-0.2665,-0.3123,0.0162,-0.099,0.3312,-0.0029,0.2792,-0.2221,0.2624,-0.2356,-0.0604,-0.2925,-0.0746,1.0977,-0.8493,0.0358,0.0202,-0.4191,1.0,-1.0,0.9817,-1.0,-1.0,-0.2938,-1.0,-1.0,0.2382,1.0,1.0,1.0,-1.0,1.0,1.0,1.0,1.0,-1.0,0.0,0.0,0.0,0.0,0.0,0.0,0.0,0.0,0.0,-0.0,0.0,-0.0,0.0,0
0.88,run,14.88,-8.82,25.52,-6.34,-4.62,0.0,-0.0,0.0,0.195,-16.08,12.48,89.56,-28.04,-11.69,79.45,-23.64,27.16,73.56,28.48,2.29,106.44,-3.6,27.86,78.22,-18.63,-9.49,91.85,-4.59,2.75,95.69,-34.32,-17.8,74.51,-31.94,22.5,81.22,28.59,15.55,110.34,-13.59,30.0,81.13,-7.5,-7.75,80.16,1.0,-1.0,1.0,-1.0,-1.0,-0.6286,-1.0,-1.0,1.0,0.6299,1.0,1.0,-1.0,1.0,-0.2101,1.0,1.0,-1.0,0.026,0.0,0.039,0.006,0.0,0.006,0.013,0.195,0.0,0.033,0.111,0.071,0.019,0.045,0.0,0.006,0.026,0.0,-0.3037,-0.0951,0.1519,-0.4694,-0.4725,0.0337,-0.382,0.1595,-0.1227,0.4648,-0.2838,0.4556,-0.0368,0.1396,-0.0107,-0.3329,-0.4571,0.2623,0.0593,-0.2677,0.2547,-0.317,-0.3104,-0.2791,-0.317,-0.035,-0.0577,0.2724,0.0789,0.2765,-0.2538,0.2763,-0.2054,0.033,-0.3089,-0.0811,1.257,-0.8199,0.7318,0.2436,-0.2947,1.0,-1.0,1.0,-1.0,-1.0,-0.058,-1.0,0.6244,1.0,0.7055,1.0,-0.1125,-1.0,1.0,0.9632,1.0,1.0,-1.0,0.0,0.0,0.0,0.0,0.0,0.0,0.0,0.0,0.0,-0.0,0.0,-0.0,0.0,0
0.92,run,15.49,-8.36,16.84,7.07,-17.65,0.0,-0.0,0.0,0.195,-14.77,10.99,90.97,-29.0,-13.18,78.05,-24.87,25.66,74.88,29.27,3.6,107.49,-5.01,28.65,78.22,-16.7,-10.28,90.62,-3.09,1.25,97.19,-35.0,-19.3,73.01,-33.44,21.0,82.72,27.09,17.05,108.84,-15.09,30.0,82.63,-6.0,-6.25,78.66,1.0,-1.0,1.0,-1.0,-1.0,0.0108,-1.0,0.1069,1.0,-0.1327,1.0,-0.1511,-1.0,1.0,1.0,1.0,1.0,-1.0,0.026,0.0,0.039,0.006,0.0,0.006,0.013,0.195,0.0,0.033,0.111,0.071,0.019,0.045,0.0,0.006,0.026,0.0,-0.2792,-0.1181,0.1764,-0.4924,-0.4955,0.0077,-0.405,0.135,-0.1074,0.4955,-0.2577,0.4817,-0.0614,0.1595,-0.0245,-0.3252,-0.4755,0.2301,0.1336,-0.2737,0.2703,-0.3082,-0.3036,-0.2932,-0.3082,-0.1165,0.0171,0.3057,0.1531,0.2913,-0.2697,0.2682,-0.1956,0.0518,-0.2853,-0.1776,1.3472,-0.8416,0.4454,-0.1106,-0.0806,1.0,-1.0,1.0,-1.0,-1.0,-0.6286,-1.0,-1.0,1.0,0.6299,1.0,1.0,-1.0,1.0,-0.2101,1.0,1.0,-1.0,0.0,0.0,0.0,0.0,0.0,0.0,0.0,0.0,0.0,-0.0,0.0,-0.0,0.0,0
0.96,run,15.11,-8.67,-0.33,-0.25,0.4,0.0,-0.0,0.0,0.221,-2.29,-0.26,98.09,-34.72,-20.92,74.09,-34.54,19.95,84.2,26.19,15.91,106.79,-16.52,29.88,81.04,-4.39,-4.83,77.34,-1.59,-0.25,98.69,-35.0,-20.8,74.51,-34.94,19.5,84.22,25.59,18.55,107.34,-16.59,30.0,81.13,-4.5,-4.75,77.16,1.0,-1.0,1.0,-1.0,-1.0,1.0,-1.0,-0.6375,1.0,-0.6712,1.0,-0.1317,-1.0,1.0,-0.0894,1.0,1.0,-1.0,0.033,0.0,0.013,0.006,0.0,0.019,0.006,0.019,0.0,0.026,0.221,0.026,0.0,0.0,0.0,0.0,0.0,0.0,-0.2562,-0.1442,0.201,-0.5093,-0.5216,-0.0169,-0.4264,0.1089,-0.0844,0.5093,-0.2347,0.5001,-0.0859,0.1733,-0.0245,-0.2915,-0.4893,0.2086,0.1793,-0.2889,0.2808,-0.2787,-0.3098,-0.2968,-0.2958,-0.1788,0.0978,0.2655,0.193,0.2726,-0.2803,0.2392,-0.1369,0.1622,-0.2512,-0.2044,1.4005,-0.8011,0.2939,0.1234,-0.3081,1.0,-1.0,1.0,-1.0,-1.0,0.0108,-1.0,0.1069,1.0,-0.1327,1.0,-0.1511,-1.0,1.0,1.0,1.0,1.0,-1.0,0.0,0.0,0.0,0.0,0.0,0.0,0.0,0.0,0.0,-0.0,0.0,-0.0,0.0,0
1.0,run,15.21,-8.62,-0.34,-0.34,0.19,0.0,-0.0,0.0,0.221,-2.29,-0.26,98.09,-34.72,-20.92,74.09,-34.54,19.95,84.2,26.19,15.91,106.79,-16.52,29.88,81.04,-4.39,-4.83,77.34,-0.09,-1.75,100.19,-35.0,-22.3,76.01,-35.0,21.0,85.72,24.09,20.05,105.84,-18.09,30.0,79.63,-3.0,-3.25,75.66,1.0,-1.0,1.0,-1.0,-0.9967,1.0,-1.0,1.0,1.0,-1.0,1.0,-1.0,-1.0,1.0,-0.3185,1.0,1.0,-1.0,0.033,0.0,0.013,0.006,0.0,0.019,0.006,0.019,0.0,0.026,0.221,0.026,0.0,0.0,0.0,0.0,0.0,0.0,-0.0383,-0.3405,0.3252,-0.609,-0.6565,-0.0859,-0.5952,0.0092,0.0782,0.4556,-0.0199,0.4878,-0.2869,0.1948,0.0245,-0.0767,-0.3942,-0.023,0.1793,-0.2889,0.2808,-0.2787,-0.3098,-0.2968,-0.2958,-0.1788,0.0978,0.2655,0.193,0.2726,-0.2803,0.2392,-0.1369,0.1622,-0.2512,-0.2044,1.3672,-0.8281,-0.0057,-0.0043,0.007,1.0,-1.0,1.0,-1.0,-1.0,1.0,-1.0,-0.6375,1.0,-0.6712,1.0,-0.1317,-1.0,1.0,-0.0894,1.0,1.0,-1.0,0.0,0.0,0.0,0.0,0.0,0.0,0.0,0.0,0.0,-0.0,0.0,-0.0,0.0,0
1.04,run,15.34,-8.55,-0.01,0.19,0.34,0.0,-0.002,0.0,0.221,-2.29,-0.35,98.09,-34.72,-20.92,74.09,-34.54,19.95,84.2,26.19,15.91,106.79,-16.61,29.88,81.04,-4.39,-4.83,77.34,1.41,-3.25,98.69,-35.0,-23.8,77.51,-35.0,19.5,87.22,22.59,20.42,104.34,-16.59,30.0,81.13,-1.5,-4.75,77.16,0.1309,-1.0,-1.0,-1.0,-1.0,1.0,-1.0,-1.0,1.0,-1.0,0.8258,-1.0,1.0,1.0,0.5018,1.0,-1.0,1.0,0.033,0.0,0.013,0.006,0.0,0.019,0.006,0.019,0.0,0.026,0.221,0.026,0.0,0.0,0.0,0.0,0.0,0.0,-0.0383,-0.3405,0.3252,-0.609,-0.6565,-0.0859,-0.5952,0.0092,0.0782,0.4556,-0.0199,0.4878,-0.2869,0.1948,0.0245,-0.0767,-0.3942,-0.023,0.1255,-0.2022,0.1965,-0.1951,-0.2169,-0.2077,-0.2071,-0.1252,0.0685,0.1858,0.1351,0.1908,-0.1962,0.1675,-0.0958,0.1135,-0.1758,-0.1431,1.376,-0.8238,-0.006,-0.0059,0.0032,1.0,-1.0,1.0,-1.0,-0.9967,1.0,-1.0,1.0,1.0,-1.0,1.0,-1.0,-1.0,1.0,-0.3185,1.0,1.0,-1.0,0.0,0.0,0.0,0.0,0.0,0.0,0.0,0.0,0.0,-0.0133,0.0,-0.0133,0.0,3
1.08,run,15.65,-8.24,5.65,7.32,3.65,0.0,-0.004,0.0,0.221,-2.11,-0.88,98.35,-34.72,-21.36,74.53,-34.54,19.95,84.55,25.75,16.26,106.08,-16.79,29.88,80.95,-4.13,-4.83,77.17,-0.09,-4.75,97.19,-35.0,-25.3,79.01,-35.0,18.0,88.72,21.09,18.92,102.84,-15.09,30.0,82.63,0.0,-6.25,78.66,-0.1211,-1.0,-1.0,-1.0,-1.0,1.0,-1.0,-1.0,1.0,-1.0,-0.1289,-1.0,1.0,1.0,1.0,1.0,-1.0,1.0,0.078,0.0,0.0,0.006,0.0,0.026,0.013,0.033,0.0,0.058,0.175,0.019,0.0,0.0,0.006,0.006,0.006,0.0,-0.0383,-0.3421,0.3252,-0.609,-0.6565,-0.0859,-0.5952,0.0092,0.0782,0.4556,-0.0199,0.4878,-0.2884,0.1948,0.0245,-0.0767,-0.3942,-0.023,0.0879,-0.1473,0.1376,-0.1366,-0.1518,-0.1454,-0.145,-0.0876,0.0479,0.1301,0.0946,0.1336,-0.1431,0.1172,-0.0671,0.0795,-0.1231,-0.1002,1.3866,-0.818,-0.0001,0.0033,0.0059,0.1309,-1.0,-1.0,-1.0,-1.0,1.0,-1.0,-1.0,1.0,-1.0,0.8258,-1.0,1.0,1.0,0.5018,1.0,-1.0,1.0,0.0,0.0,0.0,0.0,0.0,0.0,0.0,0.0,0.0,-0.0267,0.0,-0.0267,0.0,3
1.12,run,16.02,-7.99,6.69,4.43,2.48,0.0,-0.006,0.0,0.221,-1.23,-1.58,98.26,-34.72,-22.15,75.32,-34.54,19.78,85.25,24.96,16.88,105.38,-16.52,29.97,81.3,-2.9,-4.83,77.17,1.41,-6.25,95.69,-33.5,-26.8,80.51,-35.0,16.5,90.22,19.59,17.42,101.34,-13.59,30.0,84.13,1.5,-7.75,80.16,0.7214,-1.0,-1.0,-0.9273,-1.0,1.0,-1.0,-1.0,1.0,-1.0,-0.1942,-1.0,1.0,1.0,1.0,1.0,-1.0,1.0,0.078,0.0,0.0,0.006,0.0,0.026,0.013,0.033,0.0,0.058,0.175,0.019,0.0,0.0,0.006,0.006,0.006,0.0,-0.0353,-0.3513,0.3298,-0.609,-0.6642,-0.0782,-0.5952,0.0092,0.0844,0.4479,-0.0138,0.4755,-0.2915,0.1948,0.023,-0.0721,-0.3942,-0.0261,0.073,-0.1374,0.1135,-0.0956,-0.1349,-0.0732,-0.1015,-0.0613,0.0564,0.0624,0.0891,0.0477,-0.1116,0.0821,-0.0527,0.0728,-0.0862,-0.0816,1.4141,-0.7905,0.0986,0.1277,0.0637,-0.1211,-1.0,-1.0,-1.0,-1.0,1.0,-1.0,-1.0,1.0,-1.0,-0.1289,-1.0,1.0,1.0,1.0,1.0,-1.0,1.0,0.0,0.0,0.0,0.0,0.0,0.0,0.0,0.0,0.0,-0.04,0.0,-0.04,0.0,3
1.16,run,16.4,-7.75,7.55,5.38,-2.61,0.0,-0.008,0.0,0.221,-0.88,-2.46,97.82,-34.72,-23.12,76.38,-34.54,18.98,86.13,23.99,17.14,104.24,-15.73,29.97,82.0,-2.29,-5.19,77.7,2.91,-7.75,94.19,-32.0,-28.3,82.01,-35.0,15.0,91.72,18.09,15.92,99.84,-12.09,30.0,85.63,3.0,-9.25,81.66,1.0,-1.0,-1.0,-0.2163,-1.0,1.0,-1.0,-1.0,1.0,-1.0,0.1853,-1.0,1.0,1.0,1.0,1.0,-1.0,1.0,0.078,0.0,0.0,0.006,0.0,0.026,0.013,0.033,0.0,0.058,0.175,0.019,0.0,0.0,0.006,0.006,0.006,0.0,-0.0199,-0.3636,0.3283,-0.609,-0.678,-0.0644,-0.5952,0.0061,0.0966,0.4341,-0.0031,0.4633,-0.2869,0.1963,0.0291,-0.0506,-0.3942,-0.0261,0.1089,-0.1424,0.0737,-0.0669,-0.1464,0.0008,-0.071,-0.0545,0.0857,-0.0083,0.1028,-0.0128,-0.0608,0.0632,-0.0138,0.1319,-0.0603,-0.0571,1.4467,-0.7689,0.1167,0.0773,0.0432,0.7214,-1.0,-1.0,-0.9273,-1.0,1.0,-1.0,-1.0,1.0,-1.0,-0.1942,-1.0,1.0,1.0,1.0,1.0,-1.0,1.0,0.0,0.0,0.0,0.0,0.0,0.0,0.0,0.0,0.0,-0.0533,0.0,-0.0533,0.0,3
1.2,run,16.69,-7.3,3.7,10.21,0.44,0.0,-0.01,0.0,0.221,-0.18,-3.69,97.12,-34.63,-24.35,77.7,-34.54,18.02,87.28,22.68,17.14,103.1,-14.85,29.97,82.97,-0.7,-5.98,78.66,4.41,-9.25,92.69,-30.5,-29.8,83.51,-35.0,13.5,93.22,16.59,14.42,98.34,-10.59,30.0,87.13,4.5,-10.75,83.16,1.0,-1.0,-1.0,1.0,-1.0,1.0,-1.0,-1.0,1.0,-1.0,0.3055,-1.0,1.0,1.0,1.0,1.0,-1.0,1.0,0.071,0.006,0.013,0.013,0.0,0.045,0.013,0.084,0.006,0.104,0.045,0.0,0.013,0.0,0.019,0.0,0.033,0.013,-0.0138,-0.3789,0.3206,-0.609,-0.6949,-0.046,-0.5952,-0.0077,0.112,0.4172,0.0015,0.4433,-0.273,0.1963,0.0414,-0.0399,-0.4004,-0.0169,0.0991,-0.157,0.0229,-0.0468,-0.1655,0.0693,-0.0497,-0.0897,0.1173,-0.0688,0.0891,-0.0834,0.009,0.0443,0.0362,0.1324,-0.0651,-0.0056,1.4798,-0.7484,0.1318,0.0939,-0.0455,1.0,-1.0,-1.0,-0.2163,-1.0,1.0,-1.0,-1.0,1.0,-1.0,0.1853,-1.0,1.0,1.0,1.0,1.0,-1.0,1.0,0.0,0.0,0.0,0.0,0.0,0.0,0.0,0.0,0.0,-0.0667,0.0,-0.0667,0.0,3
1.24,run,16.96,-6.7,4.01,14.37,-4.2,0.0,-0.012,0.0,0.221,0.7,-4.92,96.06,-34.28,-25.75,79.19,-34.54,16.7,88.68,21.27,17.14,101.78,-13.62,29.97,84.29,0.79,-7.03,79.8,5.91,-10.75,91.19,-29.0,-31.3,85.01,-35.0,12.0,94.72,15.09,12.92,96.84,-9.09,30.0,88.63,6.0,-12.25,84.66,1.0,-1.0,-1.0,1.0,-1.0,1.0,-1.0,-1.0,1.0,-1.0,0.1367,-1.0,1.0,1.0,1.0,1.0,-1.0,1.0,0.071,0.006,0.013,0.013,0.0,0.045,0.013,0.084,0.006,0.104,0.045,0.0,0.013,0.0,0.019,0.0,0.033,0.013,-0.0015,-0.4004,0.3083,-0.6075,-0.7164,-0.023,-0.5952,-0.0245,0.1319,0.3942,0.0015,0.4234,-0.2577,0.1963,0.0583,-0.0123,-0.4142,0.0,0.1158,-0.1911,-0.0304,-0.027,-0.1971,0.1355,-0.0348,-0.1266,0.1575,-0.1352,0.0624,-0.1338,0.0643,0.031,0.0891,0.1971,-0.0978,0.0599,1.5048,-0.7091,0.0646,0.1782,0.0076,1.0,-1.0,-1.0,1.0,-1.0,1.0,-1.0,-1.0,1.0,-1.0,0.3055,-1.0,1.0,1.0,1.0,1.0,-1.0,1.0,0.0,0.0,0.0,0.0,0.0,0.0,0.0,0.0,0.0,-0.08,0.0,-0.08,0.0,3
1.28,run,17.05,-5.6,0.28,6.59,20.23,0.0,-0.014,0.0,0.221,5.1,-10.11,91.67,-29.97,-30.76,84.29,-34.54,12.04,93.78,16.26,13.71,96.86,-8.79,29.79,88.86,6.06,-11.69,84.46,7.41,-12.25,89.69,-27.5,-32.8,86.51,-35.0,10.5,96.22,13.59,11.42,95.34,-7.59,30.0,90.13,7.5,-13.75,86.16,1.0,-1.0,-1.0,1.0,-1.0,0.9466,-1.0,-1.0,1.0,-1.0,-0.0383,-1.0,1.0,1.0,1.0,1.0,-1.0,1.0,0.084,0.0,0.006,0.026,0.0,0.033,0.013,0.026,0.006,0.078,0.0,0.0,0.006,0.0,0.006,0.006,0.019,0.0,0.0138,-0.4218,0.2899,-0.6013,-0.7409,0.0031,-0.5952,-0.0476,0.1565,0.3697,0.0015,0.4004,-0.2362,0.1963,0.0813,0.0138,-0.4326,0.0199,0.1385,-0.2141,-0.0901,0.0041,-0.2298,0.1924,-0.0244,-0.1747,0.2021,-0.1865,0.0437,-0.1798,0.1254,0.0217,0.1485,0.2356,-0.1373,0.1166,1.5284,-0.6559,0.07,0.2508,-0.0732,1.0,-1.0,-1.0,1.0,-1.0,1.0,-1.0,-1.0,1.0,-1.0,0.1367,-1.0,1.0,1.0,1.0,1.0,-1.0,1.0,0.0,0.0,0.0,0.0,0.0,0.0,0.0,0.0,0.0,-0.0933,0.0,-0.0933,0.0,3
1.32,run,16.82,-5.1,-8.87,12.83,-0.63,0.0,-0.016,0.0,0.221,6.15,-11.07,90.18,-29.27,-31.55,85.08,-34.54,11.43,94.48,15.38,12.83,96.06,-8.17,29.88,89.47,5.98,-12.39,85.08,8.91,-13.75,88.19,-26.0,-34.3,88.01,-35.0,9.0,97.72,12.09,9.92,93.84,-6.09,30.0,91.63,9.0,-15.25,87.66,1.0,-1.0,-1.0,1.0,-1.0,0.5791,-1.0,-1.0,1.0,-1.0,0.256,-1.0,1.0,1.0,1.0,1.0,-1.0,1.0,0.084,0.0,0.006,0.026,0.0,0.033,0.013,0.026,0.006,0.078,0.0,0.0,0.006,0.0,0.006,0.006,0.019,0.0,0.0905,-0.5123,0.2132,-0.5262,-0.8283,0.092,-0.5952,-0.1289,0.2454,0.2823,-0.0583,0.3145,-0.1519,0.1933,0.1611,0.1058,-0.5139,0.1012,0.1718,-0.2383,-0.138,0.0763,-0.2463,0.2216,-0.0171,-0.2017,0.2284,-0.2159,-0.0279,-0.2097,0.1702,0.0122,0.1819,0.2548,-0.1756,0.161,1.5359,-0.56,0.0048,0.1151,0.3531,1.0,-1.0,-1.0,1.0,-1.0,0.9466,-1.0,-1.0,1.0,-1.0,-0.0383,-1.0,1.0,1.0,1.0,1.0,-1.0,1.0,0.0,0.0,0.0,0.0,0.0,0.0,0.0,0.0,0.0,-0.1067,0.0,-0.1067,0.0,3
1.36,run,16.9,-4.92,0.08,4.79,-6.28,0.0,-0.018,0.0,0.221,6.77,-11.78,90.09,-28.65,-32.26,85.78,-34.54,10.9,95.1,14.5,12.04,95.54,-7.73,29.79,89.91,7.56,-12.92,85.87,10.41,-15.25,86.69,-24.5,-35.8,89.51,-35.0,7.5,99.22,10.59,8.42,92.34,-4.59,30.0,93.13,10.5,-16.75,89.16,1.0,-1.0,-0.6616,1.0,-1.0,0.5115,-1.0,-1.0,1.0,-1.0,0.2799,-1.0,1.0,1.0,1.0,1.0,-1.0,1.0,0.084,0.0,0.006,0.026,0.0,0.033,0.013,0.026,0.006,0.078,0.0,0.0,0.006,0.0,0.006,0.006,0.019,0.0,0.1089,-0.5292,0.1871,-0.5139,-0.8422,0.1058,-0.5952,-0.1396,0.2577,0.2669,-0.0736,0.3007,-0.1411,0.1948,0.1718,0.1043,-0.5262,0.112,0.204,-0.2436,-0.2152,0.1092,-0.2352,0.2179,-0.0119,-0.19,0.2157,-0.2209,-0.0893,-0.2096,0.168,0.0155,0.1761,0.1714,-0.1787,0.1615,1.5166,-0.517,-0.1548,0.2239,-0.011,1.0,-1.0,-1.0,1.0,-1.0,0.5791,-1.0,-1.0,1.0,-1.0,0.256,-1.0,1.0,1.0,1.0,1.0,-1.0,1.0,0.0,0.0,0.0,0.0,0.0,0.0,0.0,0.0,0.0,-0.12,0.0,-0.12,0.0,3
1.4,run,16.87,-4.65,-4.86,6.57,-0.49,0.0,-0.02,0.0,0.221,7.29,-12.57,89.38,-27.95,-33.13,86.66,-34.54,10.2,96.06,13.54,11.16,94.66,-6.94,29.79,90.53,7.73,-13.62,86.4,11.91,-16.75,85.19,-23.0,-37.3,91.01,-35.0,6.0,100.72,9.09,9.92,90.84,-3.09,30.0,94.63,12.0,-18.25,90.66,1.0,-1.0,-1.0,1.0,-1.0,0.3838,-1.0,-1.0,1.0,-1.0,1.0,-1.0,1.0,1.0,1.0,1.0,-1.0,1.0,0.065,0.006,0.019,0.039,0.006,0.033,0.013,0.033,0.006,0.045,0.006,0.013,0.0,0.013,0.019,0.065,0.033,0.013,0.1197,-0.5415,0.1856,-0.5031,-0.8544,0.1181,-0.5952,-0.1488,0.2684,0.2516,-0.0874,0.2915,-0.1335,0.1933,0.1795,0.1319,-0.5354,0.1258,0.1827,-0.216,-0.1563,0.1163,-0.2102,0.1981,-0.0084,-0.1672,0.1908,-0.2116,-0.1137,-0.1809,0.146,0.0052,0.1518,0.2225,-0.1593,0.1643,1.5228,-0.5012,0.0013,0.0836,-0.1096,1.0,-1.0,-0.6616,1.0,-1.0,0.5115,-1.0,-1.0,1.0,-1.0,0.2799,-1.0,1.0,1.0,1.0,1.0,-1.0,1.0,0.0,0.0,0.0,0.0,0.0,0.0,0.0,0.0,0.0,-0.1333,0.0,-0.1333,0.0,3
1.44,run,16.68,-4.06,-7.56,10.82,11.8,0.0,-0.022,0.0,0.221,8.35,-13.71,88.24,-26.98,-34.19,87.8,-34.54,9.14,97.29,12.22,10.2,93.43,-5.8,29.71,91.58,9.32,-14.59,87.36,13.41,-18.25,83.69,-21.5,-38.8,92.51,-35.0,4.5,102.22,7.59,11.42,89.34,-1.59,30.0,96.13,13.5,-19.75,92.16,1.0,-1.0,-1.0,1.0,-1.0,0.5089,-1.0,-1.0,1.0,-1.0,0.9895,-1.0,1.0,1.0,1.0,1.0,-1.0,1.0,0.065,0.006,0.019,0.039,0.006,0.033,0.013,0.033,0.006,0.045,0.006,0.013,0.0,0.013,0.019,0.065,0.033,0.013,0.1289,-0.5553,0.1733,-0.4909,-0.8698,0.1335,-0.5952,-0.1611,0.2853,0.2347,-0.1028,0.2761,-0.1197,0.1933,0.1902,0.135,-0.5476,0.135,0.1624,-0.203,-0.1555,0.1275,-0.2047,0.1962,-0.0058,-0.1631,0.1969,-0.2114,-0.1372,-0.1842,0.154,0.0036,0.1465,0.1672,-0.1575,0.1496,1.5204,-0.4773,-0.0849,0.1147,-0.0085,1.0,-1.0,-1.0,1.0,-1.0,0.3838,-1.0,-1.0,1.0,-1.0,1.0,-1.0,1.0,1.0,1.0,1.0,-1.0,1.0,0.0,0.0,0.0,0.0,0.0,0.0,0.0,0.0,0.0,-0.1467,0.0,-0.1467,0.0,3
1.48,run,16.54,-3.46,-6.27,14.64,2.16,0.0,-0.024,0.0,0.221,9.76,-14.94,87.28,-25.75,-35.51,89.12,-34.54,7.82,98.53,10.72,9.4,92.2,-4.48,29.62,92.81,10.46,-15.73,88.51,14.91,-19.75,82.19,-20.0,-40.3,91.01,-35.0,3.0,103.72,6.09,9.92,87.84,-0.09,28.5,97.63,15.0,-21.25,93.66,1.0,-1.0,-0.9014,1.0,-1.0,-0.0595,-1.0,-1.0,1.0,-1.0,0.6125,-1.0,1.0,0.8926,0.9966,1.0,-0.5802,1.0,0.065,0.006,0.019,0.039,0.006,0.033,0.013,0.033,0.006,0.045,0.006,0.013,0.0,0.013,0.019,0.065,0.033,0.013,0.1473,-0.5752,0.1534,-0.474,-0.8882,0.1534,-0.5952,-0.1795,0.3068,0.2117,-0.1197,0.2546,-0.0997,0.1917,0.2086,0.1626,-0.5645,0.1519,0.1828,-0.217,-0.1837,0.1526,-0.2124,0.2123,-0.0041,-0.1833,0.2185,-0.2344,-0.1594,-0.2096,0.1827,-0.0032,0.1717,0.2208,-0.1736,0.1681,1.5039,-0.4257,-0.132,0.1889,0.2059,1.0,-1.0,-1.0,1.0,-1.0,0.5089,-1.0,-1.0,1.0,-1.0,0.9895,-1.0,1.0,1.0,1.0,1.0,-1.0,1.0,0.0,0.0,0.0,0.0,0.0,0.0,0.0,0.0,0.0,-0.16,0.0,-0.16,0.0,3
1.52,run,16.61,-2.82,0.12,15.43,9.25,0.0,-0.026,0.0,0.221,11.07,-16.26,85.69,-24.35,-36.74,90.35,-34.54,6.42,99.76,9.32,8.79,91.05,-3.25,29.36,94.04,11.69,-17.05,89.82,16.41,-21.25,80.69,-18.5,-41.8,89.51,-35.0,1.5,105.22,4.59,11.42,86.34,1.41,27.0,99.13,16.5,-22.75,95.16,1.0,-1.0,-0.6071,1.0,-1.0,-0.4967,-1.0,-1.0,1.0,-1.0,0.7675,-1.0,1.0,0.7596,1.0,1.0,-0.3424,1.0,0.045,0.0,0.0,0.033,0.006,0.013,0.013,0.033,0.019,0.026,0.0,0.013,0.026,0.006,0.039,0.0,0.033,0.013,0.1718,-0.5967,0.1365,-0.4525,-0.9112,0.1764,-0.5952,-0.2025,0.3283,0.1856,-0.1335,0.2332,-0.0767,0.1902,0.2301,0.1825,-0.5844,0.1718,0.2199,-0.2324,-0.1918,0.1873,-0.2349,0.2348,-0.0029,-0.2145,0.2334,-0.2618,-0.1633,-0.2272,0.2141,-0.008,0.2006,0.2292,-0.1962,0.1923,1.4917,-0.3736,-0.1095,0.2555,0.0377,1.0,-1.0,-0.9014,1.0,-1.0,-0.0595,-1.0,-1.0,1.0,-1.0,0.6125,-1.0,1.0,0.8926,0.9966,1.0,-0.5802,1.0,0.0,0.0,0.0,0.0,0.0,0.0,0.0,0.0,0.0,-0.1733,0.0,-0.1733,0.0,3
1.56,run,16.08,-2.17,-14.41,14.41,1.28,0.0,-0.028,0.0,0.221,12.66,-17.67,84.64,-22.76,-38.23,91.32,-34.54,4.92,101.25,7.65,8.7,89.21,-1.49,28.39,95.54,13.62,-18.63,91.41,17.91,-22.75,79.19,-17.0,-43.3,88.01,-35.0,0.0,106.72,3.09,12.92,84.84,2.91,25.5,100.63,18.0,-24.25,96.66,1.0,-1.0,-0.8569,1.0,-1.0,-0.977,-1.0,-1.0,1.0,-1.0,0.9113,-1.0,1.0,0.7523,1.0,1.0,0.0059,1.0,0.045,0.0,0.0,0.033,0.006,0.013,0.013,0.033,0.019,0.026,0.0,0.013,0.026,0.006,0.039,0.0,0.033,0.013,0.1948,-0.6197,0.1089,-0.428,-0.9327,0.1979,-0.5952,-0.227,0.3497,0.1611,-0.1442,0.2132,-0.0552,0.1856,0.2516,0.204,-0.6075,0.1948,0.2402,-0.249,-0.2378,0.2231,-0.245,0.2449,-0.002,-0.2422,0.2439,-0.2753,-0.1546,-0.2338,0.2304,-0.0229,0.221,0.241,-0.2237,0.2209,1.4981,-0.3179,0.0021,0.2693,0.1615,1.0,-1.0,-0.6071,1.0,-1.0,-0.4967,-1.0,-1.0,1.0,-1.0,0.7675,-1.0,1.0,0.7596,1.0,1.0,-0.3424,1.0,0.0,0.0,0.0,0.0,0.0,0.0,0.0,0.0,0.0,-0.1867,0.0,-0.1867,0.0,3
1.6,run,16.17,-1.24,1.34,25.42,-3.69,0.0,-0.03,0.0,0.221,14.06,-19.07,82.88,-21.45,-39.46,91.93,-34.54,3.6,102.57,6.68,9.14,88.15,-0.7,27.69,96.77,14.59,-19.86,92.72,19.41,-24.25,77.69,-15.5,-44.8,86.51,-35.0,-1.5,108.22,1.59,14.42,83.34,4.41,24.0,102.13,19.5,-22.75,98.16,1.0,-1.0,-0.1267,1.0,-1.0,-0.032,-1.0,-1.0,1.0,-1.0,0.7787,-1.0,1.0,0.2552,1.0,1.0,0.3285,1.0,0.045,0.0,0.0,0.033,0.006,0.013,0.013,0.033,0.019,0.026,0.0,0.013,0.026,0.006,0.039,0.0,0.033,0.013,0.2224,-0.6443,0.0905,-0.4004,-0.9587,0.2148,-0.5952,-0.2531,0.3758,0.1319,-0.1457,0.181,-0.0245,0.1687,0.2777,0.2378,-0.6351,0.2224,0.2632,-0.2588,-0.2298,0.2512,-0.2612,0.2295,-0.0014,-0.2593,0.2605,-0.293,-0.1135,-0.2745,0.2669,-0.0741,0.2445,0.2849,-0.2516,0.2497,1.452,-0.2613,-0.2515,0.2515,0.0223,1.0,-1.0,-0.8569,1.0,-1.0,-0.977,-1.0,-1.0,1.0,-1.0,0.9113,-1.0,1.0,0.7523,1.0,1.0,0.0059,1.0,0.0,0.0,0.0,0.0,0.0,0.0,0.0,0.0,0.0,-0.2,0.0,-0.2,0.0,3
1.64,run,15.97,-0.3,-7.34,22.66,-11.73,0.0,-0.032,0.0,0.221,15.47,-20.39,81.65,-20.04,-40.87,92.2,-34.54,2.29,103.89,5.01,9.4,86.66,0.97,26.37,98.17,16.08,-21.18,94.04,20.91,-25.75,76.19,-14.0,-46.3,85.01,-35.0,-3.0,109.72,0.09,12.92,81.84,5.91,22.5,103.63,21.0,-21.25,99.66,1.0,-1.0,-0.4542,1.0,-1.0,-1.0,-1.0,-1.0,1.0,-1.0,-0.0356,-1.0,1.0,0.5085,1.0,1.0,1.0,1.0,0.033,0.006,0.006,0.019,0.013,0.006,0.013,0.026,0.019,0.0,0.013,0.006,0.013,0.013,0.033,0.019,0.026,0.006,0.247,-0.6688,0.0598,-0.3774,-0.9802,0.2255,-0.5952,-0.2761,0.3988,0.115,-0.1381,0.1626,-0.0107,0.1565,0.2991,0.2546,-0.6565,0.2454,0.2755,-0.2724,-0.2749,0.2614,-0.2627,0.2006,-0.001,-0.267,0.2679,-0.2679,-0.0509,-0.2606,0.2381,-0.0975,0.251,0.2621,-0.256,0.2603,1.4598,-0.1798,0.0235,0.4437,-0.0644,1.0,-1.0,-0.1267,1.0,-1.0,-0.032,-1.0,-1.0,1.0,-1.0,0.7787,-1.0,1.0,0.2552,1.0,1.0,0.3285,1.0,0.0,0.0,0.0,0.0,0.0,0.0,0.0,0.0,0.0,-0.2133,0.0,-0.2133,0.0,3
1.68,run,16.08,0.98,0.69,32.3,-4.94,0.0,-0.034,0.0,0.221,16.88,-21.8,80.24,-18.46,-42.28,91.93,-34.54,0.79,105.29,3.78,10.46,85.25,2.29,25.05,99.67,17.49,-22.24,95.45,20.81,-27.25,77.69,-12.5,-47.8,83.51,-35.0,-4.5,111.22,-1.41,11.42,80.34,7.41,21.0,105.13,22.5,-19.75,101.16,0.5946,-1.0,0.3612,1.0,-1.0,-0.8815,-1.0,-1.0,1.0,-1.0,-0.1041,-1.0,1.0,0.5005,1.0,1.0,1.0,1.0,0.033,0.006,0.006,0.019,0.013,0.006,0.013,0.026,0.019,0.0,0.013,0.006,0.013,0.013,0.033,0.019,0.026,0.006,0.2715,-0.6918,0.0383,-0.3528,-1.0048,0.2301,-0.5952,-0.2991,0.4218,0.0859,-0.1335,0.1365,0.0184,0.1335,0.3237,0.2807,-0.6796,0.2684,0.2849,-0.277,-0.273,0.275,-0.276,0.1577,-0.0007,-0.2732,0.2738,-0.2968,-0.0184,-0.2802,0.276,-0.1545,0.2677,0.2813,-0.2655,0.2685,1.4422,-0.0978,-0.128,0.3955,-0.2047,1.0,-1.0,-0.4542,1.0,-1.0,-1.0,-1.0,-1.0,1.0,-1.0,-0.0356,-1.0,1.0,0.5085,1.0,1.0,1.0,1.0,0.0,0.0,0.0,0.0,0.0,0.0,0.0,0.0,0.0,-0.2267,0.0,-0.2267,0.0,3
1.72,run,16.01,2.18,-4.64,30.28,-7.92,0.0,-0.036,0.0,0.221,18.02,-23.29,78.93,-17.05,-43.33,91.41,-34.54,-0.7,106.61,2.2,11.34,83.85,3.6,23.55,101.07,18.9,-23.03,96.86,19.75,-28.75,79.19,-11.0,-49.3,82.01,-35.0,-6.0,112.72,-2.91,9.92,78.84,8.91,22.5,106.63,24.0,-18.25,102.66,0.5642,-1.0,0.1842,1.0,-1.0,-1.0,-1.0,-1.0,1.0,-1.0,-0.9506,-1.0,1.0,0.8776,0.8855,1.0,1.0,0.7002,0.033,0.006,0.006,0.019,0.013,0.006,0.013,0.026,0.019,0.0,0.013,0.006,0.013,0.013,0.033,0.019,0.026,0.006,0.2961,-0.7164,0.0138,-0.3252,-1.0293,0.2255,-0.5952,-0.3252,0.4464,0.0644,-0.115,0.112,0.0414,0.1104,0.3497,0.3053,-0.698,0.293,0.292,-0.2864,-0.2837,0.2967,-0.2857,0.093,-0.0005,-0.2896,0.2842,-0.2888,0.0565,-0.2887,0.28,-0.1949,0.2857,0.2895,-0.2553,0.2805,1.4515,0.014,0.012,0.5638,-0.0863,0.5946,-1.0,0.3612,1.0,-1.0,-0.8815,-1.0,-1.0,1.0,-1.0,-0.1041,-1.0,1.0,0.5005,1.0,1.0,1.0,1.0,0.0,0.0,0.0,0.0,0.0,0.0,0.0,0.0,0.0,-0.24,0.0,-0.24,0.0,3
1.76,run,16.24,3.58,3.99,35.33,-8.16,0.0,-0.038,0.0,0.221,19.07,-24.79,77.78,-15.64,-44.56,90.44,-34.54,-2.11,108.02,0.7,12.04,82.44,5.1,22.41,102.48,20.3,-23.47,98.17,21.25,-30.25,80.69,-9.5,-50.8,80.51,-35.0,-7.5,114.22,-4.41,8.42,77.34,10.41,21.0,108.13,25.5,-16.75,101.16,0.7846,-1.0,1.0,1.0,-1.0,-1.0,-1.0,-1.0,1.0,-1.0,-1.0,-1.0,1.0,0.799,0.5413,1.0,1.0,0.0637,0.026,0.0,0.006,0.019,0.019,0.019,0.006,0.026,0.026,0.013,0.0,0.013,0.013,0.013,0.039,0.019,0.006,0.013,0.316,-0.7424,-0.0092,-0.3007,-1.0477,0.2163,-0.5952,-0.3513,0.4694,0.0368,-0.0997,0.0874,0.0644,0.0844,0.3743,0.3298,-0.7118,0.3175,0.279,-0.2981,-0.2847,0.2995,-0.2689,0.0307,-0.0003,-0.3003,0.2851,-0.3054,0.097,-0.2939,0.2821,-0.234,0.2919,0.2945,-0.2303,0.2882,1.4456,0.1186,-0.081,0.5285,-0.1382,0.5642,-1.0,0.1842,1.0,-1.0,-1.0,-1.0,-1.0,1.0,-1.0,-0.9506,-1.0,1.0,0.8776,0.8855,1.0,1.0,0.7002,0.0,0.0,0.0,0.0,0.0,0.0,0.0,0.0,0.0,-0.2533,0.0,-0.2533,0.0,3
1.8,run,16.39,4.85,0.78,33.19,-14.51,0.0,-0.04,0.0,0.221,19.95,-26.28,76.99,-14.15,-46.14,89.3,-34.54,-3.6,109.34,-0.62,12.48,81.04,6.5,21.45,103.89,21.8,-23.55,99.49,22.75,-31.75,82.19,-8.0,-52.3,79.01,-35.0,-9.0,115.72,-5.91,6.92,75.84,11.91,22.5,109.63,27.0,-15.25,99.66,1.0,-1.0,0.8088,1.0,-1.0,-1.0,-1.0,-1.0,1.0,-1.0,-1.0,-1.0,0.497,1.0,1.0,1.0,1.0,-1.0,0.026,0.0,0.006,0.019,0.019,0.019,0.006,0.026,0.026,0.013,0.0,0.013,0.013,0.013,0.039,0.019,0.006,0.013,0.3344,-0.7685,-0.0291,-0.2761,-1.0692,0.1994,-0.5952,-0.3758,0.4939,0.0107,-0.0874,0.0629,0.0905,0.0644,0.3988,0.3543,-0.7194,0.3405,0.2642,-0.3063,-0.2739,0.3015,-0.2686,-0.0417,-0.0002,-0.3021,0.2914,-0.3114,0.1138,-0.2976,0.2951,-0.2385,0.2962,0.298,-0.1899,0.2879,1.4655,0.2408,0.0696,0.6167,-0.1424,0.7846,-1.0,1.0,1.0,-1.0,-1.0,-1.0,-1.0,1.0,-1.0,-1.0,-1.0,1.0,0.799,0.5413,1.0,1.0,0.0637,0.0,0.0,0.0,0.0,0.0,0.0,0.0,0.0,0.0,-0.2667,0.0,-0.2667,0.0,3
1.84,run,16.76,5.82,7.6,24.99,-11.01,0.0,-0.042,0.0,0.221,20.57,-27.69,76.46,-12.66,-47.55,87.8,-34.54,-4.92,110.65,-2.02,12.57,79.72,7.91,20.83,105.12,23.03,-23.64,100.46,24.25,-33.25,83.69,-6.5,-53.8,80.51,-35.0,-10.5,117.22,-7.41,5.42,74.34,10.41,24.0,108.13,28.5,-13.75,98.16,1.0,-1.0,1.0,1.0,-1.0,0.4337,-1.0,-1.0,1.0,-1.0,-0.9793,-0.6241,-1.0,1.0,0.2281,1.0,1.0,-1.0,0.026,0.0,0.006,0.019,0.019,0.019,0.006,0.026,0.026,0.013,0.0,0.013,0.013,0.013,0.039,0.019,0.006,0.013,0.3497,-0.7946,-0.043,-0.25,-1.0968,0.1795,-0.5952,-0.4019,0.517,-0.0123,-0.0798,0.0383,0.115,0.0476,0.4234,0.3804,-0.721,0.3636,0.2424,-0.3121,-0.2435,0.3088,-0.2915,-0.1039,-0.0002,-0.3092,0.2902,-0.3042,0.1084,-0.3003,0.2985,-0.2302,0.2993,0.3063,-0.1387,0.2878,1.4789,0.3512,0.0136,0.5792,-0.2532,1.0,-1.0,0.8088,1.0,-1.0,-1.0,-1.0,-1.0,1.0,-1.0,-1.0,-1.0,0.497,1.0,1.0,1.0,1.0,-1.0,0.0,0.0,0.0,0.0,0.0,0.0,0.0,0.0,0.0,-0.28,0.0,-0.28,0.0,3
1.88,run,17.01,6.89,3.8,24.39,-5.86,0.0,-0.044,0.0,0.221,21.45,-29.09,76.29,-11.16,-48.87,86.48,-34.54,-6.33,112.15,-3.52,12.66,78.31,9.14,20.48,106.35,24.43,-23.64,101.6,25.75,-34.75,85.19,-5.0,-55.3,82.01,-35.0,-12.0,118.72,-8.91,3.92,74.36,8.91,25.5,106.63,30.0,-12.25,96.66,1.0,-1.0,1.0,1.0,-1.0,1.0,-1.0,-1.0,1.0,-1.0,-0.7732,0.1101,-1.0,1.0,0.039,1.0,1.0,-1.0,0.058,0.0,0.013,0.013,0.026,0.019,0.006,0.019,0.026,0.013,0.019,0.006,0.006,0.045,0.045,0.019,0.039,0.0,0.3605,-0.8191,-0.0522,-0.224,-1.1213,0.1534,-0.5952,-0.4249,0.54,-0.0368,-0.0782,0.0153,0.1396,0.0368,0.4449,0.4019,-0.7225,0.3804,0.21,-0.3106,-0.205,0.3141,-0.2962,-0.1706,-0.0001,-0.3028,0.2895,-0.3051,0.0817,-0.2966,0.3011,-0.2014,0.2901,0.2951,-0.1029,0.2648,1.5112,0.4367,0.1327,0.4361,-0.1922,1.0,-1.0,1.0,1.0,-1.0,0.4337,-1.0,-1.0,1.0,-1.0,-0.9793,-0.6241,-1.0,1.0,0.2281,1.0,1.0,-1.0,0.0,0.0,0.0,0.0,0.0,0.0,0.0,0.0,0.0,-0.2933,0.0,-0.2933,0.0,3
1.92,run,17.25,7.37,4.11,10.06,5.25,0.0,-0.046,0.0,0.221,22.59,-30.41,76.29,-9.76,-50.27,85.08,-34.54,-7.82,113.55,-4.92,12.04,76.82,10.11,20.48,107.31,25.84,-22.5,101.78,27.25,-36.25,86.69,-3.5,-56.8,83.51,-35.0,-13.5,120.22,-10.41,2.42,75.86,7.41,27.0,105.13,31.5,-10.75,95.16,1.0,-0.7424,1.0,1.0,-1.0,1.0,-1.0,-1.0,1.0,-1.0,-0.8462,0.4509,-1.0,1.0,-0.3801,1.0,1.0,-1.0,0.058,0.0,0.013,0.013,0.026,0.019,0.006,0.019,0.026,0.013,0.019,0.006,0.006,0.045,0.045,0.019,0.039,0.0,0.3758,-0.8437,-0.0552,-0.1979,-1.1443,0.1304,-0.5952,-0.4495,0.566,-0.0629,-0.0767,-0.0092,0.1611,0.0307,0.4663,0.4264,-0.7225,0.4004,0.2045,-0.3094,-0.155,0.3175,-0.2935,-0.2057,-0.0001,-0.3039,0.3004,-0.3113,0.0629,-0.2996,0.2912,-0.164,0.2836,0.2985,-0.072,0.26,1.5325,0.5297,0.0664,0.4257,-0.1023,1.0,-1.0,1.0,1.0,-1.0,1.0,-1.0,-1.0,1.0,-1.0,-0.7732,0.1101,-1.0,1.0,0.039,1.0,1.0,-1.0,0.0,0.0,0.0,0.0,0.0,0.0,0.0,0.0,0.0,-0.3067,0.0,-0.3067,0.0,3
1.96,run,17.46,7.86,4.39,9.43,11.48,0.0,-0.048,0.0,0.221,23.82,-31.82,76.82,-8.44,-51.68,83.85,-34.54,-9.23,114.96,-6.33,10.99,75.85,10.9,20.57,108.11,27.25,-21.36,101.95,28.75,-37.75,88.19,-2.0,-58.3,85.01,-35.0,-15.0,121.72,-11.91,0.92,74.36,5.91,28.5,103.63,33.0,-9.25,93.66,1.0,-0.8512,1.0,1.0,-1.0,1.0,-1.0,-1.0,1.0,-1.0,-0.0619,-0.3578,-1.0,1.0,-0.0874,1.0,1.0,-1.0,0.058,0.0,0.013,0.013,0.026,0.019,0.006,0.019,0.026,0.013,0.019,0.006,0.006,0.045,0.045,0.019,0.039,0.0,0.3958,-0.8667,-0.0552,-0.1733,-1.1689,0.1058,-0.5952,-0.4755,0.5906,-0.0874,-0.0874,-0.0353,0.1779,0.0307,0.4832,0.451,-0.7026,0.4034,0.218,-0.3029,-0.1085,0.3144,-0.2976,-0.236,-0.0001,-0.3106,0.3024,-0.31,0.0037,-0.3076,0.2672,-0.1148,0.2618,0.301,0.0244,0.1935,1.5534,0.5715,0.0717,0.1755,0.0916,1.0,-0.7424,1.0,1.0,-1.0,1.0,-1.0,-1.0,1.0,-1.0,-0.8462,0.4509,-1.0,1.0,-0.3801,1.0,1.0,-1.0,0.0,0.0,0.0,0.0,0.0,0.0,0.0,0.0,0.0,-0.32,0.0,-0.32,0.0,3
2.0,run,17.83,7.82,7.6,-1.71,9.41,0.0,-0.05,0.0,0.221,25.22,-33.22,77.78,-7.12,-53.09,82.97,-34.63,-10.55,116.28,-7.73,9.67,75.06,11.34,21.36,108.63,28.65,-20.13,101.95,30.25,-39.25,89.69,-0.5,-59.8,86.51,-35.0,-16.5,123.22,-13.41,-0.58,72.86,4.41,30.0,102.13,34.5,-7.75,92.16,1.0,-0.8231,1.0,1.0,-1.0,1.0,-1.0,-1.0,1.0,-1.0,-0.0567,-0.2423,-1.0,1.0,-0.3758,1.0,1.0,-1.0,0.033,0.006,0.033,0.019,0.026,0.006,0.006,0.039,0.039,0.013,0.019,0.006,0.0,0.156,0.026,0.026,0.052,0.013,0.4172,-0.8912,-0.046,-0.1503,-1.1934,0.0844,-0.5952,-0.5001,0.6151,-0.112,-0.1058,-0.0522,0.1917,0.0322,0.497,0.4755,-0.6826,0.4065,0.233,-0.3039,-0.0415,0.3062,-0.3002,-0.2457,-0.0,-0.3093,0.3036,-0.3089,-0.0663,-0.2785,0.2387,-0.0746,0.235,0.3026,0.0918,0.147,1.572,0.6146,0.0766,0.1646,0.2004,1.0,-0.8512,1.0,1.0,-1.0,1.0,-1.0,-1.0,1.0,-1.0,-0.0619,-0.3578,-1.0,1.0,-0.0874,1.0,1.0,-1.0,0.0,0.0,0.0,0.0,0.0,0.0,0.0,0.0,0.0,-0.3333,0.0,-0.3333,0.0,3
2.04,run,18.39,7.64,9.05,-4.14,5.61,0.0,-0.05,0.0,0.221,26.98,-34.89,79.37,-5.27,-54.93,82.27,-34.63,-12.13,117.95,-9.49,8.0,74.18,11.25,22.76,108.63,30.32,-18.46,101.07,31.75,-40.75,91.19,1.0,-61.3,88.01,-35.0,-18.0,124.72,-14.91,0.92,71.36,2.91,30.0,100.63,35.0,-6.25,90.66,1.0,-1.0,1.0,1.0,-1.0,1.0,-1.0,-1.0,1.0,-1.0,0.8422,-0.8762,-1.0,1.0,-0.0021,1.0,1.0,-1.0,0.033,0.006,0.033,0.019,0.026,0.006,0.006,0.039,0.039,0.013,0.019,0.006,0.0,0.156,0.026,0.026,0.052,0.013,0.4418,-0.9158,-0.0291,-0.1273,-1.218,0.069,-0.5967,-0.5231,0.6381,-0.1365,-0.1289,-0.066,0.1994,0.046,0.5062,0.5001,-0.6611,0.4065,0.2552,-0.3048,0.0343,0.3007,-0.3022,-0.2295,-0.0058,-0.3028,0.2988,-0.3083,-0.1327,-0.2467,0.1959,-0.0004,0.199,0.3039,0.1448,0.1029,1.6043,0.6107,0.1327,-0.0299,0.1642,1.0,-0.8231,1.0,1.0,-1.0,1.0,-1.0,-1.0,1.0,-1.0,-0.0567,-0.2423,-1.0,1.0,-0.3758,1.0,1.0,-1.0,0.0,0.0,0.0,0.0,0.0,0.0,0.0,0.0,0.0,-0.3333,0.0,-0.3333,0.0,3
2.08,run,18.91,7.49,10.4,-3.85,7.31,0.0,-0.05,0.0,0.221,28.3,-36.3,80.77,-3.87,-56.43,82.09,-34.72,-13.45,119.44,-10.9,6.5,73.3,10.81,24.26,108.28,31.64,-17.05,100.02,33.25,-42.25,92.69,2.5,-62.8,89.51,-35.0,-19.5,126.22,-16.41,2.42,69.86,1.41,30.0,99.13,35.0,-4.75,89.16,1.0,-1.0,0.7132,1.0,-1.0,1.0,-1.0,-1.0,1.0,-1.0,1.0,-1.0,-1.0,1.0,-0.1427,1.0,1.0,-1.0,0.033,0.006,0.033,0.019,0.026,0.006,0.006,0.039,0.039,0.013,0.019,0.006,0.0,0.156,0.026,0.026,0.052,0.013,0.4725,-0.9449,-0.0015,-0.0951,-1.2502,0.0568,-0.5967,-0.5507,0.6673,-0.1672,-0.158,-0.0813,0.1979,0.0706,0.5062,0.5292,-0.632,0.3912,0.2717,-0.3018,0.1077,0.3082,-0.3093,-0.1979,-0.004,-0.2957,0.2976,-0.3089,-0.1813,-0.2192,0.1325,0.0741,0.1393,0.3011,0.1898,0.0255,1.6531,0.5951,0.158,-0.0723,0.098,1.0,-1.0,1.0,1.0,-1.0,1.0,-1.0,-1.0,1.0,-1.0,0.8422,-0.8762,-1.0,1.0,-0.0021,1.0,1.0,-1.0,0.0,0.0,0.0,0.0,0.0,0.0,0.0,0.0,0.0,-0.3333,0.0,-0.3333,0.0,3
2.12,run,19.46,7.37,12.2,-3.49,12.93,0.0,-0.05,0.0,0.221,29.62,-37.71,82.18,-2.37,-57.83,82.35,-34.72,-14.77,120.76,-12.3,5.27,72.33,9.84,25.66,107.31,32.78,-15.64,98.79,34.75,-43.75,94.19,4.0,-64.3,91.01,-35.0,-21.0,127.72,-17.91,3.92,68.36,-0.09,28.5,97.63,35.0,-3.25,87.66,1.0,-1.0,0.5861,1.0,-1.0,1.0,-1.0,-1.0,1.0,-1.0,1.0,-1.0,-1.0,0.9671,0.1196,1.0,1.0,-1.0,0.026,0.006,0.039,0.013,0.033,0.019,0.006,0.071,0.039,0.019,0.013,0.019,0.006,0.104,0.0,0.033,0.065,0.006,0.4955,-0.9695,0.023,-0.0706,-1.2763,0.0537,-0.5983,-0.5737,0.6934,-0.1917,-0.1841,-0.0966,0.1902,0.0966,0.5001,0.5522,-0.6075,0.3728,0.2757,-0.3025,0.1667,0.307,-0.3135,-0.1499,-0.0085,-0.2926,0.3053,-0.3075,-0.2239,-0.2105,0.0642,0.1489,0.0747,0.2964,0.2241,-0.0506,1.6988,0.5821,0.1815,-0.0672,0.1275,1.0,-1.0,0.7132,1.0,-1.0,1.0,-1.0,-1.0,1.0,-1.0,1.0,-1.0,-1.0,1.0,-0.1427,1.0,1.0,-1.0,0.0,0.0,0.0,0.0,0.0,0.0,0.0,0.0,0.0,-0.3333,0.0,-0.3333,0.0,3
2.16,run,20.01,7.41,9.29,0.07,13.65,0.0,-0.05,0.0,0.221,31.29,-39.38,84.02,-0.7,-59.5,83.32,-34.72,-17.05,122.52,-13.97,3.87,70.75,8.53,27.25,106.0,33.75,-13.89,97.12,35.0,-45.25,95.69,5.5,-65.8,92.51,-35.0,-22.5,129.22,-19.41,5.42,66.86,-1.59,27.0,99.13,35.0,-1.75,86.16,1.0,-1.0,0.5015,1.0,-1.0,1.0,-1.0,-1.0,1.0,-0.7469,1.0,-1.0,-1.0,0.8436,0.6695,1.0,1.0,-1.0,0.026,0.006,0.039,0.013,0.033,0.019,0.006,0.071,0.039,0.019,0.013,0.019,0.006,0.104,0.0,0.033,0.065,0.006,0.5185,-0.994,0.0476,-0.0445,-1.3008,0.0583,-0.5983,-0.5967,0.7164,-0.2163,-0.2056,-0.1135,0.1733,0.1212,0.4832,0.5722,-0.5829,0.3513,0.2798,-0.3044,0.2093,0.3133,-0.312,-0.0876,-0.006,-0.2916,0.3005,-0.3078,-0.2378,-0.211,-0.0187,0.1968,-0.0114,0.2827,0.2495,-0.1165,1.7468,0.5717,0.2129,-0.0609,0.2257,1.0,-1.0,0.5861,1.0,-1.0,1.0,-1.0,-1.0,1.0,-1.0,1.0,-1.0,-1.0,0.9671,0.1196,1.0,1.0,-1.0,0.0,0.0,0.0,0.0,0.0,0.0,0.0,0.0,0.0,-0.3333,0.0,-0.3333,0.0,3
2.2,run,20.6,7.17,12.92,-7.22,9.32,0.0,-0.05,0.0,0.221,32.52,-40.78,85.34,0.7,-60.91,84.38,-34.72,-18.46,123.93,-15.38,3.16,69.7,7.12,28.12,104.5,34.28,-12.48,95.71,35.0,-46.75,97.19,7.0,-67.3,94.01,-35.0,-24.0,130.72,-17.91,6.92,65.36,-3.09,25.5,100.63,35.0,-0.25,84.66,1.0,-0.9518,0.3935,1.0,-1.0,1.0,-1.0,-1.0,1.0,0.1016,1.0,-1.0,-1.0,0.497,1.0,1.0,1.0,-1.0,0.026,0.006,0.039,0.013,0.033,0.019,0.006,0.071,0.039,0.019,0.013,0.019,0.006,0.104,0.0,0.033,0.065,0.006,0.5476,-1.0232,0.0798,-0.0153,-1.33,0.0752,-0.5983,-0.6366,0.747,-0.2454,-0.2301,-0.1411,0.1503,0.1488,0.4602,0.589,-0.5522,0.3221,0.2852,-0.3024,0.2452,0.3086,-0.3077,-0.0096,-0.0042,-0.3264,0.3044,-0.3048,-0.2416,-0.2323,-0.0836,0.2224,-0.0785,0.2496,0.2687,-0.1708,1.7943,0.5746,0.1622,0.0013,0.2383,1.0,-1.0,0.5015,1.0,-1.0,1.0,-1.0,-1.0,1.0,-0.7469,1.0,-1.0,-1.0,0.8436,0.6695,1.0,1.0,-1.0,0.0,0.0,0.0,0.0,0.0,0.0,0.0,0.0,0.0,-0.3333,0.0,-0.3333,0.0,3
2.24,run,21.0,6.98,7.93,-4.05,3.14,0.0,-0.05,0.0,0.221,33.49,-42.19,86.75,2.11,-62.31,85.69,-34.72,-19.86,125.33,-16.79,2.72,68.38,5.71,28.83,103.18,34.54,-11.07,94.22,35.0,-48.25,95.69,8.5,-68.8,95.51,-35.0,-25.5,132.22,-16.41,8.42,63.86,-4.59,25.9,102.13,35.0,1.25,83.16,1.0,-1.0,-0.044,1.0,-1.0,0.8896,-1.0,-1.0,1.0,0.6833,1.0,-1.0,-1.0,0.9255,1.0,1.0,1.0,-1.0,0.019,0.0,0.033,0.013,0.026,0.019,0.006,0.019,0.045,0.006,0.0,0.013,0.013,0.039,0.0,0.013,0.071,0.006,0.5691,-1.0477,0.1028,0.0092,-1.3545,0.0936,-0.5983,-0.6611,0.7716,-0.27,-0.2424,-0.1595,0.1258,0.1641,0.4341,0.5983,-0.5277,0.2976,0.2799,-0.3034,0.2577,0.3078,-0.3072,0.0621,-0.0029,-0.3202,0.3048,-0.3051,-0.215,-0.2315,-0.1503,0.213,-0.1524,0.2091,0.2798,-0.2113,1.8459,0.5541,0.2256,-0.126,0.1627,1.0,-0.9518,0.3935,1.0,-1.0,1.0,-1.0,-1.0,1.0,0.1016,1.0,-1.0,-1.0,0.497,1.0,1.0,1.0,-1.0,0.0,0.0,0.0,0.0,0.0,0.0,0.0,0.0,0.0,-0.3333,0.0,-0.3333,0.0,3
2.28,run,21.31,6.72,5.67,-6.89,0.57,0.0,-0.05,0.0,0.221,34.28,-43.59,88.15,3.52,-63.81,87.19,-34.72,-21.27,126.65,-17.75,2.55,66.97,4.31,29.27,102.04,34.54,-9.67,92.81,35.0,-49.75,94.19,10.0,-70.3,97.01,-35.0,-27.0,133.72,-14.91,9.92,62.36,-6.09,26.56,103.63,35.0,2.75,81.66,1.0,-1.0,0.0611,1.0,-1.0,0.9255,-1.0,-1.0,1.0,1.0,1.0,-1.0,-1.0,0.9374,1.0,1.0,1.0,-1.0,0.019,0.0,0.033,0.013,0.026,0.019,0.006,0.019,0.045,0.006,0.0,0.013,0.013,0.039,0.0,0.013,0.071,0.006,0.586,-1.0723,0.1273,0.0337,-1.379,0.1166,-0.5983,-0.6857,0.7961,-0.2945,-0.25,-0.1825,0.1012,0.1764,0.4111,0.6029,-0.5031,0.2715,0.2589,-0.304,0.2719,0.307,-0.3066,0.1293,-0.002,-0.3157,0.3049,-0.3052,-0.1791,-0.2479,-0.1968,0.1949,-0.1925,0.1636,0.2874,-0.2452,1.8809,0.5375,0.1384,-0.0707,0.0548,1.0,-1.0,-0.044,1.0,-1.0,0.8896,-1.0,-1.0,1.0,0.6833,1.0,-1.0,-1.0,0.9255,1.0,1.0,1.0,-1.0,0.0,0.0,0.0,0.0,0.0,0.0,0.0,0.0,0.0,-0.3333,0.0,-0.3333,0.0,3
2.32,run,21.4,6.45,-0.08,-7.68,-2.3,0.0,-0.05,0.0,0.221,34.63,-45.0,89.65,4.92,-65.13,88.59,-34.72,-22.68,128.06,-18.46,2.72,65.65,2.9,29.18,101.25,34.54,-8.26,91.49,35.0,-51.25,92.69,11.5,-71.8,98.51,-35.0,-28.5,135.22,-13.41,11.42,60.86,-7.59,28.06,105.13,35.0,4.25,80.16,1.0,-1.0,0.1021,1.0,-1.0,0.8641,-1.0,-1.0,1.0,1.0,1.0,-1.0,-1.0,1.0,1.0,1.0,1.0,-1.0,0.019,0.0,0.033,0.013,0.026,0.019,0.006,0.019,0.045,0.006,0.0,0.013,0.013,0.039,0.0,0.013,0.071,0.006,0.5998,-1.0968,0.1519,0.0583,-1.4051,0.1427,-0.5983,-0.7102,0.8191,-0.3114,-0.2531,-0.2071,0.0767,0.1841,0.3912,0.6029,-0.4786,0.247,0.233,-0.3048,0.2824,0.3069,-0.3124,0.1883,-0.0014,-0.313,0.2997,-0.2769,-0.1369,-0.2655,-0.2297,0.1652,-0.2095,0.1145,0.2932,-0.2637,1.9078,0.5148,0.099,-0.1202,0.0099,1.0,-1.0,0.0611,1.0,-1.0,0.9255,-1.0,-1.0,1.0,1.0,1.0,-1.0,-1.0,0.9374,1.0,1.0,1.0,-1.0,0.0,0.0,0.0,0.0,0.0,0.0,0.0,0.0,0.0,-0.3333,0.0,-0.3333,0.0,3
2.36,run,21.36,6.17,-2.05,-8.93,-0.94,0.0,-0.05,0.0,0.221,34.8,-46.23,91.05,6.33,-66.62,90.0,-34.72,-24.08,129.2,-18.9,3.43,64.25,1.41,28.65,100.81,34.54,-6.86,90.09,35.0,-52.75,94.19,13.0,-73.3,100.01,-35.0,-30.0,136.72,-11.91,12.92,59.36,-9.09,29.56,106.63,35.0,5.75,78.66,1.0,-1.0,0.3954,1.0,-1.0,0.7682,-1.0,-1.0,1.0,1.0,1.0,-0.9382,-1.0,1.0,1.0,1.0,1.0,-1.0,0.006,0.013,0.019,0.026,0.026,0.013,0.006,0.033,0.104,0.006,0.006,0.019,0.013,0.0,0.0,0.013,0.065,0.006,0.6059,-1.1213,0.1779,0.0828,-1.4281,0.1672,-0.5983,-0.7348,0.8437,-0.3237,-0.25,-0.2301,0.0522,0.1825,0.3774,0.6029,-0.4541,0.224,0.1862,-0.3056,0.2957,0.3071,-0.3052,0.2241,-0.001,-0.3114,0.3021,-0.2399,-0.0843,-0.2724,-0.2531,0.1099,-0.1986,0.0801,0.2975,-0.2711,1.9157,0.4912,-0.0013,-0.134,-0.0401,1.0,-1.0,0.1021,1.0,-1.0,0.8641,-1.0,-1.0,1.0,1.0,1.0,-1.0,-1.0,1.0,1.0,1.0,1.0,-1.0,0.0,0.0,0.0,0.0,0.0,0.0,0.0,0.0,0.0,-0.3333,0.0,-0.3333,0.0,3
2.4,run,21.2,5.84,-6.5,-8.97,-2.59,0.0,-0.05,0.0,0.221,34.8,-47.2,92.2,7.73,-68.03,91.49,-34.72,-25.49,130.52,-18.9,4.48,62.84,0.0,28.21,100.72,34.63,-5.45,88.68,35.0,-54.25,95.69,14.5,-74.8,101.51,-35.0,-31.5,138.22,-10.41,14.42,57.86,-10.59,30.0,108.13,35.0,7.25,77.16,1.0,-1.0,0.6168,1.0,-1.0,0.6882,-1.0,-1.0,1.0,0.958,1.0,-0.6049,-1.0,1.0,1.0,1.0,1.0,-1.0,0.006,0.013,0.019,0.026,0.026,0.013,0.006,0.033,0.104,0.006,0.006,0.019,0.013,0.0,0.0,0.013,0.065,0.006,0.609,-1.1428,0.2025,0.1074,-1.4542,0.1917,-0.5983,-0.7593,0.8636,-0.3313,-0.2378,-0.2546,0.0261,0.1733,0.3697,0.6029,-0.4295,0.1994,0.1418,-0.2942,0.2987,0.3067,-0.3111,0.2486,-0.0007,-0.3097,0.286,-0.1966,-0.0131,-0.2824,-0.2747,0.0425,-0.1677,0.0561,0.3,-0.2815,1.9127,0.4664,-0.0358,-0.1559,-0.0165,1.0,-1.0,0.3954,1.0,-1.0,0.7682,-1.0,-1.0,1.0,1.0,1.0,-0.9382,-1.0,1.0,1.0,1.0,1.0,-1.0,0.0,0.0,0.0,0.0,0.0,0.0,0.0,0.0,0.0,-0.3333,0.0,-0.3333,0.0,3
2.44,run,21.09,5.33,-5.11,-11.57,-0.76,0.0,-0.05,0.0,0.221,34.89,-48.96,93.16,9.14,-69.43,92.81,-34.72,-26.89,131.75,-18.63,5.71,61.44,-1.41,28.12,100.72,34.63,-4.13,87.19,35.0,-55.75,97.19,16.0,-76.3,103.01,-35.0,-33.0,139.72,-8.91,15.92,56.36,-12.09,30.0,109.63,35.0,8.75,75.66,1.0,-1.0,1.0,1.0,-1.0,0.5774,-1.0,-1.0,1.0,0.694,1.0,-0.2501,-1.0,1.0,0.9145,1.0,1.0,-1.0,0.006,0.013,0.019,0.026,0.026,0.013,0.006,0.033,0.104,0.006,0.006,0.019,0.013,0.0,0.0,0.013,0.065,0.006,0.609,-1.1597,0.2224,0.1319,-1.4788,0.2178,-0.5983,-0.7839,0.8866,-0.3313,-0.2194,-0.2792,0.0015,0.1657,0.3682,0.6044,-0.405,0.1749,0.0992,-0.269,0.2836,0.3064,-0.3095,0.2715,-0.0005,-0.3085,0.2862,-0.1376,0.0596,-0.2894,-0.284,0.0011,-0.1231,0.045,0.3017,-0.2888,1.8988,0.4381,-0.1135,-0.1565,-0.0453,1.0,-1.0,0.6168,1.0,-1.0,0.6882,-1.0,-1.0,1.0,0.958,1.0,-0.6049,-1.0,1.0,1.0,1.0,1.0,-1.0,0.0,0.0,0.0,0.0,0.0,0.0,0.0,0.0,0.0,-0.3333,0.0,-0.3333,0.0,3
2.48,run,21.02,4.87,-4.49,-9.7,1.26,0.0,-0.05,0.0,0.221,34.98,-50.36,94.13,10.55,-70.84,94.22,-34.72,-28.3,132.98,-17.58,7.12,59.94,-2.72,28.04,101.51,34.63,-2.9,85.78,35.0,-57.25,98.69,14.5,-77.8,101.51,-35.0,-34.5,141.22,-7.41,17.42,57.86,-13.59,30.0,108.13,35.0,7.25,74.16,1.0,-1.0,1.0,0.3529,-1.0,0.2603,-1.0,-1.0,1.0,0.043,1.0,0.1502,-1.0,1.0,0.4483,1.0,0.3548,-1.0,0.0,0.026,0.019,0.019,0.026,0.013,0.0,0.026,0.136,0.013,0.006,0.013,0.013,0.033,0.019,0.013,0.104,0.006,0.6105,-1.1904,0.2393,0.1565,-1.5033,0.2408,-0.5983,-0.8084,0.9081,-0.3267,-0.1979,-0.3037,-0.023,0.1641,0.3682,0.6044,-0.382,0.1488,0.0752,-0.3039,0.2621,0.307,-0.3091,0.2767,-0.0003,-0.3084,0.2812,-0.079,0.1226,-0.295,-0.2912,-0.005,-0.0862,0.0315,0.2979,-0.3004,1.8889,0.3934,-0.0893,-0.2019,-0.0133,1.0,-1.0,1.0,1.0,-1.0,0.5774,-1.0,-1.0,1.0,0.694,1.0,-0.2501,-1.0,1.0,0.9145,1.0,1.0,-1.0,0.0,0.0,0.0,0.0,0.0,0.0,0.0,0.0,0.0,-0.3333,0.0,-0.3333,0.0,3
2.52,run,20.92,4.47,-3.53,-10.58,4.12,0.0,-0.05,0.0,0.221,34.98,-51.68,95.45,11.95,-72.25,95.8,-34.72,-29.62,134.03,-16.7,8.61,58.71,-4.13,28.65,102.39,34.63,-1.41,84.46,35.0,-58.75,100.19,13.0,-76.3,100.01,-35.0,-36.0,142.72,-8.91,18.92,59.36,-15.09,30.0,106.63,35.0,5.75,72.66,1.0,-1.0,1.0,-0.9361,-0.6826,-0.2055,-1.0,-1.0,1.0,-0.6918,1.0,0.6365,-1.0,1.0,-0.052,1.0,0.5116,-1.0,0.0,0.026,0.019,0.019,0.026,0.013,0.0,0.026,0.136,0.013,0.006,0.013,0.013,0.033,0.019,0.013,0.104,0.006,0.6121,-1.2149,0.2562,0.181,-1.5278,0.2654,-0.5983,-0.833,0.9296,-0.3083,-0.1733,-0.3298,-0.046,0.1626,0.382,0.6044,-0.3605,0.1243,0.0584,-0.3046,0.2466,0.3068,-0.3082,0.2856,-0.0002,-0.3078,0.2773,0.0136,0.1777,-0.3041,-0.29,-0.0093,-0.0086,0.0221,0.2889,-0.3021,1.8828,0.3531,-0.0783,-0.1693,0.022,1.0,-1.0,1.0,0.3529,-1.0,0.2603,-1.0,-1.0,1.0,0.043,1.0,0.1502,-1.0,1.0,0.4483,1.0,0.3548,-1.0,0.0,0.0,0.0,0.0,0.0,0.0,0.0,0.0,0.0,-0.3333,0.0,-0.3333,0.0,3
2.56,run,20.85,4.22,-2.45,-7.29,4.48,0.0,-0.05,0.0,0.221,34.98,-53.17,96.59,13.01,-73.74,97.12,-34.72,-31.03,134.91,-15.29,9.93,57.74,-5.62,29.09,103.62,34.63,0.0,82.97,35.0,-60.25,101.69,11.5,-74.8,98.51,-35.0,-37.5,144.22,-10.41,20.42,60.86,-16.59,30.0,105.13,35.0,4.25,71.16,1.0,-1.0,1.0,-1.0,-0.1508,-0.6677,-1.0,-1.0,1.0,-1.0,1.0,0.9955,-1.0,1.0,-0.7608,1.0,0.2492,-1.0,0.0,0.026,0.019,0.019,0.026,0.013,0.0,0.026,0.136,0.013,0.006,0.013,0.013,0.033,0.019,0.013,0.104,0.006,0.6121,-1.2379,0.2792,0.2056,-1.5524,0.293,-0.5983,-0.856,0.948,-0.293,-0.1473,-0.3513,-0.0706,0.1733,0.3973,0.6044,-0.3344,0.1012,0.0409,-0.2996,0.2591,0.3069,-0.3079,0.3036,-0.0002,-0.3018,0.2632,0.0671,0.2223,-0.2935,-0.2952,0.0338,0.0516,0.0154,0.3002,-0.2979,1.8737,0.3188,-0.0615,-0.1846,0.0719,1.0,-1.0,1.0,-0.9361,-0.6826,-0.2055,-1.0,-1.0,1.0,-0.6918,1.0,0.6365,-1.0,1.0,-0.052,1.0,0.5116,-1.0,0.0,0.0,0.0,0.0,0.0,0.0,0.0,0.0,0.0,-0.3333,0.0,-0.3333,0.0,3
2.6,run,20.75,3.77,-3.83,-11.17,0.11,0.0,-0.05,0.0,0.5,34.98,-54.58,97.91,13.8,-74.88,98.26,-34.72,-32.43,135.62,-13.89,11.43,57.04,-7.03,29.36,104.77,34.63,1.49,81.47,35.0,-61.75,103.19,10.0,-73.3,97.01,-35.0,-39.0,145.72,-11.91,21.92,62.36,-18.09,30.0,103.63,35.0,5.75,69.66,1.0,-0.8138,1.0,-1.0,-0.32,-1.0,-1.0,-1.0,1.0,-1.0,1.0,1.0,-1.0,1.0,-1.0,1.0,1.0,-1.0,0.0,0.026,0.013,0.006,0.013,0.006,0.0,0.033,0.5,0.013,0.006,0.0,0.006,0.019,0.019,0.013,0.065,0.013,0.6121,-1.264,0.2991,0.224,-1.5785,0.316,-0.5983,-0.8805,0.9633,-0.2684,-0.1243,-0.3682,-0.0966,0.181,0.4188,0.6044,-0.3099,0.0752,0.0286,-0.3075,0.2561,0.2838,-0.3133,0.2988,-0.0001,-0.3033,0.2417,0.139,0.2419,-0.2687,-0.3044,0.0524,0.1166,0.0108,0.3021,-0.3063,1.8681,0.2963,-0.0428,-0.1273,0.0783,1.0,-1.0,1.0,-1.0,-0.1508,-0.6677,-1.0,-1.0,1.0,-1.0,1.0,0.9955,-1.0,1.0,-0.7608,1.0,0.2492,-1.0,0.0,0.0,0.0,0.0,0.0,0.0,0.0,0.0,0.0,-0.3333,0.0,-0.3333,0.0,3
2.64,run,20.72,3.39,-2.78,-9.56,-0.72,0.0,-0.05,0.0,0.5,34.98,-55.99,99.32,14.33,-75.76,99.05,-34.72,-33.84,136.14,-12.57,12.83,56.6,-8.44,29.44,105.47,34.63,2.64,80.16,35.0,-63.25,104.69,8.5,-71.8,95.51,-35.0,-40.5,147.22,-13.41,23.42,63.86,-19.59,30.0,102.13,35.0,4.25,68.16,1.0,-0.8131,1.0,-1.0,-0.5209,-1.0,-1.0,-1.0,1.0,-1.0,1.0,1.0,-1.0,1.0,-1.0,1.0,-0.2636,-1.0,0.0,0.026,0.013,0.006,0.013,0.006,0.0,0.033,0.5,0.013,0.006,0.0,0.006,0.019,0.019,0.013,0.065,0.013,0.6121,-1.2885,0.3221,0.2378,-1.5984,0.3359,-0.5983,-0.905,0.9756,-0.2439,-0.0982,-0.3804,-0.1212,0.1856,0.4387,0.6044,-0.2838,0.0491,0.02,-0.3073,0.2656,0.2505,-0.2941,0.284,-0.0001,-0.3044,0.2153,0.1894,0.2672,-0.2342,-0.3051,0.054,0.1564,0.0076,0.3093,-0.3122,1.8593,0.2575,-0.0669,-0.195,0.0019,1.0,-0.8138,1.0,-1.0,-0.32,-1.0,-1.0,-1.0,1.0,-1.0,1.0,1.0,-1.0,1.0,-1.0,1.0,1.0,-1.0,0.0,0.0,0.0,0.0,0.0,0.0,0.0,0.0,0.0,-0.3333,0.0,-0.3333,0.0,3
2.68,run,20.62,3.15,-4.65,-6.13,0.47,0.0,-0.05,0.0,0.5,34.98,-57.39,100.63,14.5,-76.38,99.67,-34.72,-35.24,136.76,-11.6,14.24,56.6,-9.84,29.44,106.0,34.63,3.52,78.75,35.0,-61.75,106.19,7.0,-70.3,94.01,-35.0,-42.0,148.72,-14.91,24.92,65.36,-21.09,30.0,100.63,35.0,5.75,66.66,1.0,-0.501,1.0,-1.0,-0.0886,-0.6166,-1.0,-1.0,1.0,-1.0,1.0,1.0,-1.0,1.0,-1.0,1.0,0.6125,-1.0,0.0,0.026,0.013,0.006,0.013,0.006,0.0,0.033,0.5,0.013,0.006,0.0,0.006,0.019,0.019,0.013,0.065,0.013,0.6121,-1.3131,0.3467,0.247,-1.6137,0.3497,-0.5983,-0.9296,0.9848,-0.2209,-0.0736,-0.3881,-0.1457,0.1871,0.451,0.6044,-0.2638,0.0261,0.014,-0.3071,0.2779,0.2098,-0.2634,0.2505,-0.0001,-0.3051,0.1852,0.2188,0.279,-0.1927,-0.3056,0.0435,0.1555,0.0053,0.2913,-0.3048,1.8561,0.2238,-0.0485,-0.1669,-0.0126,1.0,-0.8131,1.0,-1.0,-0.5209,-1.0,-1.0,-1.0,1.0,-1.0,1.0,1.0,-1.0,1.0,-1.0,1.0,-0.2636,-1.0,0.0,0.0,0.0,0.0,0.0,0.0,0.0,0.0,0.0,-0.3333,0.0,-0.3333,0.0,3
2.72,run,20.57,3.07,-3.12,-1.13,1.96,0.0,-0.05,0.0,1.41,34.98,-58.8,102.04,14.41,-76.64,99.84,-34.72,-36.56,137.2,-10.9,15.64,56.95,-11.25,29.44,106.26,34.63,4.22,77.26,35.0,-60.25,107.69,5.5,-71.8,92.51,-35.0,-43.5,147.22,-16.41,26.42,66.86,-22.59,30.0,99.13,35.0,7.25,65.16,1.0,-0.0475,1.0,-1.0,-1.0,-1.0,-1.0,-1.0,0.8567,-1.0,1.0,1.0,-1.0,1.0,-1.0,1.0,0.7499,-1.0,0.0,0.006,0.013,0.013,0.0,0.006,0.0,0.065,1.41,0.006,0.006,0.013,0.013,0.019,0.0,0.019,0.045,0.006,0.6121,-1.3376,0.3697,0.25,-1.6245,0.3605,-0.5983,-0.9541,0.9956,-0.204,-0.0491,-0.3881,-0.1703,0.1871,0.4602,0.6044,-0.2485,0.0015,0.0098,-0.3071,0.2809,0.1584,-0.2247,0.2156,-0.0,-0.3056,0.1699,0.2165,0.2874,-0.1349,-0.306,0.0305,0.1434,0.0037,0.2614,-0.3054,1.8474,0.2034,-0.0811,-0.107,0.0082,1.0,-0.501,1.0,-1.0,-0.0886,-0.6166,-1.0,-1.0,1.0,-1.0,1.0,1.0,-1.0,1.0,-1.0,1.0,0.6125,-1.0,0.0,0.0,0.0,0.0,0.0,0.0,0.0,0.0,0.0,-0.3333,0.0,-0.3333,0.0,3
2.76,run,20.71,3.2,2.62,3.76,1.87,0.0,-0.05,0.0,1.41,34.98,-59.85,103.45,14.24,-76.55,99.76,-34.72,-37.97,137.37,-10.55,17.05,57.92,-12.57,29.44,106.0,34.63,4.75,75.85,35.0,-58.75,109.19,4.0,-73.3,91.01,-35.0,-45.0,145.72,-17.91,27.92,68.36,-24.09,30.0,97.63,35.0,8.75,63.66,1.0,0.8437,1.0,-1.0,-1.0,-1.0,-1.0,-1.0,-0.2069,-1.0,1.0,1.0,-1.0,1.0,-1.0,1.0,0.8819,-1.0,0.0,0.006,0.013,0.013,0.0,0.006,0.0,0.065,1.41,0.006,0.006,0.013,0.013,0.019,0.0,0.019,0.045,0.006,0.6121,-1.3622,0.3942,0.2485,-1.6291,0.3636,-0.5983,-0.9771,1.0032,-0.1917,-0.0245,-0.382,-0.1948,0.1871,0.4648,0.6044,-0.2362,-0.0245,0.0069,-0.3072,0.2889,0.1051,-0.1746,0.1625,-0.0,-0.3004,0.1478,0.1977,0.2934,-0.0713,-0.3065,0.0213,0.1177,0.0026,0.2291,-0.3118,1.843,0.1965,-0.0545,-0.0198,0.0343,1.0,-0.0475,1.0,-1.0,-1.0,-1.0,-1.0,-1.0,0.8567,-1.0,1.0,1.0,-1.0,1.0,-1.0,1.0,0.7499,-1.0,0.0,0.0,0.0,0.0,0.0,0.0,0.0,0.0,0.0,-0.3333,0.0,-0.3333,0.0,3
2.8,run,21.01,3.53,6.41,8.78,-2.96,0.0,-0.05,0.0,1.41,34.98,-60.73,104.77,13.36,-76.38,99.14,-34.72,-39.38,137.37,-10.55,18.37,58.89,-13.97,29.44,105.38,34.63,5.45,74.44,35.0,-57.25,110.69,2.5,-74.8,89.51,-33.5,-46.5,144.22,-19.41,26.42,69.86,-25.59,30.0,96.13,35.0,10.25,62.16,1.0,1.0,1.0,-1.0,-1.0,-1.0,-0.7344,-1.0,-1.0,-1.0,-0.0401,1.0,-1.0,1.0,-1.0,1.0,1.0,-1.0,0.0,0.006,0.013,0.013,0.0,0.006,0.0,0.065,1.41,0.006,0.006,0.013,0.013,0.019,0.0,0.019,0.045,0.006,0.6121,-1.3806,0.4188,0.2454,-1.6276,0.362,-0.5983,-1.0017,1.0063,-0.1856,0.0,-0.3651,-0.2178,0.1871,0.4602,0.6044,-0.227,-0.0491,0.0048,-0.2839,0.294,0.0621,-0.1165,0.108,-0.0,-0.3021,0.1149,0.1613,0.2972,0.0131,-0.3005,0.0149,0.0652,0.0018,0.1948,-0.31,1.8558,0.208,0.0457,0.0656,0.0326,1.0,0.8437,1.0,-1.0,-1.0,-1.0,-1.0,-1.0,-0.2069,-1.0,1.0,1.0,-1.0,1.0,-1.0,1.0,0.8819,-1.0,0.0,0.0,0.0,0.0,0.0,0.0,0.0,0.0,0.0,-0.3333,0.0,-0.3333,0.0,3
2.84,run,21.46,4.06,10.55,13.46,-2.17,0.0,-0.05,0.0,2.411,34.98,-61.26,106.17,11.87,-75.59,98.0,-34.72,-40.78,137.37,-10.72,19.16,60.21,-15.47,29.53,104.5,34.63,6.24,73.04,35.0,-55.75,112.19,1.0,-76.3,88.01,-32.0,-48.0,142.72,-20.91,24.92,71.36,-27.09,30.0,94.63,35.0,11.75,60.66,1.0,1.0,1.0,-1.0,-1.0,-1.0,1.0,-1.0,-1.0,-1.0,-0.6333,1.0,-1.0,1.0,-1.0,1.0,1.0,-1.0,0.0,0.006,0.013,0.013,0.006,0.019,0.013,0.026,2.411,0.013,0.033,0.019,0.013,0.013,0.019,0.019,0.084,0.006,0.6121,-1.3959,0.4418,0.2301,-1.6245,0.3513,-0.5983,-1.0262,1.0063,-0.1856,0.023,-0.3482,-0.2424,0.1871,0.4495,0.6044,-0.2148,-0.0736,0.0034,-0.2563,0.2922,-0.0141,-0.07,0.0353,-0.0,-0.3036,0.0804,0.1129,0.2944,0.0726,-0.3025,0.0105,0.0053,0.0013,0.1824,-0.3092,1.882,0.2365,0.1119,0.1533,-0.0516,1.0,1.0,1.0,-1.0,-1.0,-1.0,-0.7344,-1.0,-1.0,-1.0,-0.0401,1.0,-1.0,1.0,-1.0,1.0,1.0,-1.0,0.0,0.0,0.0,0.0,0.0,0.0,0.0,0.0,0.0,-0.3333,0.0,-0.3333,0.0,3
2.88,run,22.09,4.68,16.53,15.05,-2.12,0.0,-0.05,0.0,2.411,34.98,-61.35,107.67,10.55,-75.15,96.94,-34.72,-42.19,137.37,-12.04,21.01,61.61,-16.88,29.62,103.18,34.63,7.38,71.63,35.0,-54.25,113.69,-0.5,-77.8,86.51,-30.5,-49.5,141.22,-22.41,23.42,72.86,-28.59,30.0,93.13,35.0,13.25,59.16,1.0,1.0,1.0,-1.0,-1.0,-1.0,1.0,-1.0,-1.0,-1.0,-1.0,1.0,-1.0,1.0,-1.0,1.0,1.0,-0.8079,0.0,0.006,0.013,0.013,0.006,0.019,0.013,0.026,2.411,0.013,0.033,0.019,0.013,0.013,0.019,0.019,0.084,0.006,0.6121,-1.4051,0.4663,0.204,-1.6107,0.3313,-0.5983,-1.0508,1.0063,-0.1887,0.0368,-0.3252,-0.2684,0.1887,0.4341,0.6044,-0.201,-0.0982,0.0024,-0.2139,0.2964,-0.1075,0.0027,-0.0499,-0.0,-0.3044,0.0563,0.0676,0.2578,0.1369,-0.3094,0.0131,-0.0537,0.0009,0.1794,-0.3083,1.9209,0.2827,0.1841,0.235,-0.0379,1.0,1.0,1.0,-1.0,-1.0,-1.0,1.0,-1.0,-1.0,-1.0,-0.6333,1.0,-1.0,1.0,-1.0,1.0,1.0,-1.0,0.0,0.0,0.0,0.0,0.0,0.0,0.0,0.0,0.0,-0.3333,0.0,-0.3333,0.0,3
2.92,run,22.49,5.05,10.06,8.44,1.37,0.0,-0.05,0.0,2.411,34.98,-61.44,108.98,9.05,-74.97,95.36,-34.1,-43.59,137.37,-12.92,22.32,63.02,-18.28,29.79,101.78,34.63,8.44,70.22,35.0,-52.75,115.19,-2.0,-79.3,85.01,-29.0,-51.0,139.72,-23.91,21.92,74.36,-30.09,30.0,91.63,35.0,14.75,57.66,1.0,1.0,1.0,-1.0,-1.0,-1.0,1.0,-1.0,-1.0,-1.0,-1.0,1.0,-1.0,1.0,-1.0,1.0,1.0,-0.2208,0.0,0.006,0.013,0.013,0.006,0.019,0.013,0.026,2.411,0.013,0.033,0.019,0.013,0.013,0.019,0.019,0.084,0.006,0.6121,-1.4067,0.4924,0.181,-1.603,0.3129,-0.5983,-1.0753,1.0063,-0.2117,0.069,-0.3007,-0.293,0.1902,0.4111,0.6044,-0.181,-0.1227,0.0017,-0.1555,0.3059,-0.1621,0.0308,-0.1044,-0.0,-0.3057,0.0394,-0.0396,0.302,0.1885,-0.3092,0.0149,-0.1245,0.0006,0.2008,-0.3085,1.9765,0.3371,0.2885,0.2627,-0.037,1.0,1.0,1.0,-1.0,-1.0,-1.0,1.0,-1.0,-1.0,-1.0,-1.0,1.0,-1.0,1.0,-1.0,1.0,1.0,-0.8079,0.0,0.0,0.0,0.0,0.0,0.0,0.0,0.0,0.0,-0.3333,0.0,-0.3333,0.0,3
2.96,run,23.11,4.65,9.43,-9.17,-1.89,0.0,-0.05,0.0,2.411,34.98,-61.08,110.83,7.21,-74.97,93.52,-32.52,-45.35,137.37,-14.68,23.55,64.86,-20.04,30.15,99.93,34.63,10.2,68.29,35.0,-51.25,116.69,-3.5,-80.0,83.51,-27.5,-52.5,138.22,-25.41,20.42,75.86,-31.59,30.0,90.13,35.0,16.25,59.16,1.0,1.0,1.0,-1.0,-1.0,-1.0,1.0,-1.0,-1.0,-1.0,-1.0,1.0,-1.0,1.0,-1.0,1.0,1.0,0.2189,0.0,0.019,0.026,0.019,0.026,0.019,0.019,0.058,1.618,0.019,0.006,0.019,0.019,0.013,0.013,0.013,0.104,0.006,0.6121,-1.4082,0.5154,0.1549,-1.5999,0.2853,-0.5875,-1.0999,1.0063,-0.227,0.092,-0.2761,-0.3175,0.1933,0.3866,0.6044,-0.1626,-0.1473,0.0012,-0.1146,0.2999,-0.2107,0.033,-0.176,0.04,-0.3055,0.0276,-0.0849,0.2972,0.2234,-0.3079,0.0219,-0.1786,0.0004,0.2092,-0.3074,2.0109,0.369,0.1756,0.1473,0.0239,1.0,1.0,1.0,-1.0,-1.0,-1.0,1.0,-1.0,-1.0,-1.0,-1.0,1.0,-1.0,1.0,-1.0,1.0,1.0,-0.2208,0.0,0.0,0.0,0.0,0.0,0.0,0.0,0.0,0.0,-0.3333,0.0,-0.3333,0.0,3
3.0,run,23.09,4.21,-2.3,-10.42,-3.69,0.0,-0.05,0.0,2.411,34.98,-59.77,112.24,5.62,-75.76,92.02,-31.03,-46.85,137.37,-16.26,24.08,66.36,-21.71,30.23,98.26,34.63,11.69,66.71,35.0,-49.75,118.19,-5.0,-80.0,82.01,-26.0,-54.0,136.72,-26.91,18.92,77.36,-33.09,30.0,88.63,35.0,17.75,60.66,1.0,1.0,1.0,-1.0,-1.0,-1.0,1.0,-1.0,-1.0,-1.0,-1.0,1.0,-1.0,1.0,-1.0,1.0,1.0,1.0,0.0,0.019,0.026,0.019,0.026,0.019,0.019,0.058,1.618,0.019,0.006,0.019,0.019,0.013,0.013,0.013,0.104,0.006,0.6121,-1.4021,0.5476,0.1227,-1.5999,0.2531,-0.5599,-1.1305,1.0063,-0.2577,0.1135,-0.2439,-0.3482,0.1994,0.3543,0.6044,-0.1319,-0.181,0.0008,-0.0625,0.3029,-0.2404,0.0231,-0.2162,0.1077,-0.3023,0.0193,-0.1479,0.27,0.2493,-0.3041,0.033,-0.218,0.0003,0.235,-0.3125,2.065,0.334,0.1646,-0.1601,-0.033,1.0,1.0,1.0,-1.0,-1.0,-1.0,1.0,-1.0,-1.0,-1.0,-1.0,1.0,-1.0,1.0,-1.0,1.0,1.0,0.2189,0.0,0.0,0.0,0.0,0.0,0.0,0.0,0.0,0.0,-0.3333,0.0,-0.3333,0.0,3
3.04,run,23.27,3.92,3.75,-5.96,0.16,0.0,-0.05,0.0,2.411,34.98,-58.45,113.47,4.22,-76.82,90.53,-29.79,-48.25,137.37,-17.49,24.26,67.68,-23.03,30.06,96.94,34.63,13.01,65.3,35.0,-48.25,119.69,-6.5,-80.0,80.51,-24.5,-55.5,135.22,-28.41,17.42,78.86,-34.59,30.0,87.13,35.0,16.25,62.16,1.0,1.0,1.0,-1.0,-1.0,-0.939,1.0,-1.0,-1.0,-1.0,-0.6586,1.0,-1.0,1.0,-1.0,1.0,-0.9786,1.0,0.0,0.019,0.026,0.019,0.026,0.019,0.019,0.058,1.618,0.019,0.006,0.019,0.019,0.013,0.013,0.013,0.104,0.006,0.6121,-1.379,0.5722,0.0951,-1.6137,0.227,-0.5338,-1.1566,1.0063,-0.2853,0.1227,-0.2178,-0.3774,0.201,0.3252,0.6044,-0.1058,-0.2086,0.0006,0.0341,0.295,-0.2617,-0.0305,-0.2395,0.1635,-0.2998,0.0135,-0.1969,0.2201,0.2627,-0.3114,0.0283,-0.2511,0.0002,0.2526,-0.3121,2.0631,0.2955,-0.0401,-0.1818,-0.0644,1.0,1.0,1.0,-1.0,-1.0,-1.0,1.0,-1.0,-1.0,-1.0,-1.0,1.0,-1.0,1.0,-1.0,1.0,1.0,1.0,0.0,0.0,0.0,0.0,0.0,0.0,0.0,0.0,0.0,-0.3333,0.0,-0.3333,0.0,3
3.08,run,23.34,3.67,-0.4,-7.2,2.78,0.0,-0.05,0.0,2.411,34.98,-57.13,114.87,2.81,-77.87,89.12,-28.48,-49.75,137.37,-18.81,24.26,69.08,-24.52,30.06,95.36,34.63,14.15,63.98,35.0,-46.75,121.19,-8.0,-80.0,82.01,-23.0,-57.0,133.72,-29.91,15.92,80.36,-35.0,30.0,85.63,35.0,14.75,63.66,1.0,1.0,1.0,-1.0,-1.0,0.5758,1.0,-1.0,-1.0,-1.0,-0.7762,1.0,-1.0,1.0,-1.0,1.0,0.3804,1.0,0.0,0.033,0.045,0.013,0.013,0.019,0.019,0.071,0.37,0.039,0.0,0.039,0.013,0.006,0.006,0.013,0.058,0.006,0.6121,-1.356,0.5937,0.0706,-1.6322,0.201,-0.5123,-1.1812,1.0063,-0.3068,0.1258,-0.1948,-0.4004,0.1979,0.3022,0.6044,-0.0828,-0.2332,0.0004,0.1093,0.2862,-0.2743,-0.0897,-0.2645,0.1942,-0.301,0.0095,-0.2176,0.1655,0.2693,-0.3034,0.0084,-0.2612,0.0001,0.2623,-0.3096,2.0791,0.2703,0.0654,-0.104,0.0027,1.0,1.0,1.0,-1.0,-1.0,-0.939,1.0,-1.0,-1.0,-1.0,-0.6586,1.0,-1.0,1.0,-1.0,1.0,-0.9786,1.0,0.0,0.0,0.0,0.0,0.0,0.0,0.0,0.0,0.0,-0.3333,0.0,-0.3333,0.0,3
3.12,run,23.39,3.25,0.98,-8.81,-1.66,0.0,-0.05,0.0,2.411,34.98,-55.55,116.63,0.97,-78.84,87.28,-26.72,-51.5,137.37,-20.48,23.47,70.75,-26.19,30.15,93.69,34.63,15.29,62.67,35.0,-45.25,122.69,-9.5,-80.0,80.51,-21.5,-58.5,132.22,-31.41,14.42,81.86,-35.0,30.0,84.13,35.0,13.25,65.16,1.0,0.853,1.0,-1.0,-1.0,-0.0685,1.0,-1.0,-1.0,-1.0,-0.635,1.0,-1.0,1.0,-1.0,1.0,-1.0,1.0,0.0,0.033,0.045,0.013,0.013,0.019,0.019,0.071,0.37,0.039,0.0,0.039,0.013,0.006,0.006,0.013,0.058,0.006,0.6121,-1.333,0.6182,0.046,-1.6506,0.1764,-0.4893,-1.2072,1.0063,-0.3298,0.1258,-0.1703,-0.4264,0.1979,0.2746,0.6044,-0.0629,-0.2562,0.0003,0.1627,0.2923,-0.2839,-0.1317,-0.2771,0.2221,-0.3084,0.0066,-0.2385,0.1158,0.2805,-0.3101,0.0059,-0.2863,0.0001,0.2583,-0.3029,2.0851,0.2484,-0.0069,-0.1257,0.0485,1.0,1.0,1.0,-1.0,-1.0,0.5758,1.0,-1.0,-1.0,-1.0,-0.7762,1.0,-1.0,1.0,-1.0,1.0,0.3804,1.0,0.0,0.0,0.0,0.0,0.0,0.0,0.0,0.0,0.0,-0.3333,0.0,-0.3333,0.0,3
3.16,run,23.36,2.91,-4.19,-7.29,-3.24,0.0,-0.05,0.0,2.411,34.98,-54.23,117.86,-0.35,-79.37,85.87,-25.49,-52.91,137.2,-21.88,22.5,72.07,-27.69,30.06,92.29,34.63,16.0,61.96,35.0,-43.75,124.19,-11.0,-80.0,82.01,-20.0,-60.0,130.72,-32.91,12.92,83.36,-35.0,30.0,82.63,35.0,11.75,66.66,1.0,0.7009,1.0,-1.0,-1.0,1.0,1.0,-0.9722,-1.0,-1.0,-0.0649,1.0,-1.0,1.0,-1.0,1.0,-1.0,1.0,0.0,0.033,0.045,0.013,0.013,0.019,0.019,0.071,0.37,0.039,0.0,0.039,0.013,0.006,0.006,0.013,0.058,0.006,0.6121,-1.3054,0.6489,0.0138,-1.6674,0.1442,-0.4587,-1.2379,1.0063,-0.359,0.112,-0.1411,-0.4556,0.1994,0.2454,0.6044,-0.043,-0.2792,0.0002,0.1979,0.298,-0.2968,-0.1436,-0.292,0.2489,-0.3093,0.0046,-0.2557,0.0391,0.2851,-0.3058,0.0088,-0.2891,0.0001,0.2415,-0.2821,2.0897,0.2117,0.0171,-0.1538,-0.029,1.0,0.853,1.0,-1.0,-1.0,-0.0685,1.0,-1.0,-1.0,-1.0,-0.635,1.0,-1.0,1.0,-1.0,1.0,-1.0,1.0,0.0,0.0,0.0,0.0,0.0,0.0,0.0,0.0,0.0,-0.3333,0.0,-0.3333,0.0,3
3.2,run,23.16,2.61,-6.28,-7.9,0.93,0.0,-0.05,0.0,2.411,34.89,-52.82,119.27,-1.85,-79.54,84.55,-24.08,-54.4,136.85,-23.12,21.18,73.48,-29.09,30.15,90.88,34.63,16.26,61.52,35.0,-42.25,125.69,-12.5,-80.0,83.51,-18.5,-58.5,129.22,-34.41,11.42,84.86,-35.0,30.0,81.13,35.0,10.25,68.16,1.0,0.7081,1.0,-1.0,-1.0,1.0,1.0,-0.6034,-1.0,-1.0,-0.1099,1.0,-1.0,1.0,-1.0,1.0,-1.0,1.0,0.0,0.045,0.045,0.019,0.006,0.006,0.019,0.071,0.006,0.071,0.0,0.045,0.013,0.0,0.013,0.019,0.019,0.006,0.6121,-1.2824,0.6703,-0.0092,-1.6766,0.1197,-0.4372,-1.2625,1.0032,-0.3835,0.0951,-0.1181,-0.4817,0.1979,0.2209,0.6044,-0.0307,-0.2915,0.0001,0.2241,0.2885,-0.2933,-0.1347,-0.2957,0.2541,-0.3077,-0.0082,-0.2702,-0.0354,0.2851,-0.311,0.0005,-0.2936,0.0001,0.2147,-0.2431,2.087,0.1819,-0.0731,-0.1272,-0.0566,1.0,0.7009,1.0,-1.0,-1.0,1.0,1.0,-0.9722,-1.0,-1.0,-0.0649,1.0,-1.0,1.0,-1.0,1.0,-1.0,1.0,0.0,0.0,0.0,0.0,0.0,0.0,0.0,0.0,0.0,-0.3333,0.0,-0.3333,0.0,3
3.24,run,23.19,2.58,1.05,0.26,2.36,0.0,-0.05,0.0,2.411,34.89,-51.15,120.85,-3.52,-79.54,83.23,-22.41,-55.99,135.79,-24.79,19.42,75.23,-30.85,30.15,89.03,34.63,16.26,61.44,35.0,-40.75,127.19,-14.0,-80.0,85.01,-17.0,-57.0,127.72,-35.0,9.92,86.36,-35.0,30.0,79.63,35.0,8.75,69.66,1.0,0.6681,1.0,-1.0,-1.0,1.0,1.0,-0.0952,-1.0,-1.0,0.2295,1.0,-1.0,1.0,-1.0,1.0,-1.0,1.0,0.0,0.045,0.045,0.019,0.006,0.006,0.019,0.071,0.006,0.071,0.0,0.045,0.013,0.0,0.013,0.019,0.019,0.006,0.6105,-1.2579,0.6949,-0.0353,-1.6797,0.0966,-0.4126,-1.2885,0.9971,-0.405,0.0721,-0.0936,-0.5062,0.1994,0.1963,0.6044,-0.0261,-0.2991,-0.0057,0.2496,0.2947,-0.3039,-0.1059,-0.2939,0.2706,-0.314,-0.0289,-0.2703,-0.1117,0.2923,-0.3105,0.0061,-0.2983,0.0,0.1677,-0.1992,2.0695,0.1565,-0.1096,-0.138,0.0163,1.0,0.7081,1.0,-1.0,-1.0,1.0,1.0,-0.6034,-1.0,-1.0,-0.1099,1.0,-1.0,1.0,-1.0,1.0,-1.0,1.0,0.0,0.0,0.0,0.0,0.0,0.0,0.0,0.0,0.0,-0.3333,0.0,-0.3333,0.0,3
3.28,run,23.21,2.65,-0.39,1.59,1.15,0.0,-0.05,0.0,2.411,34.89,-49.83,122.08,-5.01,-79.54,82.53,-21.18,-57.04,134.82,-26.19,18.11,76.64,-32.26,30.06,87.63,34.63,16.0,61.61,35.0,-39.25,125.69,-15.5,-80.0,86.51,-15.5,-55.5,126.22,-35.0,8.42,87.86,-35.0,30.0,78.13,35.0,7.25,71.16,1.0,0.8997,0.2592,-1.0,-1.0,0.6892,1.0,0.0117,-1.0,-1.0,-0.283,1.0,-1.0,1.0,-0.3226,1.0,-1.0,1.0,0.0,0.045,0.045,0.019,0.006,0.006,0.019,0.071,0.006,0.071,0.0,0.045,0.013,0.0,0.013,0.019,0.019,0.006,0.6105,-1.2287,0.7225,-0.0644,-1.6797,0.0736,-0.3835,-1.3162,0.9787,-0.4341,0.0414,-0.0629,-0.5369,0.1994,0.1641,0.6044,-0.0261,-0.3007,-0.004,0.2636,0.2905,-0.3016,-0.0741,-0.2759,0.2783,-0.304,-0.0764,-0.2781,-0.1718,0.2982,-0.3109,0.0043,-0.307,0.0,0.1174,-0.1441,2.0716,0.1538,0.0183,0.0045,0.0412,1.0,0.6681,1.0,-1.0,-1.0,1.0,1.0,-0.0952,-1.0,-1.0,0.2295,1.0,-1.0,1.0,-1.0,1.0,-1.0,1.0,0.0,0.0,0.0,0.0,0.0,0.0,0.0,0.0,0.0,-0.3333,0.0,-0.3333,0.0,3
3.32,run,23.04,2.49,-4.76,-5.1,-2.46,0.0,-0.05,0.0,2.411,34.89,-48.52,123.31,-6.42,-79.54,82.18,-19.69,-57.74,133.77,-27.6,16.61,78.05,-33.31,30.06,86.22,34.63,15.21,62.31,35.0,-37.75,124.19,-17.0,-80.0,88.01,-14.0,-54.0,124.72,-35.0,6.92,89.36,-35.0,30.0,79.63,35.0,5.75,72.66,1.0,0.8672,-0.509,-1.0,-1.0,0.7081,1.0,1.0,-1.0,-1.0,-0.643,1.0,-1.0,1.0,1.0,1.0,-1.0,1.0,0.0,0.078,0.065,0.013,0.006,0.006,0.019,0.019,0.006,0.117,0.0,0.045,0.006,0.006,0.013,0.019,0.006,0.026,0.6105,-1.2057,0.744,-0.0905,-1.6797,0.0614,-0.362,-1.3346,0.9618,-0.4587,0.0184,-0.0383,-0.5614,0.1979,0.1396,0.6044,-0.0307,-0.2976,-0.0028,0.2704,0.2835,-0.3084,-0.0519,-0.2389,0.2749,-0.2815,-0.1164,-0.2862,-0.2061,0.3003,-0.3092,-0.0027,-0.3065,0.0,0.065,-0.0894,2.0736,0.1592,-0.0068,0.0278,0.02,1.0,0.8997,0.2592,-1.0,-1.0,0.6892,1.0,0.0117,-1.0,-1.0,-0.283,1.0,-1.0,1.0,-0.3226,1.0,-1.0,1.0,0.0,0.0,0.0,0.0,0.0,0.0,0.0,0.0,0.0,-0.3333,0.0,-0.3333,0.0,3
3.36,run,22.82,2.36,-6.33,-3.88,-4.96,0.0,-0.05,0.0,2.411,34.89,-47.29,124.19,-7.82,-79.54,82.09,-18.28,-58.18,132.71,-28.92,15.29,79.54,-34.19,30.06,84.81,34.63,14.06,63.37,35.0,-36.25,122.69,-18.5,-80.0,89.51,-12.5,-52.5,123.22,-35.0,5.42,87.86,-35.0,30.0,81.13,35.0,4.25,74.16,1.0,-0.132,-1.0,-1.0,-1.0,1.0,1.0,1.0,-1.0,-1.0,-0.7059,0.0916,-1.0,1.0,1.0,1.0,-1.0,1.0,0.0,0.078,0.065,0.013,0.006,0.006,0.019,0.019,0.006,0.117,0.0,0.045,0.006,0.006,0.013,0.019,0.006,0.026,0.6105,-1.1827,0.7655,-0.115,-1.6797,0.0552,-0.3359,-1.3468,0.9434,-0.4832,-0.0077,-0.0138,-0.5798,0.1979,0.115,0.6044,-0.0445,-0.2853,-0.002,0.2757,0.2791,-0.3081,-0.0363,-0.1903,0.2904,-0.2431,-0.1506,-0.2925,-0.2422,0.3024,-0.2856,-0.0019,-0.3067,0.0,-0.0064,-0.0165,2.0588,0.1452,-0.083,-0.0889,-0.043,1.0,0.8672,-0.509,-1.0,-1.0,0.7081,1.0,1.0,-1.0,-1.0,-0.643,1.0,-1.0,1.0,1.0,1.0,-1.0,1.0,0.0,0.0,0.0,0.0,0.0,0.0,0.0,0.0,0.0,-0.3333,0.0,-0.3333,0.0,3
3.4,run,22.54,2.37,-8.34,0.47,-4.81,0.0,-0.05,0.0,2.411,34.89,-46.05,124.8,-9.23,-79.54,82.44,-16.88,-58.18,131.75,-30.23,13.8,80.95,-34.63,30.06,83.5,34.63,12.74,64.6,35.0,-37.75,121.19,-20.0,-80.0,91.01,-11.0,-51.0,121.72,-35.0,3.92,86.36,-35.0,30.0,82.63,35.0,2.75,75.66,1.0,-0.4925,-1.0,-1.0,-1.0,1.0,1.0,1.0,-1.0,-1.0,-1.0,-0.2772,-1.0,1.0,1.0,1.0,-1.0,1.0,0.0,0.078,0.065,0.013,0.006,0.006,0.019,0.019,0.006,0.117,0.0,0.045,0.006,0.006,0.013,0.019,0.006,0.026,0.6105,-1.1612,0.7808,-0.1396,-1.6797,0.0537,-0.3114,-1.3545,0.925,-0.5062,-0.0307,0.0123,-0.5952,0.1979,0.0905,0.6044,-0.0644,-0.2669,-0.0014,0.274,0.2532,-0.3082,-0.0254,-0.139,0.2959,-0.1991,-0.1749,-0.2916,-0.2564,0.3101,-0.2578,-0.0013,-0.3073,0.0,-0.0797,0.0579,2.0394,0.1341,-0.1104,-0.0677,-0.0866,1.0,-0.132,-1.0,-1.0,-1.0,1.0,1.0,1.0,-1.0,-1.0,-0.7059,0.0916,-1.0,1.0,1.0,1.0,-1.0,1.0,0.0,0.0,0.0,0.0,0.0,0.0,0.0,0.0,0.0,-0.3333,0.0,-0.3333,0.0,3
3.44,run,22.28,2.26,-6.89,-2.86,-1.59,0.0,-0.05,0.0,2.411,34.89,-44.74,125.16,-10.63,-79.54,83.5,-15.47,-57.66,130.43,-31.46,12.39,82.27,-34.89,29.97,82.53,34.54,11.34,66.09,35.0,-39.25,119.69,-21.5,-80.0,92.51,-9.5,-49.5,120.22,-35.0,2.42,84.86,-35.0,30.0,84.13,35.0,1.25,77.16,1.0,-0.3451,-1.0,-1.0,-1.0,1.0,0.6629,1.0,-0.546,-1.0,-1.0,-0.6916,-1.0,1.0,1.0,1.0,-1.0,1.0,0.0,0.123,0.065,0.006,0.013,0.006,0.019,0.006,0.013,0.104,0.0,0.052,0.006,0.0,0.013,0.019,0.013,0.026,0.6105,-1.1397,0.7915,-0.1641,-1.6797,0.0598,-0.2869,-1.3545,0.9081,-0.5292,-0.0568,0.0368,-0.6029,0.1979,0.0675,0.6044,-0.0874,-0.2454,-0.001,0.2718,0.2172,-0.3072,-0.0178,-0.0744,0.2985,-0.1394,-0.1853,-0.2898,-0.2766,0.3084,-0.209,-0.0009,-0.3008,0.0,-0.1415,0.1205,2.0149,0.1353,-0.1455,0.0082,-0.084,1.0,-0.4925,-1.0,-1.0,-1.0,1.0,1.0,1.0,-1.0,-1.0,-1.0,-0.2772,-1.0,1.0,1.0,1.0,-1.0,1.0,0.0,0.0,0.0,0.0,0.0,0.0,0.0,0.0,0.0,-0.3333,0.0,-0.3333,0.0,3
3.48,run,21.97,2.17,-6.66,-1.6,-8.33,0.0,-0.05,0.0,2.411,34.89,-43.33,125.24,-12.39,-79.54,84.81,-13.8,-56.69,128.76,-32.61,10.63,83.85,-34.8,29.79,81.47,34.54,9.67,67.76,35.0,-40.75,118.19,-23.0,-80.0,94.01,-11.0,-48.0,118.72,-35.0,0.92,83.36,-35.0,30.0,85.63,35.0,-0.25,78.66,1.0,-0.9667,-1.0,-1.0,-1.0,1.0,-0.8224,1.0,0.5317,-1.0,-1.0,-1.0,-1.0,1.0,1.0,1.0,-1.0,1.0,0.0,0.123,0.065,0.006,0.013,0.006,0.019,0.006,0.013,0.104,0.0,0.052,0.006,0.0,0.013,0.019,0.013,0.026,0.6105,-1.1167,0.7977,-0.1887,-1.6797,0.0782,-0.2623,-1.3453,0.8851,-0.5507,-0.0813,0.0598,-0.6075,0.1963,0.0506,0.6029,-0.112,-0.2194,-0.0007,0.2771,0.1752,-0.3077,-0.0125,0.0174,0.3016,-0.0628,-0.2166,-0.284,-0.2863,0.3028,-0.1637,-0.0064,-0.2743,-0.0058,-0.1917,0.1828,1.993,0.1259,-0.1203,-0.0499,-0.0277,1.0,-0.3451,-1.0,-1.0,-1.0,1.0,0.6629,1.0,-0.546,-1.0,-1.0,-0.6916,-1.0,1.0,1.0,1.0,-1.0,1.0,0.0,0.0,0.0,0.0,0.0,0.0,0.0,0.0,0.0,-0.3333,0.0,-0.3333,0.0,3
3.52,run,21.56,2.08,-11.7,-2.45,-7.82,0.0,-0.05,0.0,2.411,34.89,-42.45,125.24,-13.8,-79.54,86.22,-12.48,-55.55,127.44,-33.31,9.23,84.81,-34.89,29.79,81.04,34.54,8.26,69.26,35.0,-42.25,116.69,-24.5,-80.0,95.51,-12.5,-46.5,120.22,-35.0,-0.58,81.86,-33.5,30.0,87.13,35.0,-1.75,80.16,1.0,-1.0,-1.0,-1.0,-1.0,1.0,-1.0,0.1743,1.0,-1.0,-0.6826,-1.0,-0.1785,1.0,1.0,1.0,-1.0,1.0,0.0,0.123,0.065,0.006,0.013,0.006,0.019,0.006,0.013,0.104,0.0,0.052,0.006,0.0,0.013,0.019,0.013,0.026,0.6105,-1.0922,0.7992,-0.2194,-1.6797,0.1012,-0.2332,-1.3284,0.856,-0.5706,-0.112,0.0874,-0.6059,0.1933,0.0322,0.6029,-0.1411,-0.1902,-0.0005,0.2699,0.1274,-0.3102,-0.0087,0.0833,0.3012,0.0082,-0.2417,-0.2604,-0.2952,0.2973,-0.1098,-0.014,-0.2489,-0.0041,-0.2243,0.2181,1.9656,0.1178,-0.1163,-0.0279,-0.1453,1.0,-0.9667,-1.0,-1.0,-1.0,1.0,-0.8224,1.0,0.5317,-1.0,-1.0,-1.0,-1.0,1.0,1.0,1.0,-1.0,1.0,0.0,0.0,0.0,0.0,0.0,0.0,0.0,0.0,0.0,-0.3333,0.0,-0.3333,0.0,3
3.56,run,21.39,1.99,-4.24,-2.64,-3.71,0.0,-0.05,0.0,2.411,34.89,-41.75,125.07,-15.21,-79.54,87.71,-11.34,-54.05,126.12,-33.84,7.91,85.43,-34.89,29.71,81.04,34.54,6.86,70.66,35.0,-43.75,115.19,-26.0,-80.0,97.01,-14.0,-45.0,121.72,-35.0,-2.08,80.36,-32.0,30.0,88.63,35.0,-3.25,81.66,1.0,-1.0,-1.0,-1.0,-1.0,1.0,-1.0,-0.1695,1.0,-1.0,-0.9851,-1.0,0.9912,1.0,1.0,1.0,-1.0,1.0,0.0,0.13,0.0,0.013,0.006,0.019,0.013,0.013,0.045,0.071,0.0,0.026,0.013,0.013,0.0,0.019,0.013,0.026,0.6105,-1.0769,0.7992,-0.2439,-1.6797,0.1258,-0.2102,-1.3085,0.833,-0.5829,-0.1365,0.1043,-0.6075,0.1933,0.0245,0.6029,-0.1657,-0.1641,-0.0003,0.246,0.0892,-0.3086,-0.0061,0.1497,0.2966,0.08,-0.2549,-0.228,-0.2981,0.271,-0.0826,-0.0098,-0.2028,-0.0028,-0.2484,0.2498,1.9298,0.1095,-0.2042,-0.0428,-0.1365,1.0,-1.0,-1.0,-1.0,-1.0,1.0,-1.0,0.1743,1.0,-1.0,-0.6826,-1.0,-0.1785,1.0,1.0,1.0,-1.0,1.0,0.0,0.0,0.0,0.0,0.0,0.0,0.0,0.0,0.0,-0.3333,0.0,-0.3333,0.0,3
3.6,run,21.13,1.94,-6.08,-3.13,1.16,0.0,-0.05,0.0,2.411,34.89,-41.4,124.19,-16.61,-79.54,89.12,-10.55,-52.65,124.8,-33.93,6.5,85.87,-34.28,29.71,81.47,34.54,5.45,72.07,35.0,-45.25,113.69,-27.5,-80.0,98.51,-15.5,-46.5,123.22,-35.0,-3.58,78.86,-30.5,30.0,90.13,35.0,-4.75,83.16,1.0,-1.0,-1.0,-1.0,-1.0,1.0,-1.0,-0.8328,1.0,-1.0,-1.0,-1.0,1.0,1.0,1.0,1.0,-1.0,1.0,0.0,0.13,0.0,0.013,0.006,0.019,0.013,0.013,0.045,0.071,0.0,0.026,0.013,0.013,0.0,0.019,0.013,0.026,0.6105,-1.0646,0.7961,-0.2684,-1.6797,0.1519,-0.1902,-1.2824,0.8099,-0.5921,-0.1595,0.115,-0.6075,0.1917,0.0245,0.6029,-0.1902,-0.1396,-0.0002,0.2182,0.0509,-0.3079,-0.0043,0.2024,0.2822,0.1536,-0.2645,-0.194,-0.2948,0.2299,-0.0578,-0.0126,-0.142,-0.002,-0.2658,0.2667,1.9147,0.102,-0.0741,-0.046,-0.0648,1.0,-1.0,-1.0,-1.0,-1.0,1.0,-1.0,-0.1695,1.0,-1.0,-0.9851,-1.0,0.9912,1.0,1.0,1.0,-1.0,1.0,0.0,0.0,0.0,0.0,0.0,0.0,0.0,0.0,0.0,-0.3333,0.0,-0.3333,0.0,3
3.64,run,20.93,2.02,-6.54,1.21,-1.62,0.0,-0.05,0.0,2.411,34.89,-41.22,122.96,-18.02,-79.54,90.53,-10.02,-51.24,123.75,-33.93,5.27,85.87,-33.31,29.62,82.18,34.54,4.13,73.56,35.0,-46.75,112.19,-26.0,-80.0,100.01,-17.0,-48.0,124.72,-35.0,-5.08,77.36,-29.0,30.0,91.63,35.0,-6.25,84.66,1.0,-0.794,-1.0,-0.6021,-1.0,1.0,-1.0,-0.9947,1.0,-1.0,-1.0,-1.0,1.0,1.0,1.0,1.0,-1.0,1.0,0.0,0.13,0.0,0.013,0.006,0.019,0.013,0.013,0.045,0.071,0.0,0.026,0.013,0.013,0.0,0.019,0.013,0.026,0.6105,-1.0584,0.7808,-0.293,-1.6797,0.1764,-0.1764,-1.2579,0.7869,-0.5937,-0.1841,0.1227,-0.5967,0.1917,0.0322,0.6029,-0.2148,-0.115,-0.0002,0.1757,-0.0219,-0.3075,-0.003,0.2337,0.2493,0.1996,-0.2715,-0.1416,-0.2984,0.1897,-0.0002,-0.0088,-0.0706,-0.0014,-0.2781,0.2787,1.8923,0.0979,-0.106,-0.0546,0.0203,1.0,-1.0,-1.0,-1.0,-1.0,1.0,-1.0,-0.8328,1.0,-1.0,-1.0,-1.0,1.0,1.0,1.0,1.0,-1.0,1.0,0.0,0.0,0.0,0.0,0.0,0.0,0.0,0.0,0.0,-0.3333,0.0,-0.3333,0.0,3
3.68,run,20.76,2.03,-5.1,-0.06,0.82,0.0,-0.05,0.0,2.411,34.89,-41.22,121.73,-19.42,-79.54,92.02,-9.84,-49.92,122.96,-34.28,3.87,85.43,-32.17,29.62,83.14,34.54,2.72,75.06,35.0,-48.25,110.69,-24.5,-80.0,101.51,-18.5,-49.5,126.22,-35.0,-6.58,75.86,-27.5,30.0,93.13,35.0,-7.75,86.16,1.0,-0.5083,-1.0,-0.0741,-1.0,1.0,-1.0,-1.0,1.0,-1.0,-1.0,-1.0,1.0,1.0,1.0,1.0,-1.0,1.0,0.0,0.006,0.0,0.019,0.006,0.013,0.006,0.006,0.033,0.039,0.006,0.013,0.019,0.019,0.019,0.019,0.013,0.019,0.6105,-1.0554,0.7593,-0.3175,-1.6797,0.201,-0.1672,-1.2333,0.7685,-0.5937,-0.2056,0.1227,-0.5798,0.1902,0.0445,0.6029,-0.2378,-0.089,-0.0001,0.1345,-0.0958,-0.3073,-0.0021,0.2556,0.209,0.2317,-0.259,-0.0991,-0.2894,0.1328,0.0631,-0.0119,-0.0034,-0.001,-0.2809,0.2929,1.8745,0.1043,-0.1142,0.0211,-0.0282,1.0,-0.794,-1.0,-0.6021,-1.0,1.0,-1.0,-0.9947,1.0,-1.0,-1.0,-1.0,1.0,1.0,1.0,1.0,-1.0,1.0,0.0,0.0,0.0,0.0,0.0,0.0,0.0,0.0,0.0,-0.3333,0.0,-0.3333,0.0,3
3.72,run,20.51,2.14,-8.04,1.94,3.51,0.0,-0.05,0.0,2.411,34.89,-41.22,120.41,-20.83,-79.54,93.43,-9.84,-48.96,122.52,-34.28,2.55,84.73,-30.76,29.53,84.46,34.63,1.58,76.46,35.0,-49.75,109.19,-23.0,-80.0,103.01,-20.0,-51.0,127.72,-35.0,-8.08,74.36,-26.0,30.0,94.63,35.0,-9.25,87.66,1.0,-0.5228,-1.0,0.4937,-1.0,1.0,-1.0,-1.0,1.0,-1.0,-1.0,-1.0,1.0,1.0,1.0,1.0,-1.0,1.0,0.0,0.006,0.0,0.019,0.006,0.013,0.006,0.006,0.033,0.039,0.006,0.013,0.019,0.019,0.019,0.019,0.013,0.019,0.6105,-1.0554,0.7378,-0.3421,-1.6797,0.227,-0.1641,-1.2103,0.7547,-0.5998,-0.2301,0.115,-0.5599,0.1902,0.0614,0.6029,-0.2623,-0.0629,-0.0001,0.0942,-0.1477,-0.3072,-0.0015,0.2768,0.1578,0.2485,-0.2331,-0.0924,-0.2947,0.0642,0.119,-0.0083,0.0609,-0.0007,-0.2887,0.3029,1.86,0.1052,-0.089,-0.001,0.0143,1.0,-0.5083,-1.0,-0.0741,-1.0,1.0,-1.0,-1.0,1.0,-1.0,-1.0,-1.0,1.0,1.0,1.0,1.0,-1.0,1.0,0.0,0.0,0.0,0.0,0.0,0.0,0.0,0.0,0.0,-0.3333,0.0,-0.3333,0.0,3
3.76,run,20.29,2.48,-6.36,8.18,9.62,0.0,-0.05,0.0,2.411,34.89,-42.1,119.09,-22.06,-79.54,94.83,-10.2,-48.16,122.34,-34.45,1.67,83.5,-29.44,29.44,85.96,34.63,-0.09,77.87,35.0,-48.25,107.69,-21.5,-80.0,104.51,-21.5,-52.5,129.22,-35.0,-9.58,72.86,-24.5,30.0,96.13,35.0,-10.75,89.16,1.0,-0.2835,-1.0,1.0,-1.0,1.0,-1.0,-1.0,1.0,-1.0,-1.0,-1.0,1.0,1.0,1.0,1.0,-1.0,1.0,0.0,0.006,0.0,0.019,0.006,0.013,0.006,0.006,0.033,0.039,0.006,0.013,0.019,0.019,0.019,0.019,0.013,0.019,0.6105,-1.0554,0.7148,-0.3666,-1.6797,0.2516,-0.1641,-1.1934,0.747,-0.5998,-0.2531,0.1028,-0.5354,0.1887,0.0844,0.6044,-0.2823,-0.0383,-0.0001,0.0659,-0.1892,-0.3066,-0.001,0.2853,0.1105,0.2369,-0.1918,-0.0647,-0.2921,-0.0009,0.1748,-0.0116,0.1285,0.0052,-0.2765,0.3035,1.8381,0.1147,-0.1403,0.0339,0.0613,1.0,-0.5228,-1.0,0.4937,-1.0,1.0,-1.0,-1.0,1.0,-1.0,-1.0,-1.0,1.0,1.0,1.0,1.0,-1.0,1.0,0.0,0.0,0.0,0.0,0.0,0.0,0.0,0.0,0.0,-0.3333,0.0,-0.3333,0.0,3
3.8,run,20.34,3.0,0.26,12.56,15.36,0.0,-0.05,0.0,2.411,34.89,-43.24,117.69,-23.12,-79.54,96.24,-11.51,-47.81,122.34,-34.45,-0.18,82.09,-27.86,29.44,87.19,34.63,-1.49,79.37,35.0,-46.75,106.19,-20.0,-80.0,106.01,-23.0,-54.0,130.72,-35.0,-11.08,71.36,-23.0,30.0,97.63,35.0,-12.25,90.66,1.0,0.3986,-1.0,1.0,-1.0,1.0,-1.0,-1.0,1.0,-1.0,-1.0,-1.0,1.0,1.0,1.0,1.0,-1.0,1.0,0.0,0.0,0.0,0.0,0.006,0.013,0.019,0.0,0.0,0.019,0.006,0.006,0.0,0.019,0.039,0.013,0.019,0.019,0.6105,-1.0707,0.6918,-0.3881,-1.6797,0.2761,-0.1703,-1.1796,0.744,-0.6029,-0.2684,0.0813,-0.5123,0.1871,0.1104,0.6044,-0.3114,-0.0138,-0.0,-0.0114,-0.2187,-0.2951,-0.0007,0.2917,0.0543,0.2176,-0.1458,-0.0568,-0.262,-0.0811,0.2086,-0.0138,0.1877,0.0037,-0.3028,0.3045,1.8187,0.1449,-0.111,0.1428,0.1679,1.0,-0.2835,-1.0,1.0,-1.0,1.0,-1.0,-1.0,1.0,-1.0,-1.0,-1.0,1.0,1.0,1.0,1.0,-1.0,1.0,0.0,0.0,0.0,0.0,0.0,0.0,0.0,0.0,0.0,-0.3333,0.0,-0.3333,0.0,3
3.84,run,20.18,3.64,-4.77,16.87,8.96,0.0,-0.05,0.0,2.411,34.89,-44.47,116.37,-23.73,-79.54,97.65,-12.74,-47.99,122.52,-34.63,-1.49,80.77,-26.54,29.44,88.51,34.72,-3.16,80.77,35.0,-45.25,104.69,-18.5,-80.0,107.51,-24.5,-55.5,132.22,-35.0,-12.58,69.86,-21.5,30.0,99.13,35.0,-13.75,92.16,1.0,0.9871,-1.0,1.0,-1.0,1.0,-1.0,-1.0,1.0,-1.0,-1.0,-1.0,1.0,1.0,1.0,1.0,-1.0,1.0,0.0,0.0,0.0,0.0,0.006,0.013,0.019,0.0,0.0,0.019,0.006,0.006,0.0,0.019,0.039,0.013,0.019,0.019,0.6105,-1.0907,0.6673,-0.4065,-1.6797,0.3007,-0.1933,-1.1735,0.744,-0.6029,-0.3007,0.0568,-0.4847,0.1871,0.1319,0.6044,-0.3359,0.0123,-0.0,-0.0825,-0.2448,-0.2754,-0.0005,0.2959,-0.048,0.1752,-0.102,-0.0397,-0.3038,-0.1485,0.2493,-0.0097,0.2116,0.0026,-0.3037,0.3106,1.8231,0.1902,0.0045,0.2192,0.2681,1.0,0.3986,-1.0,1.0,-1.0,1.0,-1.0,-1.0,1.0,-1.0,-1.0,-1.0,1.0,1.0,1.0,1.0,-1.0,1.0,0.0,0.0,0.0,0.0,0.0,0.0,0.0,0.0,0.0,-0.3333,0.0,-0.3333,0.0,3
3.88,run,19.88,3.84,-6.79,5.65,2.68,0.0,-0.05,0.0,2.411,34.89,-45.35,114.96,-24.17,-79.54,99.05,-14.15,-48.25,123.4,-34.89,-2.81,79.37,-25.05,29.36,89.82,34.72,-4.66,82.18,35.0,-43.75,103.19,-17.0,-80.0,109.01,-26.0,-57.0,133.72,-35.0,-14.08,68.36,-20.0,30.0,100.63,35.0,-15.25,93.66,1.0,1.0,-1.0,1.0,-1.0,1.0,-1.0,-1.0,1.0,-1.0,-1.0,-1.0,1.0,1.0,1.0,1.0,-1.0,1.0,0.0,0.0,0.0,0.0,0.006,0.013,0.019,0.0,0.0,0.019,0.006,0.006,0.0,0.019,0.039,0.013,0.019,0.019,0.6105,-1.1121,0.6443,-0.4172,-1.6797,0.3252,-0.2148,-1.1766,0.747,-0.6059,-0.3237,0.0337,-0.4617,0.1871,0.1549,0.6059,-0.3651,0.0368,-0.0,-0.1389,-0.2584,-0.2334,-0.0004,0.2999,-0.1148,0.1111,-0.0598,-0.0394,-0.2996,-0.1909,0.2615,-0.0068,0.2351,0.0076,-0.3228,0.3102,1.8094,0.2464,-0.0833,0.2944,0.1565,1.0,0.9871,-1.0,1.0,-1.0,1.0,-1.0,-1.0,1.0,-1.0,-1.0,-1.0,1.0,1.0,1.0,1.0,-1.0,1.0,0.0,0.0,0.0,0.0,0.0,0.0,0.0,0.0,0.0,-0.3333,0.0,-0.3333,0.0,3
3.92,run,19.77,4.27,-2.79,11.14,-3.17,0.0,-0.05,0.0,2.411,34.89,-46.23,113.55,-24.17,-79.54,100.46,-15.47,-49.13,124.37,-34.89,-4.31,77.87,-23.73,29.36,91.05,34.72,-5.98,83.58,35.0,-42.25,101.69,-15.5,-80.0,110.51,-27.5,-58.5,135.22,-35.0,-15.58,66.86,-18.5,30.0,102.13,35.0,-16.75,95.16,1.0,1.0,-1.0,1.0,-1.0,1.0,-1.0,-1.0,1.0,-1.0,-1.0,-1.0,1.0,1.0,1.0,1.0,-1.0,1.0,0.0,0.0,0.013,0.006,0.006,0.013,0.019,0.019,0.019,0.0,0.019,0.013,0.0,0.033,0.058,0.013,0.013,0.019,0.6105,-1.1275,0.6197,-0.4249,-1.6797,0.3497,-0.2393,-1.1812,0.7624,-0.6105,-0.3467,0.0092,-0.4357,0.1856,0.1779,0.6059,-0.3912,0.0614,-0.0,-0.1545,-0.2724,-0.192,-0.0002,0.3015,-0.1719,0.0606,0.0153,-0.0448,-0.2956,-0.2252,0.2803,-0.0105,0.2504,0.0053,-0.3232,0.3087,1.7828,0.2634,-0.1184,0.0985,0.0468,1.0,1.0,-1.0,1.0,-1.0,1.0,-1.0,-1.0,1.0,-1.0,-1.0,-1.0,1.0,1.0,1.0,1.0,-1.0,1.0,0.0,0.0,0.0,0.0,0.0,0.0,0.0,0.0,0.0,-0.3333,0.0,-0.3333,0.0,3
3.96,run,19.67,4.59,-3.63,7.77,-0.82,0.0,-0.05,0.0,2.411,34.89,-46.67,112.24,-23.91,-79.54,101.95,-16.88,-50.1,125.24,-34.89,-5.71,76.55,-22.32,29.27,92.46,34.89,-7.38,84.99,35.0,-40.75,100.19,-14.0,-80.0,112.01,-29.0,-60.0,136.72,-35.0,-17.08,65.36,-17.0,30.0,103.63,35.0,-18.25,96.66,1.0,1.0,-1.0,1.0,-1.0,1.0,-1.0,-1.0,1.0,-1.0,-0.8674,-1.0,1.0,1.0,1.0,1.0,-1.0,1.0,0.0,0.0,0.013,0.006,0.006,0.013,0.019,0.019,0.019,0.0,0.019,0.013,0.0,0.033,0.058,0.013,0.013,0.019,0.6105,-1.1428,0.5952,-0.4249,-1.6797,0.3743,-0.2623,-1.1965,0.7793,-0.6105,-0.3728,-0.0169,-0.4126,0.1856,0.1994,0.6059,-0.4142,0.0859,-0.0,-0.1657,-0.2828,-0.1344,-0.0002,0.3032,-0.2067,-0.0152,0.0741,-0.0313,-0.3048,-0.2555,0.2826,-0.0073,0.2559,0.0037,-0.3126,0.3082,1.7734,0.3005,-0.0488,0.1945,-0.0554,1.0,1.0,-1.0,1.0,-1.0,1.0,-1.0,-1.0,1.0,-1.0,-1.0,-1.0,1.0,1.0,1.0,1.0,-1.0,1.0,0.0,0.0,0.0,0.0,0.0,0.0,0.0,0.0,0.0,-0.3333,0.0,-0.3333,0.0,3
4.0,run,19.61,5.23,-1.62,15.75,1.23,0.0,-0.05,0.0,2.411,34.98,-46.76,110.74,-23.12,-79.54,103.36,-18.28,-51.59,127.0,-34.89,-7.03,75.06,-20.92,29.27,93.78,34.8,-8.7,86.4,35.0,-39.25,98.69,-12.5,-80.0,113.51,-30.5,-61.5,138.22,-35.0,-18.58,63.86,-15.5,30.0,105.13,35.0,-19.75,98.16,1.0,1.0,-1.0,1.0,-1.0,1.0,-1.0,-1.0,1.0,-1.0,-0.6195,-1.0,1.0,1.0,1.0,1.0,-1.0,1.0,0.0,0.0,0.013,0.006,0.006,0.013,0.019,0.019,0.019,0.0,0.019,0.013,0.0,0.033,0.058,0.013,0.013,0.019,0.6105,-1.1505,0.5722,-0.4203,-1.6797,0.4004,-0.2869,-1.2134,0.7946,-0.6105,-0.3973,-0.0399,-0.3881,0.1841,0.224,0.609,-0.4387,0.1104,-0.0,-0.1447,-0.2842,-0.0768,-0.0001,0.31,-0.2367,-0.0739,0.1093,-0.0219,-0.3053,-0.2651,0.2898,-0.0109,0.2711,0.0141,-0.3108,0.3077,1.765,0.3293,-0.0633,0.1356,-0.0143,1.0,1.0,-1.0,1.0,-1.0,1.0,-1.0,-1.0,1.0,-1.0,-0.8674,-1.0,1.0,1.0,1.0,1.0,-1.0,1.0,0.0,0.0,0.0,0.0,0.0,0.0,0.0,0.0,0.0,-0.3333,0.0,-0.3333,0.0,3
4.04,run,19.62,5.8,0.24,13.84,4.7,0.0,-0.05,0.0,2.411,34.98,-46.76,109.34,-21.97,-79.54,104.77,-19.69,-52.91,128.23,-34.89,-8.53,73.65,-19.51,29.18,95.01,34.89,-10.2,87.71,35.0,-37.75,97.19,-11.0,-80.0,115.01,-32.0,-63.0,139.72,-35.0,-20.08,62.36,-14.0,30.0,106.63,35.0,-18.25,99.66,1.0,1.0,-1.0,1.0,-1.0,1.0,-1.0,-1.0,1.0,-1.0,-0.7794,-1.0,1.0,1.0,1.0,1.0,0.154,1.0,0.0,0.039,0.006,0.013,0.006,0.019,0.019,0.019,0.039,0.0,0.019,0.013,0.006,0.039,0.136,0.0,0.013,0.033,0.6121,-1.152,0.5461,-0.4065,-1.6797,0.4249,-0.3114,-1.2395,0.8253,-0.6105,-0.4203,-0.066,-0.3636,0.1841,0.247,0.6075,-0.4617,0.135,0.0058,-0.1071,-0.2968,-0.002,-0.0001,0.3091,-0.2578,-0.1496,0.1917,-0.0154,-0.3001,-0.2835,0.295,-0.0076,0.2761,0.0041,-0.3039,0.3075,1.7594,0.3849,-0.0282,0.2749,0.0215,1.0,1.0,-1.0,1.0,-1.0,1.0,-1.0,-1.0,1.0,-1.0,-0.6195,-1.0,1.0,1.0,1.0,1.0,-1.0,1.0,0.0,0.0,0.0,0.0,0.0,0.0,0.0,0.0,0.0,-0.3333,0.0,-0.3333,0.0,3
4.08,run,19.71,6.62,1.73,16.45,0.58,0.0,-0.05,0.0,2.411,34.98,-46.32,107.49,-20.39,-79.54,106.61,-21.45,-54.4,129.99,-34.89,-10.28,71.89,-18.02,29.18,96.68,34.8,-12.04,89.47,35.0,-36.25,95.69,-9.5,-80.0,116.51,-33.5,-64.5,141.22,-35.0,-21.58,60.86,-12.5,30.0,108.13,35.0,-16.75,101.16,1.0,1.0,-1.0,1.0,-1.0,1.0,-1.0,-1.0,1.0,-1.0,-0.4422,-1.0,1.0,1.0,1.0,1.0,0.4798,1.0,0.0,0.039,0.006,0.013,0.006,0.019,0.019,0.019,0.039,0.0,0.019,0.013,0.006,0.039,0.136,0.0,0.013,0.033,0.6121,-1.152,0.5216,-0.3866,-1.6797,0.4495,-0.3359,-1.2625,0.8468,-0.6105,-0.4464,-0.0905,-0.339,0.1825,0.2684,0.609,-0.4878,0.158,0.004,-0.075,-0.2998,0.0734,-0.0001,0.3084,-0.2725,-0.191,0.2147,-0.0107,-0.3079,-0.2905,0.2985,-0.0111,0.2738,0.0086,-0.3106,0.3016,1.7604,0.4345,0.0041,0.2416,0.082,1.0,1.0,-1.0,1.0,-1.0,1.0,-1.0,-1.0,1.0,-1.0,-0.7794,-1.0,1.0,1.0,1.0,1.0,0.154,1.0,0.0,0.0,0.0,0.0,0.0,0.0,0.0,0.0,0.0,-0.3333,0.0,-0.3333,0.0,3
4.12,run,19.74,7.09,-0.74,11.51,0.86,0.0,-0.05,0.0,2.411,34.98,-45.35,106.08,-18.9,-79.54,108.02,-22.85,-55.81,131.4,-34.89,-11.69,70.49,-16.44,29.18,98.0,34.89,-13.36,90.88,35.0,-34.75,94.19,-8.0,-80.0,116.59,-35.0,-66.0,142.72,-35.0,-23.08,59.36,-11.0,30.0,109.63,35.0,-15.25,102.66,1.0,1.0,-1.0,1.0,-1.0,0.6069,-1.0,-1.0,1.0,-1.0,-0.4649,-1.0,1.0,1.0,1.0,1.0,1.0,1.0,0.0,0.039,0.006,0.013,0.006,0.019,0.019,0.019,0.039,0.0,0.019,0.013,0.006,0.039,0.136,0.0,0.013,0.033,0.6121,-1.1443,0.4893,-0.359,-1.6797,0.4817,-0.3666,-1.2885,0.8774,-0.6105,-0.4771,-0.1212,-0.3129,0.1825,0.2976,0.6075,-0.52,0.1887,0.0028,-0.0292,-0.3078,0.1353,-0.0,0.3138,-0.284,-0.213,0.2436,-0.0075,-0.3088,-0.2966,0.2882,-0.0078,0.2803,0.0014,-0.3153,0.3044,1.7681,0.5056,0.0301,0.2871,0.0102,1.0,1.0,-1.0,1.0,-1.0,1.0,-1.0,-1.0,1.0,-1.0,-0.4422,-1.0,1.0,1.0,1.0,1.0,0.4798,1.0,0.0,0.0,0.0,0.0,0.0,0.0,0.0,0.0,0.0,-0.3333,0.0,-0.3333,0.0,3
4.16,run,19.74,7.32,-0.27,5.44,2.91,0.0,-0.05,0.0,2.411,34.98,-44.21,104.68,-18.02,-79.54,109.42,-24.26,-57.22,132.63,-34.89,-13.1,69.08,-15.12,29.09,99.4,34.89,-14.59,92.29,35.0,-33.25,92.69,-6.5,-80.0,118.09,-35.0,-67.5,144.22,-35.0,-24.58,57.86,-9.5,28.5,111.13,35.0,-13.75,104.16,1.0,0.6801,-1.0,1.0,-1.0,0.906,-1.0,-1.0,1.0,-1.0,-0.1903,-1.0,1.0,0.8207,1.0,1.0,1.0,1.0,0.0,0.071,0.0,0.019,0.013,0.006,0.013,0.039,0.058,0.0,0.019,0.019,0.019,0.026,0.182,0.0,0.0,0.026,0.6121,-1.1275,0.4648,-0.3329,-1.6797,0.5062,-0.3912,-1.3131,0.902,-0.6105,-0.5016,-0.1457,-0.2853,0.1825,0.3206,0.609,-0.543,0.2132,0.002,0.0424,-0.3068,0.1918,-0.0,0.311,-0.2902,-0.2404,0.2619,-0.0053,-0.3075,-0.299,0.3045,-0.0054,0.2819,0.0067,-0.3064,0.3044,1.7707,0.5475,-0.0129,0.2009,0.015,1.0,1.0,-1.0,1.0,-1.0,0.6069,-1.0,-1.0,1.0,-1.0,-0.4649,-1.0,1.0,1.0,1.0,1.0,1.0,1.0,0.0,0.0,0.0,0.0,0.0,0.0,0.0,0.0,0.0,-0.3333,0.0,-0.3333,0.0,3
4.2,run,19.76,7.47,-0.65,3.38,5.45,0.0,-0.05,0.0,2.411,34.98,-42.89,103.27,-16.08,-79.54,110.83,-25.75,-58.62,133.68,-34.89,-14.59,67.68,-13.62,29.0,100.81,34.8,-15.56,93.69,35.0,-34.75,91.19,-5.0,-80.0,119.59,-35.0,-69.0,145.72,-35.0,-26.08,56.36,-8.0,27.0,112.63,35.0,-12.25,105.66,1.0,-0.207,-1.0,1.0,-1.0,0.9939,-1.0,-1.0,1.0,-1.0,-0.0965,-1.0,1.0,0.536,1.0,1.0,1.0,1.0,0.0,0.071,0.0,0.019,0.013,0.006,0.013,0.039,0.058,0.0,0.019,0.019,0.019,0.026,0.182,0.0,0.0,0.026,0.6121,-1.1075,0.4403,-0.3175,-1.6797,0.5308,-0.4157,-1.3376,0.9235,-0.6105,-0.5262,-0.1703,-0.2623,0.181,0.3451,0.609,-0.5645,0.2378,0.0014,0.1043,-0.3066,0.1917,-0.0,0.3096,-0.295,-0.2602,0.2637,-0.0037,-0.3071,-0.3011,0.2993,-0.0095,0.2892,0.0047,-0.2948,0.305,1.7712,0.567,-0.0047,0.0949,0.0508,1.0,0.6801,-1.0,1.0,-1.0,0.906,-1.0,-1.0,1.0,-1.0,-0.1903,-1.0,1.0,0.8207,1.0,1.0,1.0,1.0,0.0,0.0,0.0,0.0,0.0,0.0,0.0,0.0,0.0,-0.3333,0.0,-0.3333,0.0,3
4.24,run,19.58,7.37,-5.71,-2.62,8.73,0.0,-0.05,0.0,2.411,34.98,-41.57,101.78,-14.59,-79.54,112.32,-27.16,-60.03,134.65,-34.89,-15.91,66.27,-12.22,28.3,102.3,34.89,-16.17,95.1,35.0,-36.25,89.69,-3.5,-80.0,121.09,-35.0,-70.5,147.22,-35.0,-24.58,54.86,-6.5,25.5,114.13,35.0,-10.75,107.16,1.0,-0.9051,-1.0,1.0,-1.0,0.9342,-1.0,-1.0,1.0,-1.0,0.203,-1.0,1.0,0.1486,1.0,1.0,1.0,1.0,0.0,0.071,0.0,0.019,0.013,0.006,0.013,0.039,0.058,0.0,0.019,0.019,0.019,0.026,0.182,0.0,0.0,0.026,0.6121,-1.0845,0.4157,-0.2838,-1.6797,0.5553,-0.4418,-1.3622,0.9419,-0.6105,-0.5522,-0.1948,-0.2362,0.1795,0.3697,0.6075,-0.5814,0.2623,0.001,0.1594,-0.3068,0.2609,-0.0,0.3089,-0.3044,-0.2743,0.2537,-0.0026,-0.3129,-0.303,0.3074,-0.0124,0.2946,-0.0025,-0.2698,0.3056,1.7729,0.5799,-0.0113,0.059,0.095,1.0,-0.207,-1.0,1.0,-1.0,0.9939,-1.0,-1.0,1.0,-1.0,-0.0965,-1.0,1.0,0.536,1.0,1.0,1.0,1.0,0.0,0.0,0.0,0.0,0.0,0.0,0.0,0.0,0.0,-0.3333,0.0,-0.3333,0.0,3
4.28,run,19.15,7.1,-12.7,-7.55,10.09,0.0,-0.05,0.0,2.411,35.07,-40.34,100.37,-13.8,-79.54,113.73,-28.56,-61.52,135.35,-34.89,-17.4,64.78,-10.81,27.51,103.8,34.89,-16.52,96.5,35.0,-37.75,88.19,-2.0,-80.0,122.59,-35.0,-72.0,148.72,-35.0,-23.08,53.36,-5.0,24.0,115.63,35.0,-9.25,108.66,1.0,-1.0,-1.0,1.0,-1.0,1.0,-1.0,-1.0,1.0,-1.0,0.6394,-1.0,1.0,0.0293,1.0,1.0,1.0,1.0,0.0,0.052,0.006,0.006,0.006,0.019,0.019,0.033,0.338,0.006,0.026,0.006,0.019,0.013,0.111,0.0,0.0,0.026,0.6121,-1.0615,0.3896,-0.2577,-1.6797,0.5814,-0.4663,-1.3867,0.9587,-0.6105,-0.5752,-0.2194,-0.2117,0.1672,0.3958,0.609,-0.5921,0.2869,0.0007,0.1979,-0.3125,0.2804,-0.0,0.314,-0.3051,-0.284,0.2408,-0.0018,-0.3053,-0.3041,0.3072,-0.0547,0.304,0.004,-0.2291,0.3059,1.7571,0.5718,-0.0996,-0.0458,0.1523,1.0,-0.9051,-1.0,1.0,-1.0,0.9342,-1.0,-1.0,1.0,-1.0,0.203,-1.0,1.0,0.1486,1.0,1.0,1.0,1.0,0.0,0.0,0.0,0.0,0.0,0.0,0.0,0.0,0.0,-0.3333,0.0,-0.3333,0.0,3
4.32,run,18.72,6.72,-11.62,-8.46,8.64,0.0,-0.05,0.0,2.411,35.07,-39.11,98.96,-11.95,-79.54,115.14,-29.88,-62.84,135.88,-34.89,-18.81,63.46,-9.4,26.19,105.29,34.89,-16.52,98.0,35.0,-39.25,86.69,-0.5,-80.0,124.09,-35.0,-73.5,150.0,-35.0,-21.58,51.86,-3.5,22.5,117.13,35.0,-7.75,110.16,1.0,-1.0,-1.0,1.0,-1.0,1.0,-1.0,-1.0,1.0,-1.0,1.0,-1.0,1.0,-0.1185,1.0,1.0,1.0,0.9622,0.0,0.052,0.006,0.006,0.006,0.019,0.019,0.033,0.338,0.006,0.026,0.006,0.019,0.013,0.111,0.0,0.0,0.026,0.6136,-1.04,0.3651,-0.2439,-1.6797,0.6059,-0.4909,-1.4128,0.971,-0.6105,-0.6013,-0.2454,-0.1871,0.1534,0.4218,0.609,-0.5983,0.3114,0.0062,0.219,-0.3107,0.248,-0.0,0.3118,-0.3055,-0.2965,0.2146,-0.0013,-0.3114,-0.3106,0.307,-0.09,0.3105,0.0028,-0.1833,0.3061,1.7197,0.5477,-0.2217,-0.1318,0.1762,1.0,-1.0,-1.0,1.0,-1.0,1.0,-1.0,-1.0,1.0,-1.0,0.6394,-1.0,1.0,0.0293,1.0,1.0,1.0,1.0,0.0,0.0,0.0,0.0,0.0,0.0,0.0,0.0,0.0,-0.3333,0.0,-0.3333,0.0,3
4.36,run,18.29,6.54,-10.52,-3.17,8.26,0.0,-0.05,0.0,2.411,35.07,-38.14,97.47,-10.63,-79.54,116.54,-31.29,-64.25,136.41,-34.89,-20.13,62.05,-8.0,24.96,106.79,34.89,-16.26,99.4,35.0,-40.75,85.19,1.0,-80.0,125.59,-35.0,-72.0,150.0,-35.0,-20.08,50.36,-2.0,21.0,118.63,35.0,-6.25,111.66,1.0,-1.0,-1.0,1.0,-1.0,1.0,-1.0,-0.7002,1.0,-1.0,1.0,-1.0,1.0,0.1788,1.0,1.0,1.0,0.7131,0.0,0.052,0.006,0.006,0.006,0.019,0.019,0.033,0.338,0.006,0.026,0.006,0.019,0.013,0.111,0.0,0.0,0.026,0.6136,-1.0186,0.3405,-0.2117,-1.6797,0.6305,-0.5139,-1.4358,0.9802,-0.6105,-0.6259,-0.2684,-0.1626,0.1304,0.4479,0.609,-0.5983,0.3375,0.0044,0.2338,-0.3095,0.2944,-0.0,0.3102,-0.3001,-0.2938,0.1847,-0.0009,-0.31,-0.3037,0.3069,-0.1493,0.3151,0.002,-0.1283,0.3121,1.6817,0.5146,-0.2028,-0.1477,0.1509,1.0,-1.0,-1.0,1.0,-1.0,1.0,-1.0,-1.0,1.0,-1.0,1.0,-1.0,1.0,-0.1185,1.0,1.0,1.0,0.9622,0.0,0.0,0.0,0.0,0.0,0.0,0.0,0.0,0.0,-0.3333,0.0,-0.3333,0.0,3
4.4,run,17.83,6.47,-11.81,-0.84,4.67,0.0,-0.05,0.0,2.411,35.07,-37.35,96.15,-9.14,-79.54,117.95,-32.52,-65.65,136.85,-34.89,-21.18,60.56,-6.68,23.38,108.11,34.89,-15.64,100.72,35.0,-42.25,83.69,2.5,-80.0,127.09,-35.0,-70.5,150.0,-35.0,-18.58,48.86,-0.5,19.5,120.13,35.0,-4.75,110.16,1.0,-1.0,-1.0,1.0,-1.0,1.0,-1.0,-0.7569,1.0,-1.0,1.0,-1.0,1.0,0.1038,1.0,1.0,1.0,0.2379,0.0,0.013,0.013,0.013,0.006,0.013,0.013,0.039,0.994,0.0,0.013,0.006,0.026,0.0,0.091,0.0,0.039,0.033,0.6136,-1.0017,0.3145,-0.1887,-1.6797,0.655,-0.5384,-1.4603,0.9894,-0.6105,-0.6489,-0.293,-0.1381,0.1089,0.474,0.609,-0.5937,0.362,0.003,0.227,-0.3146,0.2924,-0.0,0.3093,-0.3022,-0.2978,0.1638,-0.0006,-0.3034,-0.3047,0.307,-0.1851,0.3185,0.0014,-0.0726,0.3106,1.644,0.4993,-0.1836,-0.0554,0.1442,1.0,-1.0,-1.0,1.0,-1.0,1.0,-1.0,-0.7002,1.0,-1.0,1.0,-1.0,1.0,0.1788,1.0,1.0,1.0,0.7131,0.0,0.0,0.0,0.0,0.0,0.0,0.0,0.0,0.0,-0.3333,0.0,-0.3333,0.0,3
4.44,run,17.46,6.35,-9.25,-2.22,-0.02,0.0,-0.05,0.0,2.411,35.07,-37.09,94.75,-7.73,-79.54,119.44,-33.4,-67.06,137.37,-34.89,-21.97,59.15,-5.19,22.06,109.69,34.89,-14.77,102.04,35.0,-43.75,82.19,4.0,-80.0,128.59,-35.0,-69.0,150.0,-35.0,-17.08,47.36,1.0,18.0,121.63,35.0,-3.25,108.66,1.0,-1.0,-1.0,1.0,-1.0,1.0,-1.0,-0.5376,1.0,-1.0,1.0,-1.0,0.4903,0.2546,1.0,1.0,1.0,-0.4679,0.0,0.013,0.013,0.013,0.006,0.013,0.013,0.039,0.994,0.0,0.013,0.006,0.026,0.0,0.091,0.0,0.039,0.033,0.6136,-0.9879,0.2915,-0.1626,-1.6797,0.6796,-0.5599,-1.4849,0.9971,-0.6105,-0.6673,-0.3191,-0.115,0.0813,0.497,0.609,-0.5829,0.385,0.0021,0.2107,-0.3065,0.3026,-0.0,0.3086,-0.2921,-0.3006,0.1435,-0.0004,-0.2814,-0.3111,0.3012,-0.2332,0.3093,0.001,-0.0105,0.3037,1.6043,0.4931,-0.2061,-0.0146,0.0814,1.0,-1.0,-1.0,1.0,-1.0,1.0,-1.0,-0.7569,1.0,-1.0,1.0,-1.0,1.0,0.1038,1.0,1.0,1.0,0.2379,0.0,0.0,0.0,0.0,0.0,0.0,0.0,0.0,0.0,-0.3333,0.0,-0.3333,0.0,3
4.48,run,17.17,6.32,-7.51,-0.48,-2.55,0.0,-0.05,0.0,2.411,35.07,-37.0,93.43,-6.33,-79.54,120.85,-34.1,-68.29,137.37,-34.89,-22.5,57.83,-3.87,20.83,111.18,34.89,-13.71,103.36,35.0,-45.25,80.69,5.5,-80.0,130.09,-35.0,-67.5,150.0,-35.0,-15.58,45.86,-0.5,16.5,123.13,35.0,-1.75,107.16,1.0,-1.0,-0.8311,1.0,-1.0,1.0,-1.0,-0.3221,1.0,-1.0,1.0,-0.6899,-1.0,0.3403,1.0,1.0,1.0,-1.0,0.0,0.013,0.013,0.013,0.006,0.013,0.013,0.039,0.994,0.0,0.013,0.006,0.026,0.0,0.091,0.0,0.039,0.033,0.6136,-0.9833,0.2669,-0.1381,-1.6797,0.7056,-0.5752,-1.5094,1.0063,-0.6105,-0.6811,-0.3436,-0.089,0.0583,0.5246,0.609,-0.5676,0.408,0.0015,0.1647,-0.3065,0.3037,-0.0,0.3137,-0.262,-0.3023,0.1349,-0.0003,-0.2487,-0.3097,0.3085,-0.2494,0.3199,0.0007,0.0501,0.2988,1.5721,0.4824,-0.1615,-0.0387,-0.0004,1.0,-1.0,-1.0,1.0,-1.0,1.0,-1.0,-0.5376,1.0,-1.0,1.0,-1.0,0.4903,0.2546,1.0,1.0,1.0,-0.4679,0.0,0.0,0.0,0.0,0.0,0.0,0.0,0.0,0.0,-0.3333,0.0,-0.3333,0.0,3
4.52,run,17.0,6.2,-4.2,-3.19,-3.06,0.0,-0.05,0.0,2.808,35.07,-37.35,92.02,-4.92,-79.54,122.26,-34.54,-69.26,137.37,-34.89,-22.68,56.34,-2.55,19.42,112.59,34.89,-12.57,104.5,35.0,-46.75,82.19,7.0,-80.0,128.59,-35.0,-66.0,150.0,-33.5,-14.08,47.36,-2.0,15.0,124.63,35.0,-0.25,105.66,1.0,-1.0,0.6274,1.0,-1.0,0.6978,-1.0,-0.6398,1.0,-0.3154,1.0,0.1052,-1.0,-0.0332,1.0,1.0,1.0,-1.0,0.0,0.006,0.013,0.013,0.006,0.013,0.006,0.013,2.808,0.0,0.006,0.006,0.013,0.0,0.071,0.0,0.104,0.039,0.6136,-0.9817,0.2439,-0.1135,-1.6797,0.7302,-0.5875,-1.5309,1.0063,-0.6105,-0.6903,-0.3666,-0.066,0.0368,0.5507,0.609,-0.5492,0.431,0.001,0.1211,-0.3009,0.3047,-0.0,0.3117,-0.2294,-0.2922,0.0944,-0.0002,-0.2086,-0.3032,0.3023,-0.2552,0.3218,0.0005,0.1042,0.2955,1.547,0.4797,-0.1311,-0.0085,-0.0446,1.0,-1.0,-0.8311,1.0,-1.0,1.0,-1.0,-0.3221,1.0,-1.0,1.0,-0.6899,-1.0,0.3403,1.0,1.0,1.0,-1.0,0.0,0.0,0.0,0.0,0.0,0.0,0.0,0.0,0.0,-0.3333,0.0,-0.3333,0.0,3
4.66,tail,15.92,7.88,-8.9,12.93,16.41,,0.0,0.0,2.808,34.98,-37.79,89.65,-2.81,-79.54,125.33,-34.54,-68.99,129.46,-34.89,-22.5,53.53,-1.23,11.69,114.61,34.89,-14.24,104.33,,,,,,,,,,,,,,,,,,,,,,,,,,,,,,,,,,,,,0.0,0.0,0.0,0.0,0.0,0.0,0.0,0.0,0.0,0.0,0.0,0.0,0.0,0.0,0.0,0.0,0.0,0.0,,,,,,,,,,,,,,,,,,,,,,,,,,,,,,,,,,,,,,,,,,,,,,,,,,,,,,,,,,,,,,,,,,,,,,,,,
4.76,tail,14.68,9.14,-9.66,10.75,-2.78,,0.0,0.0,2.808,34.98,-37.79,89.56,-2.81,-79.54,125.42,-34.54,-67.85,125.42,-34.89,-22.5,53.53,-1.23,2.81,115.66,34.89,-20.04,103.27,,,,,,,,,,,,,,,,,,,,,,,,,,,,,,,,,,,,,0.0,0.0,0.0,0.0,0.0,0.0,0.0,0.0,0.0,0.0,0.0,0.0,0.0,0.0,0.0,0.0,0.0,0.0,,,,,,,,,,,,,,,,,,,,,,,,,,,,,,,,,,,,,,,,,,,,,,,,,,,,,,,,,,,,,,,,,,,,,,,,,
4.86,tail,13.36,11.19,-10.21,16.87,-3.16,,0.0,0.0,2.808,34.98,-37.79,89.56,-2.81,-79.54,125.42,-34.54,-67.76,125.42,-34.89,-22.5,53.53,-1.23,-4.04,119.53,34.89,-24.17,103.18,,,,,,,,,,,,,,,,,,,,,,,,,,,,,,,,,,,,,0.0,0.0,0.0,0.0,0.0,0.0,0.0,0.0,0.0,0.0,0.0,0.0,0.0,0.0,0.0,0.0,0.0,0.0,,,,,,,,,,,,,,,,,,,,,,,,,,,,,,,,,,,,,,,,,,,,,,,,,,,,,,,,,,,,,,,,,,,,,,,,,
4.96,tail,9.91,9.41,-26.27,-13.33,-2.97,,0.0,0.0,2.808,35.07,-37.71,89.56,-2.81,-79.54,125.42,-34.54,-67.76,125.42,-34.89,-22.5,53.53,-1.32,-10.55,127.35,34.89,-26.89,103.18,,,,,,,,,,,,,,,,,,,,,,,,,,,,,,,,,,,,,0.0,0.0,0.0,0.0,0.0,0.0,0.0,0.0,0.0,0.0,0.0,0.0,0.0,0.0,0.0,0.0,0.0,0.0,,,,,,,,,,,,,,,,,,,,,,,,,,,,,,,,,,,,,,,,,,,,,,,,,,,,,,,,,,,,,,,,,,,,,,,,,
5.06,tail,7.21,8.24,-22.16,-9.28,-0.15,,0.0,0.0,2.808,35.07,-37.71,90.26,-2.81,-79.54,125.42,-34.54,-67.76,125.42,-34.89,-22.5,53.53,-1.32,-18.63,133.68,34.89,-26.89,103.18,,,,,,,,,,,,,,,,,,,,,,,,,,,,,,,,,,,,,0.0,0.0,0.0,0.0,0.0,0.0,0.0,0.0,0.0,0.0,0.0,0.0,0.0,0.0,0.0,0.0,0.0,0.0,,,,,,,,,,,,,,,,,,,,,,,,,,,,,,,,,,,,,,,,,,,,,,,,,,,,,,,,,,,,,,,,,,,,,,,,,
5.16,tail,2.51,6.02,-31.48,-14.68,-2.78,,0.0,0.0,2.808,35.07,-37.62,90.26,-2.81,-79.54,125.42,-34.54,-67.76,125.42,-34.8,-22.5,53.53,-1.32,-30.15,135.88,34.89,-26.89,103.18,,,,,,,,,,,,,,,,,,,,,,,,,,,,,,,,,,,,,0.0,0.0,0.0,0.0,0.0,0.0,0.0,0.0,0.0,0.0,0.0,0.0,0.0,0.0,0.0,0.0,0.0,0.0,,,,,,,,,,,,,,,,,,,,,,,,,,,,,,,,,,,,,,,,,,,,,,,,,,,,,,,,,,,,,,,,,,,,,,,,,
5.26,tail,2.22,6.06,-1.62,0.28,8.53,,0.0,0.0,2.808,35.07,-37.62,90.35,-2.81,-79.72,125.42,-34.54,-67.76,125.42,-34.8,-22.5,53.53,-1.32,-37.53,135.53,34.89,-26.89,103.18,,,,,,,,,,,,,,,,,,,,,,,,,,,,,,,,,,,,,0.0,0.0,0.0,0.0,0.0,0.0,0.0,0.0,0.0,0.0,0.0,0.0,0.0,0.0,0.0,0.0,0.0,0.0,,,,,,,,,,,,,,,,,,,,,,,,,,,,,,,,,,,,,,,,,,,,,,,,,,,,,,,,,,,,,,,,,,,,,,,,,
5.36,tail,1.89,5.81,-2.56,-1.61,-1.84,,0.0,0.0,2.808,35.07,-37.62,90.35,-2.81,-79.63,125.42,-34.54,-67.76,125.42,-34.8,-22.5,53.53,-1.32,-39.38,135.7,34.89,-26.89,103.18,,,,,,,,,,,,,,,,,,,,,,,,,,,,,,,,,,,,,0.0,0.0,0.0,0.0,0.0,0.0,0.0,0.0,0.0,0.0,0.0,0.0,0.0,0.0,0.0,0.0,0.0,0.0,,,,,,,,,,,,,,,,,,,,,,,,,,,,,,,,,,,,,,,,,,,,,,,,,,,,,,,,,,,,,,,,,,,,,,,,,
5.46,tail,1.62,5.6,-2.21,-1.36,-0.68,,0.0,0.0,2.808,35.07,-37.62,90.35,-2.81,-79.63,125.42,-34.54,-67.76,125.42,-34.8,-22.5,53.53,-1.32,-39.02,135.7,34.89,-26.89,103.18,,,,,,,,,,,,,,,,,,,,,,,,,,,,,,,,,,,,,0.0,0.0,0.0,0.0,0.0,0.0,0.0,0.0,0.0,0.0,0.0,0.0,0.0,0.0,0.0,0.0,0.0,0.0,,,,,,,,,,,,,,,,,,,,,,,,,,,,,,,,,,,,,,,,,,,,,,,,,,,,,,,,,,,,,,,,,,,,,,,,,
5.56,tail,1.47,5.42,-1.34,-1.13,-1.12,,0.0,0.0,2.808,35.07,-37.62,90.35,-2.81,-79.63,125.42,-34.54,-67.76,125.42,-34.8,-22.5,53.53,-1.32,-39.02,135.7,34.89,-26.89,103.18,,,,,,,,,,,,,,,,,,,,,,,,,,,,,,,,,,,,,0.0,0.0,0.0,0.0,0.0,0.0,0.0,0.0,0.0,0.0,0.0,0.0,0.0,0.0,0.0,0.0,0.0,0.0,,,,,,,,,,,,,,,,,,,,,,,,,,,,,,,,,,,,,,,,,,,,,,,,,,,,,,,,,,,,,,,,,,,,,,,,,
5.66,tail,1.37,5.3,-0.88,-0.81,-0.88,,0.0,0.0,2.808,35.07,-37.62,90.35,-2.81,-79.63,125.42,-34.54,-67.76,125.42,-34.8,-22.5,53.53,-1.32,-39.02,135.7,34.89,-26.89,103.18,,,,,,,,,,,,,,,,,,,,,,,,,,,,,,,,,,,,,0.0,0.0,0.0,0.0,0.0,0.0,0.0,0.0,0.0,0.0,0.0,0.0,0.0,0.0,0.0,0.0,0.0,0.0,,,,,,,,,,,,,,,,,,,,,,,,,,,,,,,,,,,,,,,,,,,,,,,,,,,,,,,,,,,,,,,,,,,,,,,,,
5.76,tail,1.31,5.21,-0.52,-0.45,-0.62,,0.0,0.0,2.808,35.07,-37.62,90.35,-2.81,-79.63,125.42,-34.54,-67.76,125.42,-34.8,-22.5,53.53,-1.32,-39.02,135.7,34.89,-26.89,103.18,,,,,,,,,,,,,,,,,,,,,,,,,,,,,,,,,,,,,0.0,0.0,0.0,0.0,0.0,0.0,0.0,0.0,0.0,0.0,0.0,0.0,0.0,0.0,0.0,0.0,0.0,0.0,,,,,,,,,,,,,,,,,,,,,,,,,,,,,,,,,,,,,,,,,,,,,,,,,,,,,,,,,,,,,,,,,,,,,,,,,
5.86,tail,1.27,5.14,-0.4,-0.36,-0.52,,0.0,0.0,2.808,35.07,-37.62,90.35,-2.81,-79.63,125.42,-34.54,-67.76,125.42,-34.8,-22.5,53.53,-1.32,-39.02,135.7,34.89,-26.89,103.18,,,,,,,,,,,,,,,,,,,,,,,,,,,,,,,,,,,,,0.0,0.0,0.0,0.0,0.0,0.0,0.0,0.0,0.0,0.0,0.0,0.0,0.0,0.0,0.0,0.0,0.0,0.0,,,,,,,,,,,,,,,,,,,,,,,,,,,,,,,,,,,,,,,,,,,,,,,,,,,,,,,,,,,,,,,,,,,,,,,,,
5.96,tail,1.25,5.08,-0.24,-0.29,-0.43,,0.0,0.0,2.808,35.07,-37.62,90.35,-2.81,-79.63,125.42,-34.54,-67.76,125.42,-34.8,-22.5,53.53,-1.32,-39.02,135.7,34.89,-26.89,103.18,,,,,,,,,,,,,,,,,,,,,,,,,,,,,,,,,,,,,0.0,0.0,0.0,0.0,0.0,0.0,0.0,0.0,0.0,0.0,0.0,0.0,0.0,0.0,0.0,0.0,0.0,0.0,,,,,,,,,,,,,,,,,,,,,,,,,,,,,,,,,,,,,,,,,,,,,,,,,,,,,,,,,,,,,,,,,,,,,,,,,
6.06,tail,1.25,5.02,-0.16,-0.26,-0.36,,0.0,0.0,2.808,35.07,-37.62,90.35,-2.81,-79.63,125.42,-34.54,-67.76,125.42,-34.8,-22.5,53.53,-1.32,-39.02,135.7,34.89,-26.89,103.18,,,,,,,,,,,,,,,,,,,,,,,,,,,,,,,,,,,,,0.0,0.0,0.0,0.0,0.0,0.0,0.0,0.0,0.0,0.0,0.0,0.0,0.0,0.0,0.0,0.0,0.0,0.0,,,,,,,,,,,,,,,,,,,,,,,,,,,,,,,,,,,,,,,,,,,,,,,,,,,,,,,,,,,,,,,,,,,,,,,,,
6.16,tail,1.25,4.99,-0.11,-0.12,-0.3,,0.0,0.0,2.808,35.07,-37.62,90.35,-2.81,-79.63,125.42,-34.54,-67.76,125.42,-34.8,-22.5,53.53,-1.32,-39.02,135.7,34.89,-26.89,103.18,,,,,,,,,,,,,,,,,,,,,,,,,,,,,,,,,,,,,0.0,0.0,0.0,0.0,0.0,0.0,0.0,0.0,0.0,0.0,0.0,0.0,0.0,0.0,0.0,0.0,0.0,0.0,,,,,,,,,,,,,,,,,,,,,,,,,,,,,,,,,,,,,,,,,,,,,,,,,,,,,,,,,,,,,,,,,,,,,,,,,
6.26,tail,1.24,4.95,-0.14,-0.09,-0.29,,0.0,0.0,2.808,35.07,-37.62,90.35,-2.81,-79.63,125.42,-34.54,-67.76,125.42,-34.8,-22.5,53.53,-1.32,-39.02,135.7,34.89,-26.89,103.18,,,,,,,,,,,,,,,,,,,,,,,,,,,,,,,,,,,,,0.0,0.0,0.0,0.0,0.0,0.0,0.0,0.0,0.0,0.0,0.0,0.0,0.0,0.0,0.0,0.0,0.0,0.0,,,,,,,,,,,,,,,,,,,,,,,,,,,,,,,,,,,,,,,,,,,,,,,,,,,,,,,,,,,,,,,,,,,,,,,,,
6.36,tail,1.27,4.94,0.12,0.03,-0.16,,0.0,0.0,2.808,35.07,-37.62,90.35,-2.81,-79.63,125.42,-34.54,-67.76,125.42,-34.8,-22.5,53.53,-1.32,-39.02,135.7,34.89,-26.89,103.18,,,,,,,,,,,,,,,,,,,,,,,,,,,,,,,,,,,,,0.0,0.0,0.0,0.0,0.0,0.0,0.0,0.0,0.0,0.0,0.0,0.0,0.0,0.0,0.0,0.0,0.0,0.0,,,,,,,,,,,,,,,,,,,,,,,,,,,,,,,,,,,,,,,,,,,,,,,,,,,,,,,,,,,,,,,,,,,,,,,,,
6.46,tail,1.3,4.92,0.09,0.03,-0.16,,0.0,0.0,2.808,35.07,-37.62,90.35,-2.81,-79.63,125.42,-34.54,-67.76,125.42,-34.8,-22.5,53.53,-1.32,-39.02,135.7,34.89,-26.89,103.18,,,,,,,,,,,,,,,,,,,,,,,,,,,,,,,,,,,,,0.0,0.0,0.0,0.0,0.0,0.0,0.0,0.0,0.0,0.0,0.0,0.0,0.0,0.0,0.0,0.0,0.0,0.0,,,,,,,,,,,,,,,,,,,,,,,,,,,,,,,,,,,,,,,,,,,,,,,,,,,,,,,,,,,,,,,,,,,,,,,,,
6.56,tail,1.32,4.91,0.09,0.07,-0.17,,0.0,0.0,2.808,35.07,-37.62,90.35,-2.81,-79.63,125.42,-34.54,-67.76,125.42,-34.8,-22.5,53.53,-1.32,-39.02,135.7,34.89,-26.89,103.18,,,,,,,,,,,,,,,,,,,,,,,,,,,,,,,,,,,,,0.0,0.0,0.0,0.0,0.0,0.0,0.0,0.0,0.0,0.0,0.0,0.0,0.0,0.0,0.0,0.0,0.0,0.0,,,,,,,,,,,,,,,,,,,,,,,,,,,,,,,,,,,,,,,,,,,,,,,,,,,,,,,,,,,,,,,,,,,,,,,,,
6.66,tail,1.35,4.9,0.18,0.05,-0.12,,0.0,0.0,2.808,35.07,-37.62,90.35,-2.81,-79.63,125.42,-34.54,-67.76,125.42,-34.8,-22.5,53.53,-1.32,-39.02,135.7,34.89,-26.89,103.18,,,,,,,,,,,,,,,,,,,,,,,,,,,,,,,,,,,,,0.0,0.0,0.0,0.0,0.0,0.0,0.0,0.0,0.0,0.0,0.0,0.0,0.0,0.0,0.0,0.0,0.0,0.0,,,,,,,,,,,,,,,,,,,,,,,,,,,,,,,,,,,,,,,,,,,,,,,,,,,,,,,,,,,,,,,,,,,,,,,,,
6.76,tail,1.39,4.88,0.18,0.0,-0.18,,0.0,0.0,2.808,35.07,-37.62,90.35,-2.81,-79.63,125.42,-34.54,-67.76,125.42,-34.8,-22.5,53.53,-1.32,-39.02,135.7,34.89,-26.89,103.18,,,,,,,,,,,,,,,,,,,,,,,,,,,,,,,,,,,,,0.0,0.0,0.0,0.0,0.0,0.006,0.0,0.0,0.0,0.0,0.0,0.0,0.0,0.0,0.0,0.0,0.0,0.0,,,,,,,,,,,,,,,,,,,,,,,,,,,,,,,,,,,,,,,,,,,,,,,,,,,,,,,,,,,,,,,,,,,,,,,,,
6.86,tail,1.41,4.86,0.08,0.02,-0.14,,0.0,0.0,2.808,35.07,-37.62,90.35,-2.81,-79.63,125.42,-34.54,-67.76,125.42,-34.8,-22.5,53.53,-1.32,-39.02,135.7,34.89,-26.89,103.18,,,,,,,,,,,,,,,,,,,,,,,,,,,,,,,,,,,,,0.0,0.0,0.0,0.0,0.0,0.0,0.0,0.0,0.0,0.0,0.0,0.0,0.0,0.0,0.0,0.0,0.0,0.0,,,,,,,,,,,,,,,,,,,,,,,,,,,,,,,,,,,,,,,,,,,,,,,,,,,,,,,,,,,,,,,,,,,,,,,,,
6.96,tail,1.43,4.86,0.07,0.07,-0.11,,0.0,0.0,2.808,35.07,-37.62,90.35,-2.81,-79.63,125.42,-34.54,-67.76,125.42,-34.8,-22.5,53.53,-1.32,-39.02,135.7,34.89,-26.89,103.18,,,,,,,,,,,,,,,,,,,,,,,,,,,,,,,,,,,,,0.0,0.0,0.0,0.0,0.0,0.0,0.0,0.0,0.0,0.0,0.0,0.0,0.0,0.0,0.0,0.0,0.0,0.0,,,,,,,,,,,,,,,,,,,,,,,,,,,,,,,,,,,,,,,,,,,,,,,,,,,,,,,,,,,,,,,,,,,,,,,,,
7.06,tail,1.44,4.85,0.02,0.05,-0.1,,0.0,0.0,2.808,35.07,-37.62,90.35,-2.81,-79.63,125.42,-34.54,-67.76,125.42,-34.8,-22.5,53.53,-1.32,-39.02,135.7,34.89,-26.89,103.18,,,,,,,,,,,,,,,,,,,,,,,,,,,,,,,,,,,,,0.0,0.0,0.0,0.0,0.0,0.0,0.0,0.0,0.0,0.0,0.0,0.0,0.0,0.0,0.0,0.0,0.0,0.0,,,,,,,,,,,,,,,,,,,,,,,,,,,,,,,,,,,,,,,,,,,,,,,,,,,,,,,,,,,,,,,,,,,,,,,,,
7.16,tail,1.46,4.82,0.05,-0.06,-0.13,,0.0,0.0,2.808,35.07,-37.62,90.35,-2.81,-79.63,125.42,-34.54,-67.76,125.42,-34.8,-22.5,53.53,-1.32,-39.02,135.7,34.89,-26.89,103.18,,,,,,,,,,,,,,,,,,,,,,,,,,,,,,,,,,,,,0.0,0.0,0.0,0.0,0.0,0.0,0.0,0.0,0.0,0.0,0.0,0.0,0.0,0.0,0.0,0.0,0.0,0.0,,,,,,,,,,,,,,,,,,,,,,,,,,,,,,,,,,,,,,,,,,,,,,,,,,,,,,,,,,,,,,,,,,,,,,,,,
7.26,tail,1.48,4.8,0.1,-0.02,-0.17,,0.0,0.0,2.808,35.07,-37.62,90.35,-2.81,-79.63,125.42,-34.54,-67.76,125.42,-34.8,-22.5,53.53,-1.32,-39.02,135.7,34.89,-26.89,103.18,,,,,,,,,,,,,,,,,,,,,,,,,,,,,,,,,,,,,0.0,0.0,0.0,0.0,0.0,0.0,0.0,0.0,0.0,0.0,0.0,0.0,0.0,0.0,0.0,0.0,0.0,0.0,,,,,,,,,,,,,,,,,,,,,,,,,,,,,,,,,,,,,,,,,,,,,,,,,,,,,,,,,,,,,,,,,,,,,,,,,
7.36,tail,1.49,4.79,0.01,0.03,-0.22,,0.0,0.0,2.808,35.07,-37.62,90.35,-2.81,-79.63,125.42,-34.54,-67.76,125.42,-34.8,-22.5,53.53,-1.32,-39.02,135.7,34.89,-26.89,103.18,,,,,,,,,,,,,,,,,,,,,,,,,,,,,,,,,,,,,0.0,0.0,0.0,0.0,0.0,0.0,0.0,0.0,0.0,0.0,0.0,0.0,0.0,0.0,0.0,0.0,0.0,0.0,,,,,,,,,,,,,,,,,,,,,,,,,,,,,,,,,,,,,,,,,,,,,,,,,,,,,,,,,,,,,,,,,,,,,,,,,
7.46,tail,1.51,4.77,0.1,0.01,-0.1,,0.0,0.0,2.808,35.07,-37.62,90.35,-2.81,-79.63,125.42,-34.54,-67.76,125.42,-34.8,-22.5,53.53,-1.32,-39.02,135.7,34.89,-26.89,103.18,,,,,,,,,,,,,,,,,,,,,,,,,,,,,,,,,,,,,0.0,0.0,0.0,0.0,0.0,0.0,0.0,0.0,0.0,0.0,0.0,0.0,0.0,0.0,0.0,0.0,0.0,0.0,,,,,,,,,,,,,,,,,,,,,,,,,,,,,,,,,,,,,,,,,,,,,,,,,,,,,,,,,,,,,,,,,,,,,,,,,
7.56,tail,1.52,4.76,0.03,0.0,-0.21,,0.0,0.0,2.808,35.07,-37.62,90.35,-2.81,-79.63,125.42,-34.54,-67.76,125.42,-34.8,-22.5,53.53,-1.32,-39.02,135.7,34.89,-26.89,103.18,,,,,,,,,,,,,,,,,,,,,,,,,,,,,,,,,,,,,0.0,0.0,0.0,0.0,0.0,0.0,0.0,0.0,0.0,0.006,0.0,0.0,0.0,0.0,0.0,0.0,0.0,0.0,,,,,,,,,,,,,,,,,,,,,,,,,,,,,,,,,,,,,,,,,,,,,,,,,,,,,,,,,,,,,,,,,,,,,,,,,
