t_s,phase,roll_deg,pitch_deg,gyro_x_dps,gyro_y_dps,gyro_z_dps,height_ref_mm,vx_ref_mps,vy_ref_mps,max_cur_a,q0_deg,q1_deg,q2_deg,q3_deg,q4_deg,q5_deg,q6_deg,q7_deg,q8_deg,q9_deg,q10_deg,q11_deg,q12_deg,q13_deg,q14_deg,q15_deg,q16_deg,q17_deg,cmd0_deg,cmd1_deg,cmd2_deg,cmd3_deg,cmd4_deg,cmd5_deg,cmd6_deg,cmd7_deg,cmd8_deg,cmd9_deg,cmd10_deg,cmd11_deg,cmd12_deg,cmd13_deg,cmd14_deg,cmd15_deg,cmd16_deg,cmd17_deg,act0,act1,act2,act3,act4,act5,act6,act7,act8,act9,act10,act11,act12,act13,act14,act15,act16,act17,cur0_a,cur1_a,cur2_a,cur3_a,cur4_a,cur5_a,cur6_a,cur7_a,cur8_a,cur9_a,cur10_a,cur11_a,cur12_a,cur13_a,cur14_a,cur15_a,cur16_a,cur17_a,obs0,obs1,obs2,obs3,obs4,obs5,obs6,obs7,obs8,obs9,obs10,obs11,obs12,obs13,obs14,obs15,obs16,obs17,obs18,obs19,obs20,obs21,obs22,obs23,obs24,obs25,obs26,obs27,obs28,obs29,obs30,obs31,obs32,obs33,obs34,obs35,obs36,obs37,obs38,obs39,obs40,obs41,obs42,obs43,obs44,obs45,obs46,obs47,obs48,obs49,obs50,obs51,obs52,obs53,obs54,obs55,obs56,obs57,obs58,obs59,obs60,obs61,obs62,obs63,obs64,obs65,obs66,obs67,obs68,obs69,obs70,obs71,rot60_k
0.0,run,0.35,1.52,0.05,0.0,-0.69,0.0,-0.0,0.0,0.019,-0.09,19.25,79.72,0.44,16.52,79.19,-0.09,19.42,79.63,0.18,16.88,79.63,-0.09,18.98,79.28,0.0,17.58,79.19,-1.59,17.75,78.22,-1.06,15.2,80.51,1.41,17.92,81.04,1.68,15.64,80.87,-1.59,17.48,77.78,-1.5,16.17,80.51,-0.9292,-1.0,-0.4436,-1.0,-1.0,1.0,1.0,-1.0,1.0,1.0,-1.0,1.0,-0.1991,-1.0,-0.4537,-1.0,-1.0,1.0,0.013,0.006,0.006,0.006,0.0,0.006,0.006,0.013,0.0,0.006,0.0,0.0,0.019,0.019,0.019,0.019,0.006,0.006,0.0,0.0,0.0,0.0,-0.0015,0.0031,0.0,0.0,0.0,0.0,-0.0031,0.0031,0.0,0.0,0.0,0.0,-0.0015,0.0015,0.0,0.0,0.0,0.0,-0.0038,0.0075,0.0,0.0,0.0,0.0,-0.0075,0.0075,0.0,0.0,0.0,0.0,-0.0038,0.0038,0.0,0.0,-0.0114,0.0215,0.0216,0.0,0.0,0.0,0.0,0.0,0.0,0.0,0.0,0.0,0.0,0.0,0.0,0.0,0.0,0.0,0.0,0.0,0.0,0.0,0.0,0.0,0.0,0.0,0.0,0.0,0.0,0.0,-0.0,0.0,-0.0,0.0,0
0.04,run,0.29,1.52,-0.94,-0.16,-0.34,0.0,-0.0,0.0,0.019,-0.44,19.07,79.63,0.35,16.52,79.54,-0.09,19.16,79.63,0.35,16.61,79.89,-0.35,18.81,79.1,-0.18,17.31,79.45,-3.09,19.25,79.72,-2.56,13.7,82.01,-0.09,16.42,79.54,3.18,14.14,82.37,-3.09,15.98,79.28,-3.0,14.67,82.01,-1.0,1.0,1.0,-1.0,-1.0,1.0,-1.0,-1.0,-1.0,1.0,-1.0,1.0,-1.0,0.3978,1.0,-1.0,-1.0,1.0,0.013,0.006,0.006,0.006,0.0,0.006,0.006,0.013,0.0,0.006,0.0,0.0,0.019,0.019,0.019,0.019,0.006,0.006,0.0,0.0,0.0,0.0,-0.0031,0.0031,0.0,0.0,0.0015,0.0,-0.0046,0.0046,0.0,0.0,0.0,0.0,-0.0015,0.0031,0.0,0.0,0.0,0.0,-0.0051,0.0053,0.0,0.0,0.0025,0.0,-0.0078,0.0078,0.0,0.0,0.0,0.0,-0.0026,0.0051,0.0,-0.0004,0.0008,0.0001,-0.0121,-0.9292,-1.0,-0.4436,-1.0,-1.0,1.0,1.0,-1.0,1.0,1.0,-1.0,1.0,-0.1991,-1.0,-0.4537,-1.0,-1.0,1.0,0.0,0.0,0.0,0.0,0.0,0.0,0.0,0.0,0.0,-0.0,0.0,-0.0,0.0,0
0.08,run,0.28,1.43,0.83,-2.86,-0.83,0.0,-0.0,0.0,0.019,-1.14,18.54,79.19,-0.18,15.73,80.33,0.09,18.37,80.07,0.97,16.08,80.51,-1.14,18.11,78.22,-1.23,16.79,79.98,-1.59,17.75,81.22,-4.06,12.2,83.51,-1.59,17.92,81.04,4.68,12.64,83.87,-4.59,17.48,80.78,-4.5,13.17,83.51,0.2562,0.6381,0.2854,-1.0,-1.0,0.6119,-1.0,1.0,1.0,1.0,-1.0,1.0,-1.0,1.0,1.0,-1.0,-1.0,1.0,0.013,0.006,0.006,0.006,0.0,0.006,0.006,0.013,0.0,0.006,0.0,0.0,0.019,0.019,0.019,0.019,0.006,0.006,-0.0061,-0.0031,-0.0015,-0.0015,-0.0031,0.0092,0.0,-0.0046,0.0015,0.0031,-0.0092,0.0092,-0.0046,-0.0031,-0.0031,-0.0031,-0.0061,0.0077,-0.023,-0.0115,-0.0058,-0.0058,-0.0036,0.0267,0.0,-0.0173,0.0018,0.0115,-0.0227,0.0227,-0.0173,-0.0115,-0.0115,-0.0115,-0.0191,0.0209,-0.0053,-0.0007,-0.0164,-0.0029,-0.006,-1.0,1.0,1.0,-1.0,-1.0,1.0,-1.0,-1.0,-1.0,1.0,-1.0,1.0,-1.0,0.3978,1.0,-1.0,-1.0,1.0,0.0,0.0,0.0,0.0,0.0,0.0,0.0,0.0,0.0,-0.0,0.0,-0.0,0.0,0
0.12,run,0.13,1.45,-3.8,-0.01,-2.48,0.0,-0.0,0.0,0.026,-1.93,18.11,78.93,-1.05,14.85,81.12,0.62,17.75,80.51,2.11,15.21,81.56,-2.02,17.31,78.31,-2.02,15.91,80.86,-3.09,19.25,82.72,-5.56,10.7,85.01,-3.09,19.42,82.54,6.18,11.14,85.37,-3.09,18.98,79.28,-6.0,11.67,85.01,-1.0,1.0,0.5087,-1.0,-1.0,1.0,-1.0,1.0,1.0,1.0,-1.0,1.0,0.4184,1.0,-1.0,-1.0,-1.0,1.0,0.0,0.0,0.0,0.026,0.0,0.006,0.0,0.006,0.006,0.019,0.0,0.0,0.019,0.006,0.0,0.026,0.013,0.006,-0.0184,-0.0123,-0.0092,-0.0107,-0.0169,0.023,0.0031,-0.0184,0.0092,0.0138,-0.0184,0.0199,-0.0184,-0.0153,-0.0184,-0.0215,-0.0153,0.0169,-0.0621,-0.0425,-0.0328,-0.0385,-0.0542,0.0704,0.0115,-0.0638,0.03,0.0483,-0.0504,0.0561,-0.0638,-0.054,-0.0655,-0.077,-0.0479,0.0491,-0.0065,-0.0081,0.0145,-0.0499,-0.0145,0.2562,0.6381,0.2854,-1.0,-1.0,0.6119,-1.0,1.0,1.0,1.0,-1.0,1.0,-1.0,1.0,1.0,-1.0,-1.0,1.0,0.0,0.0,0.0,0.0,0.0,0.0,0.0,0.0,0.0,-0.0,0.0,-0.0,0.0,0
0.16,run,-0.02,1.36,-2.91,-2.62,-8.04,0.0,-0.0,0.0,0.026,-2.46,17.93,78.93,-2.02,13.8,82.44,0.62,17.4,80.86,3.16,14.06,82.79,-3.08,16.88,78.49,-3.25,14.85,81.83,-4.59,20.75,81.22,-7.06,9.2,86.51,-4.59,20.92,84.04,7.68,9.64,86.87,-1.59,17.48,80.78,-7.5,10.17,86.51,-1.0,1.0,0.1024,-1.0,-0.9603,1.0,-1.0,1.0,0.5545,1.0,-1.0,1.0,0.334,0.6568,0.3795,-1.0,-1.0,1.0,0.0,0.0,0.0,0.026,0.0,0.006,0.0,0.006,0.006,0.019,0.0,0.0,0.019,0.006,0.0,0.026,0.013,0.006,-0.0322,-0.0199,-0.0138,-0.0261,-0.0322,0.0368,0.0123,-0.0291,0.0169,0.0337,-0.0337,0.0383,-0.0337,-0.0291,-0.0169,-0.0353,-0.0307,0.0322,-0.0953,-0.0586,-0.0402,-0.0846,-0.0956,0.1012,0.0426,-0.085,0.0498,0.1087,-0.0929,0.1084,-0.1023,-0.0897,-0.0401,-0.1058,-0.0911,0.092,-0.0193,-0.0068,-0.0663,-0.0002,-0.0433,-1.0,1.0,0.5087,-1.0,-1.0,1.0,-1.0,1.0,1.0,1.0,-1.0,1.0,0.4184,1.0,-1.0,-1.0,-1.0,1.0,0.0,0.0,0.0,0.0,0.0,0.0,0.0,0.0,0.0,-0.0,0.0,-0.0,0.0,0
0.2,run,-0.22,1.43,-4.76,2.78,-8.73,0.0,-0.0,0.0,0.026,-3.43,17.93,79.37,-3.34,12.57,83.67,0.62,17.4,81.21,4.39,12.83,84.02,-3.6,16.61,79.28,-4.48,13.62,83.06,-6.09,22.25,82.72,-8.56,7.7,88.01,-6.09,22.42,85.54,9.18,8.14,88.37,-0.09,15.98,79.28,-9.0,8.67,88.01,-1.0,1.0,0.8015,-1.0,-1.0,1.0,-1.0,1.0,1.0,1.0,-1.0,1.0,0.2414,0.1066,-0.0769,-1.0,-1.0,1.0,0.0,0.0,0.0,0.026,0.0,0.006,0.0,0.006,0.006,0.019,0.0,0.0,0.019,0.006,0.0,0.026,0.013,0.006,-0.0414,-0.023,-0.0138,-0.043,-0.0506,0.0598,0.0123,-0.0353,0.023,0.0522,-0.0537,0.0598,-0.0522,-0.0368,-0.0138,-0.0568,-0.0491,0.0491,-0.1012,-0.0525,-0.0282,-0.1225,-0.1359,0.1571,0.0298,-0.0825,0.0579,0.1451,-0.1398,0.1564,-0.1406,-0.0915,-0.0166,-0.1546,-0.1328,0.1277,-0.0326,-0.0147,-0.0508,-0.0458,-0.1402,-1.0,1.0,0.1024,-1.0,-0.9603,1.0,-1.0,1.0,0.5545,1.0,-1.0,1.0,0.334,0.6568,0.3795,-1.0,-1.0,1.0,0.0,0.0,0.0,0.0,0.0,0.0,0.0,0.0,0.0,-0.0,0.0,-0.0,0.0,0
0.24,run,-0.88,1.2,-15.13,-7.34,-11.34,0.0,-0.0,0.0,0.058,-3.6,18.02,80.24,-4.66,11.16,85.17,-0.44,18.02,82.62,5.71,11.43,85.43,-4.04,17.14,79.98,-5.89,12.39,84.29,-7.59,23.75,84.22,-10.06,6.2,89.51,-7.59,20.92,87.04,10.68,6.64,89.87,-1.59,14.48,80.78,-10.5,7.17,89.51,-1.0,1.0,0.3496,-1.0,0.1523,1.0,-1.0,0.4081,0.3735,1.0,-1.0,1.0,-0.982,0.1167,0.3218,-1.0,-1.0,1.0,0.052,0.058,0.013,0.026,0.006,0.0,0.006,0.006,0.006,0.026,0.0,0.0,0.013,0.0,0.013,0.013,0.013,0.013,-0.0583,-0.023,-0.0061,-0.066,-0.0721,0.0813,0.0123,-0.0353,0.0291,0.0736,-0.0752,0.0813,-0.0614,-0.0414,0.0,-0.0782,-0.0706,0.0706,-0.1341,-0.0368,0.009,-0.1719,-0.1756,0.1904,0.0209,-0.0578,0.0635,0.182,-0.1783,0.1899,-0.1329,-0.0813,0.0401,-0.1886,-0.1734,0.1698,-0.0496,-0.0085,-0.083,0.0486,-0.1524,-1.0,1.0,0.8015,-1.0,-1.0,1.0,-1.0,1.0,1.0,1.0,-1.0,1.0,0.2414,0.1066,-0.0769,-1.0,-1.0,1.0,0.0,0.0,0.0,0.0,0.0,0.0,0.0,0.0,0.0,-0.0,0.0,-0.0,0.0,0
0.28,run,-0.35,0.46,11.28,-14.9,-1.87,0.0,-0.0,0.0,0.058,-5.27,18.81,81.3,-6.15,9.84,86.57,-1.76,18.72,83.5,7.21,10.02,86.84,-4.04,16.44,80.24,-7.47,11.34,85.17,-9.09,22.25,82.72,-11.56,4.7,88.01,-9.09,22.42,88.54,12.18,5.14,91.37,-3.09,12.98,82.28,-12.0,5.67,91.01,-1.0,-0.8809,-0.1676,-1.0,-0.0099,-0.277,-1.0,1.0,1.0,1.0,-1.0,1.0,-1.0,-1.0,0.4233,-1.0,-1.0,1.0,0.052,0.058,0.013,0.026,0.006,0.0,0.006,0.006,0.006,0.026,0.0,0.0,0.013,0.0,0.013,0.013,0.013,0.013,-0.0614,-0.0215,0.0092,-0.089,-0.0966,0.1074,-0.0061,-0.0245,0.0537,0.0966,-0.0997,0.1058,-0.069,-0.0322,0.0123,-0.1028,-0.092,0.092,-0.1054,-0.02,0.0639,-0.2068,-0.2151,0.2312,-0.0545,-0.0001,0.1366,0.2139,-0.217,0.2252,-0.1219,-0.0223,0.0742,-0.2242,-0.2021,0.1995,-0.1072,-0.0286,-0.2641,-0.1281,-0.1979,-1.0,1.0,0.3496,-1.0,0.1523,1.0,-1.0,0.4081,0.3735,1.0,-1.0,1.0,-0.982,0.1167,0.3218,-1.0,-1.0,1.0,0.0,0.0,0.0,0.0,0.0,0.0,0.0,0.0,0.0,-0.0,0.0,-0.0,0.0,0
0.32,run,-1.11,0.15,-20.1,-11.02,3.88,0.0,-0.0,0.0,0.058,-6.24,19.51,82.35,-7.38,8.53,87.71,-2.99,19.86,85.08,8.53,8.7,88.07,-3.78,16.08,80.51,-8.61,10.11,86.84,-10.59,20.75,84.22,-13.06,3.2,89.51,-10.59,20.92,90.04,13.68,3.64,92.87,-4.59,14.48,83.78,-13.5,4.17,92.51,-1.0,-1.0,0.8887,-1.0,-1.0,1.0,-1.0,-1.0,0.2969,1.0,-0.6128,1.0,-1.0,1.0,1.0,-1.0,-1.0,1.0,0.052,0.058,0.013,0.026,0.006,0.0,0.006,0.006,0.006,0.026,0.0,0.0,0.013,0.0,0.013,0.013,0.013,0.013,-0.0905,-0.0077,0.0276,-0.115,-0.1197,0.1319,-0.0291,-0.0123,0.069,0.1227,-0.1243,0.1304,-0.069,-0.0445,0.0169,-0.1304,-0.1104,0.1074,-0.1759,0.0344,0.1092,-0.2361,-0.2312,0.2479,-0.1188,0.0429,0.1494,0.2411,-0.2379,0.2436,-0.0853,-0.0586,0.068,-0.2537,-0.2059,0.1934,-0.061,-0.0932,0.1969,-0.26,-0.0326,-1.0,-0.8809,-0.1676,-1.0,-0.0099,-0.277,-1.0,1.0,1.0,1.0,-1.0,1.0,-1.0,-1.0,0.4233,-1.0,-1.0,1.0,0.0,0.0,0.0,0.0,0.0,0.0,0.0,0.0,0.0,-0.0,0.0,-0.0,0.0,0
0.36,run,-0.64,-0.53,15.22,-16.83,3.26,0.0,-0.0,0.0,0.13,-7.56,20.04,83.14,-8.79,7.29,88.42,-4.39,21.01,86.13,9.84,7.29,89.38,-2.9,15.12,81.39,-10.11,8.61,88.24,-12.09,19.25,82.72,-14.56,4.7,91.01,-12.09,22.42,91.54,15.18,2.14,94.37,-6.09,12.98,82.28,-15.0,2.67,94.01,-1.0,-1.0,-0.5234,-1.0,1.0,1.0,-1.0,1.0,1.0,1.0,-1.0,1.0,-0.3706,-1.0,-0.0565,-1.0,-1.0,1.0,0.013,0.13,0.0,0.013,0.013,0.006,0.013,0.0,0.006,0.019,0.0,0.006,0.019,0.0,0.013,0.013,0.026,0.013,-0.1074,0.0046,0.046,-0.1365,-0.1427,0.1519,-0.0506,0.0077,0.0966,0.1457,-0.1473,0.1519,-0.0644,-0.0506,0.0215,-0.1503,-0.1319,0.1365,-0.1911,0.0736,0.1507,-0.2519,-0.2546,0.2539,-0.1697,0.1105,0.2159,0.2615,-0.2593,0.2571,-0.0411,-0.0658,0.0662,-0.258,-0.2307,0.2529,-0.1278,-0.1202,-0.3508,-0.1923,0.0677,-1.0,-1.0,0.8887,-1.0,-1.0,1.0,-1.0,-1.0,0.2969,1.0,-0.6128,1.0,-1.0,1.0,1.0,-1.0,-1.0,1.0,0.0,0.0,0.0,0.0,0.0,0.0,0.0,0.0,0.0,-0.0,0.0,-0.0,0.0,0
0.4,run,-0.57,-1.09,2.2,-15.12,1.77,0.0,-0.0,0.0,0.13,-8.88,20.57,83.67,-10.2,5.89,89.3,-5.8,21.62,87.54,11.25,5.8,90.88,-3.25,14.41,81.91,-11.51,7.21,90.0,-13.59,17.75,84.22,-16.06,3.2,89.51,-13.59,20.92,90.04,16.68,2.94,95.87,-7.59,14.48,83.78,-16.5,1.17,95.51,-1.0,-1.0,0.8669,-1.0,-1.0,-1.0,-1.0,-1.0,-1.0,1.0,0.5079,1.0,-1.0,1.0,1.0,-1.0,-1.0,1.0,0.013,0.13,0.0,0.013,0.013,0.006,0.013,0.0,0.006,0.019,0.0,0.006,0.019,0.0,0.013,0.013,0.026,0.013,-0.1304,0.0138,0.0598,-0.1611,-0.1641,0.1641,-0.0752,0.0276,0.115,0.1687,-0.1718,0.1749,-0.0491,-0.0675,0.0368,-0.1764,-0.158,0.1611,-0.2201,0.086,0.1573,-0.2684,-0.2588,0.2238,-0.2109,0.1521,0.2202,0.2694,-0.2736,0.2663,0.0287,-0.1093,0.1039,-0.2784,-0.2593,0.2691,-0.0868,-0.1792,0.2657,-0.2937,0.0569,-1.0,-1.0,-0.5234,-1.0,1.0,1.0,-1.0,1.0,1.0,1.0,-1.0,1.0,-0.3706,-1.0,-0.0565,-1.0,-1.0,1.0,0.0,0.0,0.0,0.0,0.0,0.0,0.0,0.0,0.0,-0.0,0.0,-0.0,0.0,0
0.44,run,-0.69,-1.55,-4.37,-13.54,-3.81,0.0,-0.0,0.0,0.13,-10.2,20.83,83.94,-11.69,4.83,90.26,-7.21,22.06,88.86,12.66,4.39,91.93,-3.78,13.36,82.44,-12.83,5.89,91.23,-15.09,16.25,85.72,-17.56,4.7,90.25,-15.09,22.42,88.54,18.18,1.44,97.37,-9.09,15.98,85.28,-18.0,-0.33,97.01,-0.8227,-1.0,0.6824,-1.0,0.862,0.297,-1.0,1.0,0.1741,1.0,0.3416,1.0,-1.0,1.0,1.0,-1.0,-1.0,1.0,0.013,0.13,0.0,0.013,0.013,0.006,0.013,0.0,0.006,0.019,0.0,0.006,0.019,0.0,0.013,0.013,0.026,0.013,-0.1534,0.023,0.069,-0.1856,-0.1887,0.1795,-0.0997,0.0383,0.1396,0.1933,-0.1979,0.201,-0.0552,-0.0798,0.046,-0.201,-0.1825,0.1917,-0.2403,0.0947,0.1446,-0.2798,-0.2731,0.2141,-0.2396,0.1467,0.2461,0.2805,-0.2892,0.2841,-0.0029,-0.1225,0.1072,-0.2869,-0.2735,0.3033,-0.0798,-0.2278,0.0384,-0.2639,0.031,-1.0,-1.0,0.8669,-1.0,-1.0,-1.0,-1.0,-1.0,-1.0,1.0,0.5079,1.0,-1.0,1.0,1.0,-1.0,-1.0,1.0,0.0,0.0,0.0,0.0,0.0,0.0,0.0,0.0,0.0,-0.0,0.0,-0.0,0.0,0
0.48,run,-0.54,-2.81,3.24,-33.95,-9.58,0.0,-0.0,0.0,0.13,-11.69,20.92,84.2,-13.1,4.04,90.88,-8.7,22.32,89.91,14.06,3.16,93.43,-4.66,13.01,83.32,-14.33,4.48,92.55,-16.59,14.75,84.22,-19.06,6.2,88.75,-16.59,23.92,90.04,19.68,2.94,98.87,-7.59,14.48,83.78,-19.5,-1.83,98.51,-0.5061,-1.0,-0.179,-1.0,1.0,-1.0,-1.0,1.0,0.5726,1.0,1.0,1.0,0.3185,-0.7524,-0.5389,-1.0,-1.0,1.0,0.006,0.045,0.0,0.019,0.0,0.0,0.019,0.013,0.0,0.026,0.0,0.013,0.019,0.006,0.019,0.019,0.039,0.013,-0.1764,0.0276,0.0736,-0.2117,-0.2071,0.1963,-0.1243,0.046,0.1626,0.2178,-0.2224,0.2194,-0.0644,-0.0982,0.0552,-0.224,-0.2056,0.2132,-0.2546,0.0836,0.1185,-0.2937,-0.2603,0.2132,-0.2598,0.1315,0.2586,0.2885,-0.2946,0.268,-0.0366,-0.1548,0.1096,-0.2872,-0.2778,0.2929,-0.0904,-0.2686,-0.0763,-0.2363,-0.0664,-0.8227,-1.0,0.6824,-1.0,0.862,0.297,-1.0,1.0,0.1741,1.0,0.3416,1.0,-1.0,1.0,1.0,-1.0,-1.0,1.0,0.0,0.0,0.0,0.0,0.0,0.0,0.0,0.0,0.0,-0.0,0.0,-0.0,0.0,0
0.52,run,-0.36,-3.38,5.71,-15.68,-9.49,0.0,-0.0,0.0,0.13,-13.1,21.01,84.55,-14.5,3.43,91.05,-10.11,22.5,90.7,15.38,2.11,94.83,-5.71,12.74,84.2,-15.82,2.99,93.69,-18.09,13.25,85.72,-20.56,4.7,87.25,-18.09,25.42,88.54,21.18,4.44,100.37,-9.09,15.98,85.28,-21.0,-3.33,97.01,-1.0,-1.0,0.2978,-1.0,-0.2951,-1.0,-1.0,1.0,-1.0,1.0,1.0,1.0,-0.576,1.0,1.0,-1.0,-1.0,0.2247,0.006,0.045,0.0,0.019,0.0,0.0,0.019,0.013,0.0,0.026,0.0,0.013,0.019,0.006,0.019,0.019,0.039,0.013,-0.2025,0.0291,0.0782,-0.2362,-0.2209,0.2071,-0.1503,0.0506,0.181,0.2424,-0.2439,0.2454,-0.0798,-0.1043,0.0706,-0.25,-0.2301,0.2362,-0.2762,0.0643,0.1002,-0.2979,-0.2341,0.1896,-0.2799,0.1093,0.2502,0.2942,-0.2869,0.2856,-0.0833,-0.1315,0.1344,-0.299,-0.2867,0.2915,-0.0778,-0.378,0.0566,-0.5925,-0.1672,-0.5061,-1.0,-0.179,-1.0,1.0,-1.0,-1.0,1.0,0.5726,1.0,1.0,1.0,0.3185,-0.7524,-0.5389,-1.0,-1.0,1.0,0.0,0.0,0.0,0.0,0.0,0.0,0.0,0.0,0.0,-0.0,0.0,-0.0,0.0,0
0.56,run,-0.29,-3.94,1.43,-16.7,-10.23,0.0,-0.0,0.0,0.13,-14.5,20.92,84.55,-16.08,3.25,90.88,-11.51,23.2,91.23,16.88,1.58,96.24,-6.68,12.74,84.64,-17.14,1.58,95.62,-19.59,11.75,87.22,-22.06,3.2,85.75,-19.59,26.92,87.04,22.68,5.94,101.87,-10.59,17.48,86.78,-22.5,-4.83,98.51,-0.6759,-1.0,0.8238,-1.0,-0.0641,-1.0,-1.0,1.0,0.0126,1.0,1.0,0.8597,-0.8521,1.0,1.0,-1.0,-1.0,0.7352,0.006,0.045,0.0,0.019,0.0,0.0,0.019,0.013,0.0,0.026,0.0,0.013,0.019,0.006,0.019,0.019,0.039,0.013,-0.227,0.0307,0.0844,-0.2608,-0.2316,0.2102,-0.1749,0.0537,0.1948,0.2654,-0.2623,0.27,-0.0982,-0.1089,0.0859,-0.2761,-0.2562,0.2562,-0.2851,0.0507,0.0931,-0.3002,-0.204,0.1442,-0.2877,0.088,0.2268,0.2919,-0.2696,0.2916,-0.1271,-0.1092,0.1514,-0.3068,-0.2982,0.2786,-0.0622,-0.4283,0.0997,-0.2736,-0.1657,-1.0,-1.0,0.2978,-1.0,-0.2951,-1.0,-1.0,1.0,-1.0,1.0,1.0,1.0,-0.576,1.0,1.0,-1.0,-1.0,0.2247,0.0,0.0,0.0,0.0,0.0,0.0,0.0,0.0,0.0,-0.0,0.0,-0.0,0.0,0
0.6,run,0.42,-3.98,18.61,-1.84,-10.19,0.0,-0.0,0.0,0.13,-15.91,20.04,84.46,-17.93,3.25,90.26,-12.83,24.17,91.32,18.28,1.14,97.56,-7.73,13.45,85.08,-18.63,0.18,96.59,-21.09,10.25,88.72,-23.56,1.7,84.25,-21.09,28.42,88.54,24.18,7.44,103.37,-9.09,15.98,85.28,-24.0,-6.33,97.01,-1.0,-1.0,0.346,-1.0,0.2156,-0.4046,-1.0,1.0,1.0,1.0,1.0,0.5983,-0.2455,0.3427,-0.2218,-1.0,-1.0,0.2777,0.019,0.0,0.0,0.006,0.0,0.033,0.019,0.013,0.0,0.026,0.019,0.045,0.033,0.065,0.026,0.013,0.033,0.006,-0.2516,0.0291,0.0844,-0.2884,-0.2347,0.2071,-0.1994,0.066,0.204,0.2915,-0.2715,0.2945,-0.115,-0.1089,0.0936,-0.2991,-0.2807,0.2899,-0.2917,0.0297,0.0652,-0.3138,-0.1543,0.0894,-0.2935,0.1077,0.1933,0.3023,-0.2233,0.2963,-0.1523,-0.0765,0.1348,-0.3011,-0.3009,0.3217,-0.0559,-0.4769,0.0249,-0.2914,-0.1786,-0.6759,-1.0,0.8238,-1.0,-0.0641,-1.0,-1.0,1.0,0.0126,1.0,1.0,0.8597,-0.8521,1.0,1.0,-1.0,-1.0,0.7352,0.0,0.0,0.0,0.0,0.0,0.0,0.0,0.0,0.0,-0.0,0.0,-0.0,0.0,0
0.64,run,3.11,-3.83,58.0,7.55,-4.24,0.0,-0.0,0.0,0.13,-17.58,18.9,85.43,-19.07,3.08,89.3,-14.33,25.31,91.32,19.69,1.05,98.88,-8.79,14.06,85.69,-20.13,-1.23,97.12,-22.59,8.75,87.22,-25.06,0.2,85.75,-22.59,26.92,90.04,25.68,8.94,104.87,-10.59,17.48,86.78,-22.5,-7.83,95.51,-0.9097,-1.0,0.2382,-1.0,-1.0,0.5215,-1.0,-1.0,0.8894,1.0,1.0,0.476,-1.0,1.0,1.0,0.5751,-1.0,-1.0,0.019,0.0,0.0,0.006,0.0,0.033,0.019,0.013,0.0,0.026,0.019,0.045,0.033,0.065,0.026,0.013,0.033,0.006,-0.2761,0.0138,0.0828,-0.3206,-0.2347,0.1963,-0.2224,0.0828,0.2056,0.316,-0.2792,0.3175,-0.1335,-0.0966,0.1012,-0.3252,-0.3053,0.3068,-0.2961,-0.0366,0.0399,-0.3403,-0.108,0.0224,-0.2916,0.1386,0.141,0.3035,-0.185,0.2936,-0.1755,-0.0076,0.1231,-0.3085,-0.3025,0.2884,0.0061,-0.4806,0.3248,-0.0322,-0.1778,-1.0,-1.0,0.346,-1.0,0.2156,-0.4046,-1.0,1.0,1.0,1.0,1.0,0.5983,-0.2455,0.3427,-0.2218,-1.0,-1.0,0.2777,0.0,0.0,0.0,0.0,0.0,0.0,0.0,0.0,0.0,-0.0,0.0,-0.0,0.0,0
0.68,run,4.23,-4.39,31.12,-15.77,-15.41,0.0,-0.0,0.0,0.13,-18.63,17.49,86.22,-20.48,2.29,87.98,-15.73,26.54,90.88,21.09,1.05,100.37,-9.49,14.94,85.96,-21.45,-2.64,98.09,-21.09,7.25,88.72,-26.56,-1.3,84.25,-24.09,25.42,88.54,27.18,10.44,106.37,-12.09,18.98,88.28,-21.0,-9.33,94.01,1.0,-1.0,1.0,-1.0,-1.0,-0.6819,-1.0,-1.0,-1.0,0.9917,1.0,1.0,-1.0,1.0,1.0,1.0,-0.1475,-1.0,0.019,0.0,0.0,0.006,0.0,0.033,0.019,0.013,0.0,0.026,0.019,0.045,0.033,0.065,0.026,0.013,0.033,0.006,-0.3053,-0.0061,0.0997,-0.3405,-0.2378,0.1795,-0.2485,0.1028,0.2056,0.3405,-0.2807,0.3405,-0.1519,-0.0859,0.112,-0.3513,-0.3298,0.316,-0.3166,-0.1004,0.0912,-0.313,-0.0871,-0.0476,-0.3019,0.1718,0.0987,0.3045,-0.1353,0.2918,-0.1919,0.035,0.1264,-0.3137,-0.3038,0.2364,0.2409,-0.4673,1.0123,0.1317,-0.074,-0.9097,-1.0,0.2382,-1.0,-1.0,0.5215,-1.0,-1.0,0.8894,1.0,1.0,0.476,-1.0,1.0,1.0,0.5751,-1.0,-1.0,0.0,0.0,0.0,0.0,0.0,0.0,0.0,0.0,0.0,-0.0,0.0,-0.0,0.0,0
0.72,run,5.61,-4.68,36.46,-6.21,-9.78,0.0,-0.0,0.0,0.143,-20.13,16.08,87.01,-21.88,1.32,86.66,-17.05,27.42,90.44,22.59,1.41,101.87,-10.2,15.91,86.57,-22.5,-4.13,98.09,-19.59,5.75,90.22,-28.06,-2.8,82.75,-25.59,26.92,87.04,28.68,11.94,107.87,-13.59,20.48,89.78,-19.5,-10.83,92.51,1.0,-1.0,1.0,-1.0,-1.0,-1.0,-1.0,1.0,-0.3878,1.0,1.0,1.0,-1.0,1.0,1.0,1.0,-0.1633,-1.0,0.006,0.0,0.019,0.006,0.0,0.013,0.019,0.0,0.045,0.026,0.143,0.013,0.033,0.13,0.026,0.0,0.026,0.0,-0.3237,-0.0307,0.1135,-0.3651,-0.2516,0.1565,-0.273,0.1243,0.1979,0.3651,-0.2807,0.3666,-0.1641,-0.0706,0.1166,-0.3743,-0.3543,0.3329,-0.2907,-0.1624,0.1156,-0.3112,-0.1128,-0.1197,-0.3034,0.2008,0.0403,0.3052,-0.0947,0.3021,-0.1804,0.082,0.1058,-0.3059,-0.3047,0.2288,0.3383,-0.5162,0.5431,-0.2753,-0.2689,1.0,-1.0,1.0,-1.0,-1.0,-0.6819,-1.0,-1.0,-1.0,0.9917,1.0,1.0,-1.0,1.0,1.0,1.0,-0.1475,-1.0,0.0,0.0,0.0,0.0,0.0,0.0,0.0,0.0,0.0,-0.0,0.0,-0.0,0.0,0
0.76,run,7.65,-5.11,52.7,-8.01,-4.36,0.0,-0.0,0.0,0.143,-21.01,14.68,87.71,-23.29,0.18,84.9,-18.37,28.04,89.82,23.99,2.11,103.27,-11.25,17.05,87.28,-23.29,-5.45,98.17,-18.09,4.25,91.72,-29.56,-4.3,81.25,-27.09,25.42,88.54,30.18,13.44,109.37,-15.09,21.98,91.28,-18.0,-9.33,91.01,1.0,-1.0,1.0,-1.0,-1.0,0.0674,-1.0,-0.2224,1.0,1.0,1.0,1.0,-1.0,1.0,0.4876,1.0,0.9713,-1.0,0.006,0.0,0.019,0.006,0.0,0.013,0.019,0.0,0.045,0.026,0.143,0.013,0.033,0.13,0.026,0.0,0.026,0.0,-0.3497,-0.0552,0.1273,-0.3896,-0.2684,0.1335,-0.2961,0.1396,0.1902,0.3912,-0.2746,0.3927,-0.1764,-0.0537,0.1273,-0.3927,-0.3804,0.3329,-0.3012,-0.2057,0.1327,-0.3098,-0.1422,-0.17,-0.2987,0.1981,-0.0005,0.3114,-0.0433,0.3092,-0.1723,0.1207,0.1143,-0.2831,-0.3111,0.1601,0.4594,-0.5418,0.6363,-0.1084,-0.1706,1.0,-1.0,1.0,-1.0,-1.0,-1.0,-1.0,1.0,-0.3878,1.0,1.0,1.0,-1.0,1.0,1.0,1.0,-0.1633,-1.0,0.0,0.0,0.0,0.0,0.0,0.0,0.0,0.0,0.0,-0.0,0.0,-0.0,0.0,0
0.8,run,9.32,-5.75,40.44,-15.97,-6.17,0.0,-0.0,0.0,0.143,-21.71,13.27,88.59,-24.7,-1.23,84.2,-19.78,28.39,89.12,25.58,3.25,104.5,-12.48,18.37,88.42,-23.82,-6.86,97.56,-16.59,2.75,93.22,-31.06,-5.8,79.75,-28.59,23.92,90.04,31.68,14.94,110.87,-16.59,23.48,89.78,-16.5,-7.83,89.51,1.0,-1.0,0.9739,-1.0,-1.0,0.1304,-1.0,-1.0,1.0,1.0,1.0,1.0,-1.0,1.0,-1.0,1.0,0.8249,-1.0,0.006,0.0,0.019,0.006,0.0,0.013,0.019,0.0,0.045,0.026,0.143,0.013,0.033,0.13,0.026,0.0,0.026,0.0,-0.3651,-0.0798,0.1396,-0.4142,-0.2884,0.1028,-0.3191,0.1503,0.1795,0.4157,-0.2623,0.4172,-0.1948,-0.0337,0.1396,-0.4065,-0.4034,0.3344,-0.2684,-0.236,0.1389,-0.3089,-0.1743,-0.234,-0.2953,0.1789,-0.0406,0.31,0.0157,0.3085,-0.1896,0.1593,0.126,-0.25,-0.304,0.1179,0.637,-0.5793,0.9198,-0.1398,-0.076,1.0,-1.0,1.0,-1.0,-1.0,0.0674,-1.0,-0.2224,1.0,1.0,1.0,1.0,-1.0,1.0,0.4876,1.0,0.9713,-1.0,0.0,0.0,0.0,0.0,0.0,0.0,0.0,0.0,0.0,-0.0,0.0,-0.0,0.0,0
0.84,run,12.55,-7.34,80.28,-39.74,-5.15,0.0,-0.0,0.0,0.247,-22.15,11.95,89.65,-26.19,-2.64,82.44,-21.18,28.56,88.59,27.07,4.48,105.91,-13.8,19.69,89.47,-23.73,-8.0,96.86,-15.09,1.25,94.72,-32.56,-7.3,81.25,-30.09,22.42,91.54,30.18,16.44,109.37,-18.09,24.98,88.28,-15.0,-6.33,88.01,1.0,-1.0,1.0,-1.0,-1.0,0.4903,-1.0,-0.4217,1.0,0.5338,1.0,0.344,-1.0,1.0,-0.5783,1.0,1.0,-1.0,0.019,0.0,0.006,0.0,0.026,0.104,0.006,0.013,0.0,0.006,0.247,0.026,0.0,0.006,0.0,0.0,0.0,0.0,-0.3774,-0.1043,0.1549,-0.4387,-0.3129,0.0905,-0.3436,0.1565,0.1672,0.4433,-0.2424,0.4387,-0.2163,-0.0107,0.1595,-0.4157,-0.428,0.3237,-0.2339,-0.2573,0.1548,-0.3083,-0.2141,-0.2099,-0.2988,0.1483,-0.0745,0.3206,0.0858,0.2965,-0.2133,0.1978,0.163,-0.2095,-0.3049,0.0422,0.7828,-0.6344,0.7059,-0.2786,-0.1076,1.0,-1.0,0.9739,-1.0,-1.0,0.1304,-1.0,-1.0,1.0,1.0,1.0,1.0,-1.0,1.0,-1.0,1.0,0.8249,-1.0,0.0,0.0,0.0,0.0,0.0,0.0,0.0,0.0,0.0,-0.0,0.0,-0.0,0.0,0
0.88,run,12.15,-7.21,-0.35,0.07,0.93,0.0,-0.0,0.0,0.247,-15.47,1.23,94.39,-32.52,-8.17,79.89,-29.88,22.76,91.49,30.32,13.45,108.81,-18.02,24.79,88.33,-14.94,-6.42,88.24,-13.59,-0.25,96.22,-34.06,-8.8,79.75,-31.59,20.92,93.04,31.68,17.94,110.87,-19.59,26.48,86.78,-13.5,-4.83,86.51,1.0,-1.0,1.0,-1.0,-1.0,-1.0,-1.0,-0.9741,1.0,0.9195,1.0,1.0,-1.0,1.0,0.0266,1.0,0.8957,-1.0,0.013,0.0,0.006,0.0,0.019,0.123,0.006,0.019,0.0,0.006,0.24,0.026,0.006,0.006,0.006,0.0,0.0,0.006,-0.385,-0.1273,0.1733,-0.4648,-0.3375,0.0598,-0.3682,0.1595,0.158,0.4694,-0.2209,0.4633,-0.2393,0.0123,0.1779,-0.4142,-0.4479,0.3114,-0.1923,-0.2657,0.1768,-0.3129,-0.2412,-0.2611,-0.3005,0.1152,-0.0864,0.3215,0.14,0.2989,-0.2349,0.2241,0.1826,-0.141,-0.2876,-0.0161,1.0644,-0.7735,1.4011,-0.6935,-0.0899,1.0,-1.0,1.0,-1.0,-1.0,0.4903,-1.0,-0.4217,1.0,0.5338,1.0,0.344,-1.0,1.0,-0.5783,1.0,1.0,-1.0,0.0,0.0,0.0,0.0,0.0,0.0,0.0,0.0,0.0,-0.0,0.0,-0.0,0.0,0
0.92,run,12.29,-7.15,-0.03,0.48,0.95,0.0,-0.0,0.0,0.247,-15.47,1.14,94.39,-32.61,-8.17,79.89,-29.88,22.76,91.58,30.32,13.45,108.81,-18.02,24.79,88.33,-14.94,-6.42,88.15,-12.09,-1.75,97.72,-35.0,-10.3,81.25,-33.09,22.42,94.54,30.18,19.44,109.37,-21.09,27.98,85.28,-12.0,-3.33,85.01,1.0,-1.0,1.0,-1.0,-1.0,1.0,-1.0,1.0,1.0,-1.0,1.0,-1.0,-1.0,1.0,-1.0,1.0,1.0,-1.0,0.013,0.0,0.006,0.0,0.019,0.123,0.006,0.019,0.0,0.006,0.24,0.026,0.006,0.006,0.006,0.0,0.0,0.006,-0.2684,-0.3145,0.2562,-0.5752,-0.4341,0.0153,-0.52,0.0583,0.2086,0.5262,-0.0644,0.5139,-0.3129,0.1012,0.158,-0.2608,-0.4203,0.1611,-0.1923,-0.2657,0.1768,-0.3129,-0.2412,-0.2611,-0.3005,0.1152,-0.0864,0.3215,0.14,0.2989,-0.2349,0.2241,0.1826,-0.141,-0.2876,-0.0161,1.0296,-0.7622,-0.0061,0.0011,0.0163,1.0,-1.0,1.0,-1.0,-1.0,-1.0,-1.0,-0.9741,1.0,0.9195,1.0,1.0,-1.0,1.0,0.0266,1.0,0.8957,-1.0,0.0,0.0,0.0,0.0,0.0,0.0,0.0,0.0,0.0,-0.0,0.0,-0.0,0.0,0
0.96,run,12.66,-7.08,5.76,1.19,-0.9,0.0,-0.0,0.0,0.247,-15.03,0.7,94.75,-33.05,-8.61,79.89,-30.06,22.5,92.02,30.5,13.71,108.81,-18.46,25.22,87.63,-14.77,-6.15,87.63,-10.59,-3.25,99.22,-35.0,-11.8,82.75,-34.59,20.92,96.04,28.68,20.94,107.87,-22.59,29.48,83.78,-10.5,-1.83,83.51,1.0,-1.0,1.0,-1.0,-1.0,1.0,-1.0,0.6385,1.0,-1.0,1.0,-1.0,-1.0,1.0,-1.0,1.0,1.0,-1.0,0.013,0.0,0.006,0.0,0.019,0.123,0.006,0.019,0.0,0.006,0.24,0.026,0.006,0.006,0.006,0.0,0.0,0.006,-0.2684,-0.316,0.2562,-0.5768,-0.4341,0.0153,-0.52,0.0583,0.2102,0.5262,-0.0644,0.5139,-0.3129,0.1012,0.158,-0.2608,-0.4203,0.1595,-0.1346,-0.1917,0.1238,-0.2247,-0.1688,-0.1827,-0.2104,0.0806,-0.0548,0.225,0.098,0.2092,-0.1645,0.1569,0.1278,-0.0987,-0.2013,-0.017,1.0416,-0.7574,-0.0005,0.0083,0.0166,1.0,-1.0,1.0,-1.0,-1.0,1.0,-1.0,1.0,1.0,-1.0,1.0,-1.0,-1.0,1.0,-1.0,1.0,1.0,-1.0,0.0,0.0,0.0,0.0,0.0,0.0,0.0,0.0,0.0,-0.0,0.0,-0.0,0.0,0
1.0,run,12.97,-7.23,6.59,-5.58,-5.81,0.0,-0.0,0.0,0.292,-14.24,0.09,95.36,-33.66,-9.32,79.89,-30.85,22.15,92.64,30.59,14.59,108.81,-19.25,26.02,86.92,-13.45,-5.36,87.01,-9.09,-4.75,100.72,-35.0,-13.3,84.25,-35.0,19.42,97.54,27.18,22.44,106.37,-24.09,30.0,82.28,-9.0,-0.33,82.01,1.0,-1.0,1.0,-1.0,-1.0,1.0,-1.0,0.3297,1.0,-1.0,1.0,-1.0,-1.0,1.0,-1.0,1.0,1.0,-1.0,0.045,0.006,0.026,0.006,0.0,0.182,0.013,0.058,0.0,0.033,0.292,0.006,0.013,0.019,0.013,0.0,0.006,0.019,-0.2608,-0.3237,0.2623,-0.5844,-0.4418,0.0153,-0.5231,0.0537,0.2178,0.5292,-0.0598,0.5139,-0.3206,0.1089,0.1457,-0.2577,-0.4157,0.1503,-0.0655,-0.163,0.1097,-0.1861,-0.147,-0.1279,-0.1588,0.0392,-0.0096,0.169,0.0859,0.1465,-0.1439,0.1386,0.0435,-0.0576,-0.1237,-0.0464,1.0743,-0.7512,0.1006,0.0209,-0.0157,1.0,-1.0,1.0,-1.0,-1.0,1.0,-1.0,0.6385,1.0,-1.0,1.0,-1.0,-1.0,1.0,-1.0,1.0,1.0,-1.0,0.0,0.0,0.0,0.0,0.0,0.0,0.0,0.0,0.0,-0.0,0.0,-0.0,0.0,0
1.04,run,13.51,-6.98,11.15,5.58,-12.75,0.0,-0.002,0.0,0.292,-13.18,-0.79,96.33,-34.37,-10.37,80.33,-31.73,21.53,93.52,30.06,15.56,108.28,-20.3,27.07,85.87,-12.74,-4.48,86.04,-7.59,-6.25,99.22,-35.0,-14.8,82.75,-35.0,17.92,99.04,25.68,23.94,104.87,-22.59,30.0,80.78,-7.5,-1.83,83.51,0.1022,-1.0,-0.2586,-1.0,-1.0,0.1481,-1.0,-1.0,1.0,-1.0,1.0,-1.0,1.0,1.0,0.1389,1.0,-1.0,1.0,0.045,0.006,0.026,0.006,0.0,0.182,0.013,0.058,0.0,0.033,0.292,0.006,0.013,0.019,0.013,0.0,0.006,0.019,-0.247,-0.3344,0.273,-0.5952,-0.4541,0.0153,-0.5369,0.0476,0.2286,0.5308,-0.0445,0.5139,-0.3344,0.1227,0.1335,-0.2347,-0.4019,0.1396,0.0059,-0.1543,0.117,-0.1705,-0.1488,-0.0895,-0.1629,0.0044,0.0335,0.1241,0.1176,0.1025,-0.1524,0.1487,-0.0156,0.0459,-0.0349,-0.0727,1.1016,-0.7637,0.115,-0.0973,-0.1013,1.0,-1.0,1.0,-1.0,-1.0,1.0,-1.0,0.3297,1.0,-1.0,1.0,-1.0,-1.0,1.0,-1.0,1.0,1.0,-1.0,0.0,0.0,0.0,0.0,0.0,0.0,0.0,0.0,0.0,-0.0133,0.0,-0.0133,0.0,3
1.08,run,14.07,-6.97,9.77,0.9,-4.67,0.0,-0.004,0.0,0.292,-11.95,-2.02,97.47,-34.8,-11.34,81.21,-32.78,20.65,94.66,29.36,16.88,107.31,-21.53,28.12,84.46,-11.34,-3.34,84.9,-9.09,-7.75,97.72,-35.0,-16.3,81.25,-35.0,16.42,100.54,24.18,22.44,103.37,-21.09,30.0,82.28,-6.0,-3.33,85.01,-0.3123,-1.0,-1.0,-1.0,-1.0,-0.4563,-1.0,-1.0,1.0,-1.0,0.1943,-1.0,1.0,1.0,1.0,1.0,-1.0,1.0,0.045,0.006,0.026,0.006,0.0,0.182,0.013,0.058,0.0,0.033,0.292,0.006,0.013,0.019,0.013,0.0,0.006,0.019,-0.2286,-0.3497,0.2899,-0.6075,-0.4725,0.023,-0.5522,0.0368,0.2439,0.5216,-0.0276,0.5047,-0.3528,0.1411,0.115,-0.2224,-0.3866,0.1227,0.0735,-0.1658,0.1454,-0.1655,-0.1735,-0.0338,-0.1718,-0.0373,0.0812,0.0522,0.1458,0.0371,-0.176,0.1734,-0.0802,0.0784,0.0334,-0.1144,1.1483,-0.7422,0.1945,0.0975,-0.2225,0.1022,-1.0,-0.2586,-1.0,-1.0,0.1481,-1.0,-1.0,1.0,-1.0,1.0,-1.0,1.0,1.0,0.1389,1.0,-1.0,1.0,0.0,0.0,0.0,0.0,0.0,0.0,0.0,0.0,0.0,-0.0267,0.0,-0.0267,0.0,3
1.12,run,14.72,-6.77,12.6,4.26,-6.17,0.0,-0.006,0.0,0.299,-10.63,-3.43,98.53,-34.89,-12.83,81.74,-33.66,19.42,95.89,28.21,18.11,106.26,-22.41,29.09,83.14,-9.84,-2.37,83.94,-7.59,-9.25,96.22,-35.0,-17.8,79.75,-35.0,14.92,102.04,22.68,20.94,101.87,-19.59,30.0,83.78,-4.5,-4.83,86.51,0.1687,-1.0,-1.0,-1.0,-1.0,-0.9387,-1.0,-1.0,1.0,-1.0,0.0697,-1.0,1.0,1.0,1.0,1.0,-1.0,1.0,0.026,0.0,0.013,0.0,0.0,0.091,0.013,0.052,0.013,0.071,0.299,0.0,0.006,0.0,0.006,0.039,0.006,0.006,-0.2071,-0.3712,0.3099,-0.6151,-0.4893,0.0383,-0.5706,0.0215,0.2638,0.5093,-0.0046,0.4878,-0.3743,0.1595,0.0905,-0.1979,-0.3666,0.1028,0.1317,-0.1963,0.1763,-0.1445,-0.1845,0.0337,-0.189,-0.0835,0.1314,-0.0093,0.1881,-0.0371,-0.2035,0.1902,-0.1479,0.1466,0.0979,-0.1546,1.1974,-0.7414,0.1705,0.0157,-0.0815,-0.3123,-1.0,-1.0,-1.0,-1.0,-0.4563,-1.0,-1.0,1.0,-1.0,0.1943,-1.0,1.0,1.0,1.0,1.0,-1.0,1.0,0.0,0.0,0.0,0.0,0.0,0.0,0.0,0.0,0.0,-0.04,0.0,-0.04,0.0,3
1.16,run,15.16,-5.45,3.88,16.26,1.4,0.0,-0.008,0.0,0.299,-8.7,-6.24,99.76,-34.89,-15.64,81.91,-34.54,16.79,98.44,25.66,19.95,103.54,-23.47,29.88,81.39,-6.86,-1.05,82.71,-6.09,-10.75,94.72,-35.0,-19.3,78.25,-35.0,13.42,103.54,21.18,19.44,100.37,-18.09,30.0,85.28,-3.0,-6.33,88.01,0.6684,-1.0,-1.0,-1.0,-1.0,-1.0,-1.0,-1.0,1.0,-1.0,-0.0311,-1.0,1.0,1.0,1.0,1.0,-1.0,1.0,0.026,0.0,0.013,0.0,0.0,0.091,0.013,0.052,0.013,0.071,0.299,0.0,0.006,0.0,0.006,0.039,0.006,0.006,-0.1841,-0.3958,0.3283,-0.6167,-0.5154,0.0476,-0.586,0.0,0.2853,0.4893,0.0169,0.4694,-0.3896,0.1764,0.0675,-0.1718,-0.3497,0.0859,0.1785,-0.2294,0.1925,-0.1069,-0.2269,0.0581,-0.1898,-0.1389,0.1725,-0.0813,0.2122,-0.095,-0.2,0.1964,-0.1898,0.2004,0.1318,-0.1715,1.2543,-0.7242,0.22,0.0743,-0.1076,0.1687,-1.0,-1.0,-1.0,-1.0,-0.9387,-1.0,-1.0,1.0,-1.0,0.0697,-1.0,1.0,1.0,1.0,1.0,-1.0,1.0,0.0,0.0,0.0,0.0,0.0,0.0,0.0,0.0,0.0,-0.0533,0.0,-0.0533,0.0,3
1.2,run,15.42,-5.01,7.08,20.32,3.87,0.0,-0.01,0.0,0.299,-8.17,-7.12,99.76,-34.89,-16.44,81.74,-34.54,16.08,99.4,24.87,20.21,102.74,-23.38,29.97,81.12,-6.68,-0.97,82.71,-4.59,-12.25,93.22,-33.5,-20.8,76.75,-35.0,11.92,105.04,19.68,17.94,98.87,-16.59,30.0,86.78,-1.5,-7.83,89.51,1.0,-1.0,-1.0,-0.7971,-1.0,-1.0,-1.0,-1.0,1.0,-1.0,-1.0,-1.0,1.0,1.0,1.0,1.0,-1.0,1.0,0.033,0.0,0.0,0.0,0.0,0.0,0.013,0.019,0.006,0.111,0.292,0.006,0.0,0.0,0.0,0.033,0.006,0.0,-0.1503,-0.4449,0.3497,-0.6167,-0.5645,0.0506,-0.6013,-0.046,0.3298,0.4449,0.0491,0.4218,-0.408,0.1902,0.0368,-0.1197,-0.3267,0.0644,0.1877,-0.2519,0.1747,-0.0749,-0.2501,0.0464,-0.1614,-0.1828,0.2035,-0.1396,0.2084,-0.1549,-0.1742,0.1632,-0.1899,0.2373,0.135,-0.16,1.2928,-0.6083,0.0677,0.2837,0.0244,0.6684,-1.0,-1.0,-1.0,-1.0,-1.0,-1.0,-1.0,1.0,-1.0,-0.0311,-1.0,1.0,1.0,1.0,1.0,-1.0,1.0,0.0,0.0,0.0,0.0,0.0,0.0,0.0,0.0,0.0,-0.0667,0.0,-0.0667,0.0,3
1.24,run,15.87,-4.58,7.5,9.72,7.34,0.0,-0.012,0.0,0.299,-7.21,-8.44,99.76,-34.89,-17.67,80.95,-34.54,14.94,100.72,23.82,20.48,101.6,-23.29,30.06,81.04,-4.57,-1.05,82.79,-3.09,-13.75,91.72,-32.0,-22.3,75.25,-35.0,10.42,106.54,18.18,16.44,97.37,-15.09,30.0,88.28,0.0,-9.33,91.01,1.0,-1.0,-1.0,-0.1428,-1.0,-1.0,-1.0,-1.0,1.0,-1.0,-1.0,-1.0,1.0,1.0,1.0,1.0,-1.0,1.0,0.033,0.0,0.0,0.0,0.0,0.0,0.013,0.019,0.006,0.111,0.292,0.006,0.0,0.0,0.0,0.033,0.006,0.0,-0.1411,-0.4602,0.3497,-0.6167,-0.5783,0.0476,-0.6013,-0.0583,0.3467,0.431,0.0537,0.408,-0.4065,0.1917,0.0322,-0.1166,-0.3252,0.0644,0.1934,-0.2797,0.1223,-0.0524,-0.2681,0.0118,-0.113,-0.2107,0.2561,-0.1908,0.1769,-0.2015,-0.1116,0.1245,-0.1639,0.1868,0.1049,-0.112,1.315,-0.5701,0.1235,0.3546,0.0676,1.0,-1.0,-1.0,-0.7971,-1.0,-1.0,-1.0,-1.0,1.0,-1.0,-1.0,-1.0,1.0,1.0,1.0,1.0,-1.0,1.0,0.0,0.0,0.0,0.0,0.0,0.0,0.0,0.0,0.0,-0.08,0.0,-0.08,0.0,3
1.28,run,16.31,-4.18,8.44,9.49,1.64,0.0,-0.014,0.0,0.299,-6.24,-9.84,99.76,-34.89,-18.9,79.72,-34.54,13.71,102.04,22.41,20.65,100.37,-22.32,30.06,81.12,-3.87,-1.49,83.23,-1.59,-15.25,90.22,-30.5,-23.8,73.75,-35.0,8.92,108.04,16.68,14.94,95.87,-13.59,30.0,89.78,1.5,-10.83,92.51,1.0,-1.0,-1.0,0.6185,-1.0,-0.4372,-1.0,-1.0,1.0,-1.0,-1.0,-1.0,1.0,1.0,1.0,1.0,-1.0,1.0,0.033,0.0,0.0,0.0,0.0,0.0,0.013,0.019,0.006,0.111,0.292,0.006,0.0,0.0,0.0,0.033,0.006,0.0,-0.1243,-0.4832,0.3497,-0.6167,-0.5998,0.0337,-0.6013,-0.0782,0.3697,0.4126,0.0583,0.3881,-0.405,0.1933,0.0307,-0.0798,-0.3267,0.066,0.1981,-0.2813,0.0856,-0.0367,-0.2675,-0.0431,-0.0791,-0.2216,0.2648,-0.202,0.1409,-0.2152,-0.0724,0.0929,-0.1205,0.2676,0.0677,-0.0727,1.3543,-0.5331,0.1308,0.1697,0.1281,1.0,-1.0,-1.0,-0.1428,-1.0,-1.0,-1.0,-1.0,1.0,-1.0,-1.0,-1.0,1.0,1.0,1.0,1.0,-1.0,1.0,0.0,0.0,0.0,0.0,0.0,0.0,0.0,0.0,0.0,-0.0933,0.0,-0.0933,0.0,3
1.32,run,16.73,-3.69,7.89,11.41,13.09,0.0,-0.016,0.0,0.299,-5.01,-11.16,98.7,-34.54,-20.04,78.31,-34.54,12.3,103.45,21.01,20.65,98.88,-21.36,30.06,81.91,-1.85,-2.29,84.29,-0.09,-16.75,88.72,-29.0,-25.3,72.25,-35.0,7.42,109.54,15.18,13.44,94.37,-12.09,30.0,91.28,3.0,-12.33,94.01,1.0,-1.0,-1.0,1.0,-1.0,-0.0153,-1.0,-1.0,1.0,-1.0,-1.0,-1.0,1.0,1.0,1.0,1.0,-1.0,1.0,0.065,0.006,0.019,0.039,0.0,0.0,0.006,0.019,0.026,0.123,0.026,0.0,0.026,0.0,0.006,0.013,0.033,0.013,-0.1074,-0.5077,0.3497,-0.6167,-0.6213,0.0123,-0.6013,-0.0997,0.3927,0.3881,0.0614,0.3666,-0.3881,0.1933,0.0322,-0.0675,-0.3344,0.0736,0.2016,-0.2884,0.0599,-0.0257,-0.2673,-0.1102,-0.0554,-0.2352,0.2712,-0.2329,0.1101,-0.2307,0.0122,0.065,-0.0786,0.2331,0.0188,-0.0223,1.3932,-0.4981,0.1472,0.1657,0.0287,1.0,-1.0,-1.0,0.6185,-1.0,-0.4372,-1.0,-1.0,1.0,-1.0,-1.0,-1.0,1.0,1.0,1.0,1.0,-1.0,1.0,0.0,0.0,0.0,0.0,0.0,0.0,0.0,0.0,0.0,-0.1067,0.0,-0.1067,0.0,3
1.36,run,17.19,-3.16,8.07,11.42,9.26,0.0,-0.018,0.0,0.299,-3.69,-12.57,97.47,-33.75,-21.45,76.9,-34.54,10.9,104.85,19.51,20.74,97.47,-20.04,30.06,82.97,-0.88,-3.43,85.34,1.41,-18.25,87.22,-27.5,-26.8,72.93,-35.0,5.92,111.04,13.68,11.94,92.87,-10.59,30.0,92.78,4.5,-13.83,95.51,1.0,-1.0,-1.0,1.0,-1.0,0.0933,-1.0,-1.0,1.0,-1.0,-1.0,-1.0,1.0,1.0,1.0,1.0,-1.0,1.0,0.065,0.006,0.019,0.039,0.0,0.0,0.006,0.019,0.026,0.123,0.026,0.0,0.026,0.0,0.006,0.013,0.033,0.013,-0.0859,-0.5308,0.3313,-0.6105,-0.6412,-0.0123,-0.6013,-0.1243,0.4172,0.3636,0.0614,0.3405,-0.3712,0.1933,0.046,-0.0322,-0.3482,0.092,0.2217,-0.2883,-0.0272,0.0051,-0.262,-0.1693,-0.0388,-0.2568,0.2819,-0.2551,0.0771,-0.2594,0.0719,0.0455,-0.0032,0.2956,-0.0387,0.0535,1.4298,-0.4552,0.1376,0.1991,0.2284,1.0,-1.0,-1.0,1.0,-1.0,-0.0153,-1.0,-1.0,1.0,-1.0,-1.0,-1.0,1.0,1.0,1.0,1.0,-1.0,1.0,0.0,0.0,0.0,0.0,0.0,0.0,0.0,0.0,0.0,-0.12,0.0,-0.12,0.0,3
1.4,run,17.58,-2.83,5.24,7.36,14.74,0.0,-0.02,0.0,0.299,-2.55,-13.97,96.15,-32.7,-22.76,75.59,-34.54,9.49,106.26,18.19,20.04,96.15,-18.63,30.06,84.2,0.97,-4.83,86.84,2.91,-19.75,85.72,-26.0,-28.3,74.43,-35.0,4.42,112.54,12.18,10.44,91.37,-9.09,30.0,94.28,6.0,-15.33,97.01,1.0,-1.0,-0.8979,1.0,-1.0,0.5488,-1.0,-1.0,1.0,-1.0,-1.0,-1.0,1.0,1.0,1.0,1.0,-1.0,1.0,0.065,0.006,0.019,0.039,0.0,0.0,0.006,0.019,0.026,0.123,0.026,0.0,0.026,0.0,0.006,0.013,0.033,0.013,-0.0629,-0.5553,0.3099,-0.5967,-0.6657,-0.0368,-0.6013,-0.1488,0.4418,0.3375,0.0629,0.316,-0.3482,0.1933,0.0644,-0.0153,-0.3682,0.1104,0.2419,-0.2942,-0.0999,0.0555,-0.2758,-0.2109,-0.0271,-0.2722,0.2898,-0.2768,0.0597,-0.274,0.137,0.0319,0.0671,0.2705,-0.1022,0.1068,1.47,-0.409,0.1408,0.1994,0.1617,1.0,-1.0,-1.0,1.0,-1.0,0.0933,-1.0,-1.0,1.0,-1.0,-1.0,-1.0,1.0,1.0,1.0,1.0,-1.0,1.0,0.0,0.0,0.0,0.0,0.0,0.0,0.0,0.0,0.0,-0.1333,0.0,-0.1333,0.0,3
1.44,run,17.73,-2.43,0.06,9.52,13.64,0.0,-0.022,0.0,0.299,-1.23,-15.29,94.92,-31.29,-23.99,74.44,-34.54,8.09,107.67,16.79,18.81,94.83,-17.23,30.06,85.69,2.02,-6.24,88.15,4.41,-21.25,84.22,-24.5,-29.8,75.93,-35.0,2.92,114.04,10.68,8.94,89.87,-7.59,30.0,95.78,7.5,-16.83,98.51,1.0,-1.0,-0.7832,1.0,-1.0,1.0,-1.0,-1.0,1.0,-1.0,-1.0,-1.0,1.0,1.0,1.0,1.0,-1.0,1.0,0.065,0.006,0.039,0.058,0.006,0.0,0.0,0.026,0.026,0.13,0.0,0.006,0.006,0.0,0.013,0.058,0.033,0.019,-0.043,-0.5798,0.2869,-0.5783,-0.6888,-0.0598,-0.6013,-0.1733,0.4663,0.3145,0.0506,0.293,-0.3237,0.1933,0.0859,0.0169,-0.3927,0.1365,0.2441,-0.298,-0.1562,0.1079,-0.2794,-0.2339,-0.019,-0.2825,0.2949,-0.28,-0.0042,-0.2781,0.1879,0.0223,0.1275,0.3101,-0.1635,0.1725,1.5038,-0.3801,0.0914,0.1285,0.2573,1.0,-1.0,-0.8979,1.0,-1.0,0.5488,-1.0,-1.0,1.0,-1.0,-1.0,-1.0,1.0,1.0,1.0,1.0,-1.0,1.0,0.0,0.0,0.0,0.0,0.0,0.0,0.0,0.0,0.0,-0.1467,0.0,-0.1467,0.0,3
1.48,run,17.75,-1.99,-2.97,11.01,18.92,0.0,-0.024,0.0,0.299,0.18,-16.7,93.52,-29.79,-25.4,73.65,-34.63,6.59,108.98,15.47,17.58,93.43,-15.82,30.06,87.1,3.52,-7.65,89.47,5.91,-22.75,82.72,-23.0,-31.3,77.43,-35.0,1.42,115.54,9.18,7.44,88.37,-6.09,30.0,97.28,9.0,-18.33,100.01,1.0,-1.0,-0.3361,1.0,-1.0,1.0,-1.0,-1.0,1.0,-1.0,-1.0,-1.0,1.0,1.0,1.0,1.0,-1.0,1.0,0.065,0.006,0.039,0.058,0.006,0.0,0.0,0.026,0.026,0.13,0.0,0.006,0.006,0.0,0.013,0.058,0.033,0.019,-0.0199,-0.6029,0.2654,-0.5538,-0.7102,-0.0798,-0.6013,-0.1979,0.4909,0.2899,0.0291,0.27,-0.2991,0.1933,0.112,0.0353,-0.4172,0.1595,0.257,-0.2947,-0.1897,0.1674,-0.2759,-0.2384,-0.0133,-0.2896,0.2983,-0.2879,-0.0833,-0.2808,0.2234,0.0156,0.1868,0.286,-0.2063,0.2069,1.517,-0.3453,0.0011,0.1662,0.238,1.0,-1.0,-0.7832,1.0,-1.0,1.0,-1.0,-1.0,1.0,-1.0,-1.0,-1.0,1.0,1.0,1.0,1.0,-1.0,1.0,0.0,0.0,0.0,0.0,0.0,0.0,0.0,0.0,0.0,-0.16,0.0,-0.16,0.0,3
1.52,run,17.35,-1.45,-13.43,12.29,22.09,0.0,-0.026,0.0,0.299,1.49,-18.11,92.29,-28.3,-26.72,73.12,-34.63,5.19,110.39,13.8,16.26,92.02,-14.41,29.79,88.51,5.27,-9.05,90.88,7.41,-24.25,81.22,-21.5,-32.8,78.93,-35.0,-0.08,117.04,7.68,5.94,86.87,-4.59,28.5,98.78,10.5,-19.83,101.51,1.0,-1.0,-0.0485,1.0,-1.0,1.0,-1.0,-1.0,1.0,-1.0,-1.0,-1.0,1.0,0.6554,1.0,1.0,-1.0,1.0,0.065,0.006,0.039,0.058,0.006,0.0,0.0,0.026,0.026,0.13,0.0,0.006,0.006,0.0,0.013,0.058,0.033,0.019,0.0046,-0.6274,0.2408,-0.5277,-0.7348,-0.0936,-0.6029,-0.224,0.5139,0.2669,0.0077,0.2454,-0.2746,0.1933,0.1365,0.0614,-0.4418,0.1825,0.2721,-0.2986,-0.2251,0.2152,-0.2854,-0.2188,-0.0151,-0.3008,0.2953,-0.288,-0.1391,-0.2888,0.2486,0.0109,0.2231,0.2982,-0.2367,0.2313,1.5184,-0.3071,-0.0518,0.1922,0.3302,1.0,-1.0,-0.3361,1.0,-1.0,1.0,-1.0,-1.0,1.0,-1.0,-1.0,-1.0,1.0,1.0,1.0,1.0,-1.0,1.0,0.0,0.0,0.0,0.0,0.0,0.0,0.0,0.0,0.0,-0.1733,0.0,-0.1733,0.0,3
1.56,run,17.05,0.08,-7.32,37.69,10.6,0.0,-0.028,0.0,0.299,3.43,-19.6,89.65,-26.63,-28.04,72.95,-34.63,3.87,111.71,12.22,15.03,90.62,-13.01,29.62,89.91,6.24,-10.55,92.46,8.91,-25.75,82.72,-20.0,-34.3,80.43,-35.0,-1.58,118.54,6.18,4.44,85.37,-3.09,27.0,100.28,12.0,-21.33,103.01,1.0,-0.8118,0.4337,1.0,-1.0,1.0,-1.0,-1.0,1.0,-1.0,-1.0,-1.0,1.0,-0.1535,1.0,1.0,-1.0,1.0,0.0,0.006,0.0,0.019,0.006,0.006,0.006,0.026,0.033,0.033,0.0,0.0,0.019,0.006,0.006,0.006,0.026,0.026,0.0276,-0.6519,0.2194,-0.5016,-0.7578,-0.1028,-0.6029,-0.2485,0.5384,0.2378,-0.0153,0.2209,-0.25,0.1887,0.1611,0.092,-0.4663,0.2071,0.2767,-0.301,-0.238,0.2484,-0.286,-0.1876,-0.0106,-0.3025,0.2987,-0.3108,-0.1836,-0.2941,0.266,-0.0096,0.2481,0.3237,-0.2577,0.2539,1.484,-0.2597,-0.2345,0.2144,0.3856,1.0,-1.0,-0.0485,1.0,-1.0,1.0,-1.0,-1.0,1.0,-1.0,-1.0,-1.0,1.0,0.6554,1.0,1.0,-1.0,1.0,0.0,0.0,0.0,0.0,0.0,0.0,0.0,0.0,0.0,-0.1867,0.0,-0.1867,0.0,3
1.6,run,16.65,1.46,-10.3,37.32,-16.47,0.0,-0.03,0.0,0.299,5.1,-21.18,88.59,-25.14,-29.53,73.12,-34.63,2.2,113.29,10.28,13.71,89.21,-11.16,28.65,91.67,8.17,-12.04,93.87,10.41,-24.25,84.22,-18.5,-35.8,78.93,-35.0,-3.08,120.04,4.68,2.94,83.87,-1.59,25.5,101.78,13.5,-19.83,104.51,1.0,0.1684,1.0,1.0,-1.0,-0.3641,-1.0,-1.0,1.0,-1.0,-1.0,-1.0,1.0,-0.4725,1.0,1.0,0.3455,1.0,0.0,0.006,0.0,0.019,0.006,0.006,0.006,0.026,0.033,0.033,0.0,0.0,0.019,0.006,0.006,0.006,0.026,0.026,0.0614,-0.678,0.1733,-0.4725,-0.7808,-0.1058,-0.6029,-0.2715,0.5614,0.2102,-0.0368,0.1963,-0.2255,0.1856,0.1856,0.1089,-0.4924,0.2347,0.3203,-0.3085,-0.3392,0.2832,-0.2865,-0.1428,-0.0074,-0.2981,0.2954,-0.3211,-0.209,-0.2979,0.2783,-0.0182,0.2657,0.2899,-0.2782,0.2813,1.4578,-0.126,-0.1278,0.6578,0.185,1.0,-0.8118,0.4337,1.0,-1.0,1.0,-1.0,-1.0,1.0,-1.0,-1.0,-1.0,1.0,-0.1535,1.0,1.0,-1.0,1.0,0.0,0.0,0.0,0.0,0.0,0.0,0.0,0.0,0.0,-0.2,0.0,-0.2,0.0,3
1.64,run,17.05,2.35,5.83,25.61,-20.73,0.0,-0.032,0.0,0.299,6.33,-22.59,87.19,-23.73,-31.11,73.83,-34.63,0.88,114.79,8.7,12.83,87.71,-10.11,27.77,92.81,9.32,-13.36,95.62,8.91,-22.75,82.72,-17.0,-37.3,77.43,-35.0,-4.58,121.54,3.18,1.44,82.37,-0.09,24.0,103.28,15.0,-18.33,106.01,0.1867,0.6028,-0.275,1.0,-1.0,-0.4332,-1.0,-1.0,1.0,-1.0,-0.6803,-1.0,1.0,-0.0537,1.0,1.0,0.6863,1.0,0.0,0.006,0.0,0.019,0.006,0.006,0.006,0.026,0.033,0.033,0.0,0.0,0.019,0.006,0.006,0.006,0.026,0.026,0.0905,-0.7056,0.1549,-0.4464,-0.8069,-0.1028,-0.6029,-0.3007,0.589,0.1764,-0.0598,0.1718,-0.1933,0.1687,0.2163,0.1427,-0.5185,0.2592,0.324,-0.3105,-0.3005,0.2875,-0.2899,-0.0895,-0.0052,-0.3085,0.3013,-0.3404,-0.2251,-0.2926,0.3051,-0.0705,0.2911,0.3185,-0.284,0.281,1.4223,-0.0059,-0.1799,0.6513,-0.2875,1.0,0.1684,1.0,1.0,-1.0,-0.3641,-1.0,-1.0,1.0,-1.0,-1.0,-1.0,1.0,-0.4725,1.0,1.0,0.3455,1.0,0.0,0.0,0.0,0.0,0.0,0.0,0.0,0.0,0.0,-0.2133,0.0,-0.2133,0.0,3
1.68,run,16.87,3.67,-9.67,33.23,-14.62,0.0,-0.034,0.0,0.299,7.47,-23.82,85.87,-22.24,-32.43,74.71,-34.63,-0.53,116.1,7.29,10.99,86.31,-8.53,26.54,94.31,10.72,-14.94,96.24,10.41,-21.25,81.22,-15.5,-38.8,75.93,-35.0,-6.08,123.04,1.68,-0.06,80.87,1.41,25.5,104.78,16.5,-16.83,107.51,0.8317,0.1801,-0.4668,1.0,-1.0,-0.8577,-1.0,-1.0,1.0,-1.0,-0.8979,-1.0,1.0,1.0,1.0,1.0,0.2918,1.0,0.045,0.0,0.006,0.026,0.006,0.026,0.006,0.019,0.033,0.019,0.013,0.006,0.006,0.0,0.006,0.006,0.026,0.033,0.112,-0.7302,0.1304,-0.4218,-0.8345,-0.0905,-0.6029,-0.3237,0.6151,0.1488,-0.0752,0.1457,-0.1749,0.1534,0.2362,0.1626,-0.5415,0.2899,0.3064,-0.3083,-0.3013,0.2922,-0.3052,-0.0172,-0.0036,-0.3012,0.3075,-0.3406,-0.2144,-0.3014,0.2818,-0.1062,0.2776,0.2968,-0.2841,0.3103,1.4572,0.0717,0.1018,0.4471,-0.3618,0.1867,0.6028,-0.275,1.0,-1.0,-0.4332,-1.0,-1.0,1.0,-1.0,-0.6803,-1.0,1.0,-0.0537,1.0,1.0,0.6863,1.0,0.0,0.0,0.0,0.0,0.0,0.0,0.0,0.0,0.0,-0.2267,0.0,-0.2267,0.0,3
1.72,run,17.0,5.75,-0.03,49.81,-13.1,0.0,-0.036,0.0,0.299,8.53,-24.96,84.46,-20.83,-33.93,75.76,-34.63,-2.02,117.51,5.89,9.76,84.99,-7.21,25.4,96.06,12.48,-16.08,98.61,8.91,-19.75,82.72,-14.0,-40.3,74.43,-35.0,-7.58,124.54,0.18,-1.56,79.37,2.91,24.0,103.28,18.0,-15.33,109.01,0.149,1.0,0.7562,1.0,-1.0,-1.0,-1.0,-1.0,1.0,-1.0,-0.8072,-1.0,1.0,0.1852,-0.1234,1.0,1.0,0.7129,0.045,0.0,0.006,0.026,0.006,0.026,0.006,0.019,0.033,0.019,0.013,0.006,0.006,0.0,0.006,0.006,0.026,0.033,0.1319,-0.7517,0.1074,-0.3958,-0.8575,-0.0752,-0.6029,-0.3482,0.6381,0.1243,-0.1074,0.1212,-0.1473,0.1319,0.2623,0.1871,-0.5691,0.3007,0.2899,-0.2971,-0.298,0.3032,-0.3007,0.046,-0.0025,-0.3037,0.3024,-0.3313,-0.272,-0.3039,0.3017,-0.1556,0.293,0.3007,-0.3033,0.2579,1.4417,0.1872,-0.1688,0.5799,-0.2552,0.8317,0.1801,-0.4668,1.0,-1.0,-0.8577,-1.0,-1.0,1.0,-1.0,-0.8979,-1.0,1.0,1.0,1.0,1.0,0.2918,1.0,0.0,0.0,0.0,0.0,0.0,0.0,0.0,0.0,0.0,-0.24,0.0,-0.24,0.0,3
1.76,run,17.17,6.89,2.23,28.39,4.4,0.0,-0.038,0.0,0.299,9.23,-25.58,83.23,-19.42,-35.33,76.55,-34.63,-3.43,118.83,4.48,8.44,83.58,-5.8,24.52,97.29,13.54,-16.96,99.23,7.41,-18.25,81.22,-12.5,-41.8,72.93,-35.0,-9.08,126.04,-1.32,-3.06,77.87,4.41,25.5,104.78,19.5,-13.83,107.51,-0.3477,1.0,-1.0,1.0,-1.0,-1.0,-1.0,-1.0,1.0,-1.0,-0.5585,-1.0,1.0,0.9286,1.0,1.0,1.0,-0.6257,0.045,0.0,0.006,0.026,0.006,0.026,0.006,0.019,0.033,0.019,0.013,0.006,0.006,0.0,0.006,0.006,0.026,0.033,0.1503,-0.7716,0.0828,-0.3712,-0.8836,-0.0568,-0.6029,-0.3743,0.6627,0.0997,-0.1289,0.0982,-0.1243,0.112,0.293,0.2178,-0.589,0.3421,0.2715,-0.2822,-0.3,0.3036,-0.3076,0.1008,-0.0018,-0.3097,0.303,-0.3233,-0.2704,-0.2984,0.2969,-0.1832,0.3193,0.3247,-0.2866,0.3347,1.4527,0.3686,-0.0005,0.8694,-0.2286,0.149,1.0,0.7562,1.0,-1.0,-1.0,-1.0,-1.0,1.0,-1.0,-0.8072,-1.0,1.0,0.1852,-0.1234,1.0,1.0,0.7129,0.0,0.0,0.0,0.0,0.0,0.0,0.0,0.0,0.0,-0.2533,0.0,-0.2533,0.0,3
1.8,run,17.27,7.61,0.09,14.41,12.77,0.0,-0.04,0.0,0.299,9.76,-25.84,82.27,-17.84,-36.56,76.9,-34.63,-4.83,120.23,3.08,6.94,82.18,-4.39,23.91,98.44,15.03,-17.67,100.99,8.91,-19.75,80.43,-11.0,-43.3,71.43,-35.0,-10.58,127.54,-2.82,-4.56,76.37,5.91,27.0,106.28,21.0,-12.33,106.01,1.0,-0.1485,0.1815,1.0,-1.0,-1.0,-1.0,-1.0,1.0,-1.0,-0.5342,-1.0,1.0,0.9648,1.0,1.0,1.0,-0.7226,0.006,0.006,0.006,0.026,0.019,0.006,0.006,0.026,0.033,0.006,0.026,0.013,0.019,0.013,0.019,0.013,0.006,0.006,0.1626,-0.7823,0.0614,-0.3467,-0.9081,-0.043,-0.6029,-0.3988,0.6857,0.0752,-0.1519,0.0736,-0.0997,0.0966,0.3145,0.2362,-0.6044,0.3528,0.2361,-0.2379,-0.2906,0.3047,-0.3075,0.1224,-0.0012,-0.3089,0.2985,-0.3185,-0.2757,-0.301,0.3,-0.1858,0.3042,0.2964,-0.2582,0.2746,1.4675,0.4679,0.0389,0.4956,0.0768,-0.3477,1.0,-1.0,1.0,-1.0,-1.0,-1.0,-1.0,1.0,-1.0,-0.5585,-1.0,1.0,0.9286,1.0,1.0,1.0,-0.6257,0.0,0.0,0.0,0.0,0.0,0.0,0.0,0.0,0.0,-0.2667,0.0,-0.2667,0.0,3
1.84,run,17.05,7.89,-7.79,4.76,5.99,0.0,-0.042,0.0,0.299,9.93,-25.84,81.47,-16.52,-37.53,76.9,-34.63,-6.24,121.64,1.58,5.54,80.77,-2.99,23.64,99.93,16.44,-18.02,102.39,10.41,-21.25,78.93,-9.5,-44.8,69.93,-35.0,-12.08,129.04,-4.32,-3.06,74.87,7.41,25.5,107.78,22.5,-10.83,104.51,1.0,-1.0,0.0713,1.0,-1.0,-0.9481,-1.0,-1.0,1.0,-1.0,0.4285,-1.0,1.0,-0.0668,1.0,1.0,1.0,-1.0,0.006,0.006,0.006,0.026,0.019,0.006,0.006,0.026,0.033,0.006,0.026,0.013,0.019,0.013,0.019,0.013,0.006,0.006,0.1718,-0.7869,0.0445,-0.3191,-0.9296,-0.0368,-0.6029,-0.4234,0.7102,0.0506,-0.1779,0.0491,-0.0752,0.0859,0.3344,0.2623,-0.6167,0.3835,0.1998,-0.1838,-0.2667,0.3169,-0.2958,0.1087,-0.0009,-0.3083,0.301,-0.315,-0.2908,-0.3028,0.302,-0.1704,0.2877,0.3053,-0.2268,0.3073,1.4762,0.5315,0.0016,0.2515,0.2228,1.0,-0.1485,0.1815,1.0,-1.0,-1.0,-1.0,-1.0,1.0,-1.0,-0.5342,-1.0,1.0,0.9648,1.0,1.0,1.0,-0.7226,0.0,0.0,0.0,0.0,0.0,0.0,0.0,0.0,0.0,-0.28,0.0,-0.28,0.0,3
1.88,run,16.93,7.7,-5.8,-5.02,2.48,0.0,-0.044,0.0,0.299,9.49,-25.66,80.68,-15.03,-39.2,76.55,-34.63,-7.65,123.05,0.09,4.13,79.37,-1.49,23.64,101.07,17.84,-18.02,103.62,11.91,-22.75,77.43,-8.0,-46.3,68.43,-35.0,-13.58,130.54,-5.82,-1.56,73.37,8.91,24.0,109.28,24.0,-9.33,103.01,0.6727,-1.0,0.112,1.0,-1.0,-0.3983,-1.0,-1.0,1.0,-1.0,1.0,-1.0,1.0,-0.4181,1.0,1.0,1.0,-1.0,0.006,0.006,0.006,0.026,0.019,0.006,0.006,0.026,0.033,0.006,0.026,0.013,0.019,0.013,0.019,0.013,0.006,0.006,0.1749,-0.7869,0.0307,-0.2961,-0.9465,-0.0368,-0.6029,-0.4479,0.7348,0.0245,-0.2025,0.0245,-0.0506,0.0813,0.3605,0.2869,-0.6228,0.408,0.1514,-0.1286,-0.2384,0.308,-0.2703,0.0761,-0.0006,-0.3078,0.3027,-0.3182,-0.2955,-0.3039,0.3034,-0.1365,0.2991,0.3056,-0.1817,0.307,1.4574,0.5555,-0.1359,0.0831,0.1046,1.0,-1.0,0.0713,1.0,-1.0,-0.9481,-1.0,-1.0,1.0,-1.0,0.4285,-1.0,1.0,-0.0668,1.0,1.0,1.0,-1.0,0.0,0.0,0.0,0.0,0.0,0.0,0.0,0.0,0.0,-0.2933,0.0,-0.2933,0.0,3
1.92,run,16.99,7.71,-1.72,1.39,-3.97,0.0,-0.046,0.0,0.299,9.76,-24.96,79.8,-13.54,-40.61,76.03,-34.63,-9.14,124.45,-1.23,2.81,77.96,-0.18,23.64,102.39,19.16,-17.75,104.41,13.41,-24.25,75.93,-6.5,-47.8,69.93,-35.0,-15.08,132.04,-7.32,-0.06,71.87,10.41,22.5,110.78,25.5,-7.83,101.51,0.5151,-1.0,-0.5383,1.0,-1.0,0.2478,-1.0,-1.0,1.0,-1.0,1.0,-1.0,1.0,-0.2156,1.0,1.0,1.0,-1.0,0.026,0.039,0.006,0.026,0.026,0.019,0.006,0.026,0.039,0.013,0.019,0.019,0.019,0.058,0.078,0.026,0.019,0.013,0.1672,-0.7839,0.0169,-0.27,-0.9756,-0.043,-0.6029,-0.4725,0.7593,-0.0015,-0.227,0.0,-0.0245,0.0813,0.3804,0.3114,-0.6228,0.4295,0.077,-0.0785,-0.219,0.3139,-0.2991,0.0301,-0.0004,-0.308,0.3044,-0.3211,-0.2994,-0.3053,0.3107,-0.0955,0.2846,0.3065,-0.1272,0.2959,1.4467,0.5392,-0.1012,-0.0876,0.0433,0.6727,-1.0,0.112,1.0,-1.0,-0.3983,-1.0,-1.0,1.0,-1.0,1.0,-1.0,1.0,-0.4181,1.0,1.0,1.0,-1.0,0.0,0.0,0.0,0.0,0.0,0.0,0.0,0.0,0.0,-0.3067,0.0,-0.3067,0.0,3
1.96,run,16.85,7.46,-5.04,-4.18,0.98,0.0,-0.048,0.0,0.299,10.2,-24.43,78.75,-12.04,-41.92,74.71,-34.63,-10.55,125.77,-2.64,1.41,76.55,1.23,23.55,103.62,20.48,-17.05,105.03,14.91,-25.75,74.43,-5.0,-49.3,71.43,-35.0,-16.58,133.54,-8.82,1.44,70.37,11.91,21.0,112.28,27.0,-6.33,100.01,0.8752,-1.0,-0.1586,1.0,-1.0,0.1973,-1.0,-1.0,1.0,-1.0,1.0,-1.0,1.0,-0.3492,1.0,1.0,1.0,-1.0,0.026,0.039,0.006,0.026,0.026,0.019,0.006,0.026,0.039,0.013,0.019,0.019,0.019,0.058,0.078,0.026,0.019,0.013,0.1718,-0.7716,0.0015,-0.2439,-1.0002,-0.0522,-0.6029,-0.4985,0.7839,-0.0245,-0.25,-0.0245,-0.0015,0.0813,0.4034,0.3344,-0.6182,0.4433,0.0712,-0.0089,-0.2108,0.3176,-0.3014,-0.0134,-0.0003,-0.3134,0.3052,-0.311,-0.2959,-0.3058,0.3038,-0.0669,0.2855,0.3009,-0.0718,0.2589,1.4524,0.5396,-0.03,0.0242,-0.0692,0.5151,-1.0,-0.5383,1.0,-1.0,0.2478,-1.0,-1.0,1.0,-1.0,1.0,-1.0,1.0,-0.2156,1.0,1.0,1.0,-1.0,0.0,0.0,0.0,0.0,0.0,0.0,0.0,0.0,0.0,-0.32,0.0,-0.32,0.0,3
2.0,run,16.68,7.33,-7.53,-2.42,11.96,0.0,-0.05,0.0,0.299,10.99,-23.91,77.61,-10.72,-43.33,73.48,-34.63,-11.95,127.18,-4.13,0.35,75.15,2.64,23.38,104.94,21.88,-15.91,105.38,16.41,-27.25,72.93,-3.5,-50.8,72.93,-35.0,-18.08,135.04,-10.32,2.94,68.87,13.41,19.5,113.78,28.5,-4.83,98.51,0.7478,-1.0,-0.0611,1.0,-1.0,1.0,-1.0,-1.0,1.0,-1.0,1.0,-1.0,1.0,-0.5366,1.0,1.0,1.0,-1.0,0.026,0.039,0.006,0.026,0.026,0.019,0.006,0.026,0.039,0.013,0.019,0.019,0.019,0.058,0.078,0.026,0.019,0.013,0.1795,-0.7624,-0.0169,-0.2178,-1.0232,-0.0752,-0.6029,-0.5231,0.8069,-0.0491,-0.2746,-0.0491,0.023,0.0798,0.4249,0.3574,-0.6059,0.4541,0.0786,0.0283,-0.2166,0.3201,-0.2973,-0.0957,-0.0002,-0.3115,0.2999,-0.3098,-0.2992,-0.3061,0.3047,-0.0526,0.2804,0.2969,-0.0042,0.2215,1.4397,0.518,-0.0879,-0.0729,0.0171,0.8752,-1.0,-0.1586,1.0,-1.0,0.1973,-1.0,-1.0,1.0,-1.0,1.0,-1.0,1.0,-0.3492,1.0,1.0,1.0,-1.0,0.0,0.0,0.0,0.0,0.0,0.0,0.0,0.0,0.0,-0.3333,0.0,-0.3333,0.0,3
2.04,run,16.57,7.38,-4.86,0.95,20.0,0.0,-0.05,0.0,0.299,12.04,-23.82,76.29,-9.23,-44.74,72.51,-34.63,-13.18,128.58,-5.45,-0.35,73.74,4.04,22.24,106.44,23.38,-14.68,105.38,17.91,-28.75,74.43,-2.0,-52.3,74.43,-35.0,-19.58,136.54,-11.82,4.44,67.37,14.91,18.0,115.28,30.0,-3.33,97.01,1.0,-1.0,0.4779,1.0,-1.0,1.0,-1.0,-1.0,1.0,-1.0,1.0,-1.0,1.0,-0.8452,1.0,1.0,1.0,-1.0,0.045,0.0,0.0,0.019,0.033,0.0,0.006,0.039,0.052,0.006,0.013,0.006,0.026,0.0,0.065,0.019,0.045,0.0,0.1933,-0.7532,-0.0368,-0.1948,-1.0477,-0.0966,-0.6029,-0.5476,0.8314,-0.0752,-0.293,-0.0736,0.0476,0.0767,0.4479,0.382,-0.586,0.4602,0.1068,0.0543,-0.2264,0.3104,-0.3002,-0.1475,-0.0001,-0.3101,0.302,-0.3147,-0.2785,-0.3063,0.3053,-0.0483,0.2826,0.2999,0.0718,0.1781,1.4255,0.507,-0.1314,-0.0422,0.2087,0.7478,-1.0,-0.0611,1.0,-1.0,1.0,-1.0,-1.0,1.0,-1.0,1.0,-1.0,1.0,-0.5366,1.0,1.0,1.0,-1.0,0.0,0.0,0.0,0.0,0.0,0.0,0.0,0.0,0.0,-0.3333,0.0,-0.3333,0.0,3
2.08,run,16.55,7.65,-2.21,5.63,23.41,0.0,-0.05,0.0,0.299,13.45,-23.82,75.15,-7.91,-46.14,71.89,-34.63,-14.24,129.99,-6.86,-0.88,72.25,5.54,21.53,108.02,24.87,-13.45,105.03,19.41,-30.25,75.93,-0.5,-53.8,75.93,-35.0,-21.08,138.04,-13.32,5.94,65.87,16.41,16.5,116.78,31.5,-1.83,95.51,1.0,-1.0,1.0,1.0,-1.0,1.0,-1.0,-1.0,1.0,-1.0,1.0,-1.0,1.0,-0.5872,1.0,1.0,1.0,-1.0,0.045,0.0,0.0,0.019,0.033,0.0,0.006,0.039,0.052,0.006,0.013,0.006,0.026,0.0,0.065,0.019,0.045,0.0,0.2117,-0.7517,-0.0598,-0.1687,-1.0723,-0.1135,-0.6029,-0.5691,0.856,-0.0982,-0.3053,-0.0982,0.0721,0.0568,0.474,0.408,-0.5645,0.4602,0.1438,0.0438,-0.2448,0.3151,-0.3022,-0.1666,-0.0001,-0.2976,0.3035,-0.3066,-0.241,-0.3065,0.3058,-0.1086,0.2956,0.3077,0.1308,0.1247,1.4157,0.5112,-0.0849,0.0166,0.3491,1.0,-1.0,0.4779,1.0,-1.0,1.0,-1.0,-1.0,1.0,-1.0,1.0,-1.0,1.0,-0.8452,1.0,1.0,1.0,-1.0,0.0,0.0,0.0,0.0,0.0,0.0,0.0,0.0,0.0,-0.3333,0.0,-0.3333,0.0,3
2.12,run,16.5,7.81,-2.8,3.45,22.96,0.0,-0.05,0.0,0.299,14.85,-24.26,74.18,-6.5,-47.64,71.46,-34.63,-15.73,131.22,-8.35,-1.14,70.84,6.86,20.04,109.69,26.28,-12.22,104.33,20.91,-31.75,77.43,1.0,-55.3,77.43,-35.0,-22.58,139.54,-14.82,7.44,64.37,14.91,15.0,118.28,33.0,-0.33,94.01,1.0,-1.0,1.0,1.0,-1.0,1.0,-1.0,-1.0,1.0,-1.0,1.0,-1.0,0.2754,-0.3391,1.0,1.0,1.0,-1.0,0.045,0.0,0.0,0.019,0.033,0.0,0.006,0.039,0.052,0.006,0.013,0.006,0.026,0.0,0.065,0.019,0.045,0.0,0.2362,-0.7517,-0.0798,-0.1457,-1.0968,-0.1243,-0.6029,-0.5875,0.8805,-0.1227,-0.3145,-0.1243,0.0982,0.0445,0.5016,0.4341,-0.543,0.4541,0.1931,0.0306,-0.2465,0.3073,-0.304,-0.1571,-0.0001,-0.2777,0.3049,-0.3071,-0.2033,-0.3128,0.3123,-0.1223,0.311,0.3137,0.1725,0.0641,1.4137,0.5342,-0.0385,0.0983,0.4085,1.0,-1.0,1.0,1.0,-1.0,1.0,-1.0,-1.0,1.0,-1.0,1.0,-1.0,1.0,-0.5872,1.0,1.0,1.0,-1.0,0.0,0.0,0.0,0.0,0.0,0.0,0.0,0.0,0.0,-0.3333,0.0,-0.3333,0.0,3
2.16,run,16.61,7.53,0.47,-5.18,14.92,0.0,-0.05,0.0,0.299,16.44,-25.22,73.48,-5.1,-49.04,71.72,-34.63,-16.96,132.36,-9.76,-1.05,69.43,8.26,18.81,111.36,27.77,-10.99,103.18,22.41,-33.25,78.93,2.5,-56.8,78.93,-35.0,-24.08,141.04,-16.32,8.94,62.87,13.41,13.5,119.78,34.5,1.17,92.51,1.0,-1.0,1.0,1.0,-1.0,1.0,-1.0,-1.0,1.0,-1.0,1.0,-1.0,-1.0,0.0667,1.0,1.0,1.0,-1.0,0.019,0.013,0.0,0.019,0.026,0.006,0.006,0.182,0.111,0.013,0.013,0.006,0.013,0.0,0.013,0.019,0.078,0.013,0.2608,-0.7593,-0.0966,-0.1212,-1.1229,-0.1319,-0.6029,-0.6136,0.902,-0.1488,-0.3191,-0.1488,0.1212,0.0184,0.5308,0.4587,-0.5216,0.4418,0.2268,-0.0072,-0.2355,0.3066,-0.3101,-0.1386,-0.0001,-0.2917,0.2935,-0.3122,-0.1595,-0.3105,0.3045,-0.1829,0.3264,0.3111,0.2009,-0.0009,1.4091,0.5483,-0.0489,0.0602,0.4008,1.0,-1.0,1.0,1.0,-1.0,1.0,-1.0,-1.0,1.0,-1.0,1.0,-1.0,0.2754,-0.3391,1.0,1.0,1.0,-1.0,0.0,0.0,0.0,0.0,0.0,0.0,0.0,0.0,0.0,-0.3333,0.0,-0.3333,0.0,3
2.2,run,16.55,7.19,-3.46,-6.51,6.89,0.0,-0.05,0.0,0.299,17.93,-26.28,73.12,-3.6,-50.45,71.89,-34.72,-17.84,133.59,-11.16,-0.35,68.03,9.67,17.58,112.85,29.09,-9.58,101.87,23.91,-34.75,80.43,4.0,-55.3,80.43,-35.0,-25.58,142.54,-17.82,10.44,61.37,11.91,12.14,121.28,35.0,2.67,91.01,1.0,-1.0,1.0,1.0,-0.5483,1.0,-1.0,-1.0,1.0,-1.0,1.0,-0.7039,-1.0,0.6752,1.0,1.0,0.7668,-1.0,0.019,0.013,0.0,0.019,0.026,0.006,0.006,0.182,0.111,0.013,0.013,0.006,0.013,0.0,0.013,0.019,0.078,0.013,0.2884,-0.7762,-0.1089,-0.0966,-1.1474,-0.1273,-0.6029,-0.6351,0.9219,-0.1733,-0.3175,-0.1733,0.1457,-0.0031,0.5599,0.4847,-0.5001,0.4218,0.2623,-0.0683,-0.2109,0.3067,-0.3091,-0.0797,-0.0,-0.2847,0.2803,-0.3106,-0.1059,-0.3094,0.3052,-0.2086,0.3378,0.3156,0.2212,-0.0754,1.4186,0.5243,0.0081,-0.0904,0.2604,1.0,-1.0,1.0,1.0,-1.0,1.0,-1.0,-1.0,1.0,-1.0,1.0,-1.0,-1.0,0.0667,1.0,1.0,1.0,-1.0,0.0,0.0,0.0,0.0,0.0,0.0,0.0,0.0,0.0,-0.3333,0.0,-0.3333,0.0,3
2.24,run,16.44,6.82,-5.95,-7.55,3.05,0.0,-0.05,0.0,0.299,19.42,-27.25,73.21,-2.2,-51.86,72.86,-34.72,-18.9,134.56,-12.57,0.62,66.53,11.07,16.35,114.26,30.41,-8.26,100.55,25.41,-36.25,81.93,5.5,-53.8,81.93,-35.0,-27.08,144.04,-16.32,11.94,59.87,10.41,13.64,119.78,35.0,1.17,89.51,1.0,-1.0,1.0,1.0,0.0794,1.0,-1.0,-1.0,1.0,-0.1613,1.0,-0.4861,-1.0,0.9864,0.6427,1.0,0.4595,-1.0,0.019,0.013,0.0,0.019,0.026,0.006,0.006,0.182,0.111,0.013,0.013,0.006,0.013,0.0,0.013,0.019,0.078,0.013,0.3145,-0.7946,-0.115,-0.0706,-1.172,-0.1243,-0.6044,-0.6504,0.9434,-0.1979,-0.3053,-0.1979,0.1703,-0.0245,0.586,0.5077,-0.4755,0.3988,0.282,-0.1172,-0.1708,0.313,-0.3089,-0.0442,-0.0058,-0.2571,0.2772,-0.31,-0.0279,-0.3092,0.3062,-0.227,0.3348,0.3077,0.2474,-0.1396,1.414,0.494,-0.0603,-0.1137,0.1202,1.0,-1.0,1.0,1.0,-0.5483,1.0,-1.0,-1.0,1.0,-1.0,1.0,-0.7039,-1.0,0.6752,1.0,1.0,0.7668,-1.0,0.0,0.0,0.0,0.0,0.0,0.0,0.0,0.0,0.0,-0.3333,0.0,-0.3333,0.0,3
2.28,run,16.59,6.37,2.18,-10.21,4.83,0.0,-0.05,0.0,0.403,20.92,-29.0,73.48,-0.79,-53.0,74.09,-34.72,-19.86,135.35,-13.89,1.93,65.13,12.13,14.94,115.75,31.73,-6.86,99.58,26.91,-37.75,83.43,7.0,-52.3,83.43,-35.0,-28.58,145.54,-14.82,13.44,61.37,8.91,15.14,118.28,35.0,2.67,88.01,1.0,-1.0,1.0,1.0,0.4967,1.0,-1.0,-1.0,1.0,0.8948,1.0,0.0478,-1.0,1.0,0.2672,1.0,0.6037,-1.0,0.013,0.019,0.013,0.019,0.013,0.013,0.006,0.403,0.338,0.006,0.013,0.006,0.0,0.006,0.006,0.033,0.091,0.019,0.3405,-0.8115,-0.1135,-0.046,-1.1965,-0.1074,-0.6044,-0.6688,0.9603,-0.2224,-0.2884,-0.224,0.1948,-0.046,0.6105,0.5308,-0.4525,0.3758,0.2945,-0.1449,-0.1138,0.3105,-0.3077,0.0319,-0.0041,-0.2486,0.2569,-0.3084,0.0433,-0.3135,0.3057,-0.2389,0.3258,0.3011,0.2589,-0.1834,1.4039,0.4618,-0.1038,-0.1317,0.0532,1.0,-1.0,1.0,1.0,0.0794,1.0,-1.0,-1.0,1.0,-0.1613,1.0,-0.4861,-1.0,0.9864,0.6427,1.0,0.4595,-1.0,0.0,0.0,0.0,0.0,0.0,0.0,0.0,0.0,0.0,-0.3333,0.0,-0.3333,0.0,3
2.32,run,16.88,5.65,3.4,-17.6,4.96,0.0,-0.05,0.0,0.403,22.59,-30.59,74.53,0.88,-54.05,75.67,-34.72,-21.97,136.14,-15.12,3.52,63.54,12.92,13.97,117.33,32.96,-5.1,97.65,28.41,-39.25,84.93,8.5,-50.8,84.93,-35.0,-30.08,147.04,-13.32,14.94,62.87,7.41,16.64,116.78,35.0,1.17,86.51,1.0,-1.0,1.0,1.0,0.2802,0.664,-1.0,-1.0,1.0,1.0,1.0,0.8282,-1.0,1.0,-0.331,1.0,0.4581,-1.0,0.013,0.019,0.013,0.019,0.013,0.013,0.006,0.403,0.338,0.006,0.013,0.006,0.0,0.006,0.006,0.033,0.091,0.019,0.3666,-0.8422,-0.1089,-0.0215,-1.2164,-0.0859,-0.6044,-0.6857,0.9741,-0.2454,-0.2654,-0.2485,0.2132,-0.0706,0.6366,0.5538,-0.428,0.359,0.304,-0.2166,-0.0624,0.3095,-0.2902,0.1029,-0.0028,-0.2373,0.2316,-0.3022,0.1167,-0.3116,0.2831,-0.2593,0.3259,0.2971,0.2733,-0.1917,1.4173,0.4226,0.038,-0.1782,0.0844,1.0,-1.0,1.0,1.0,0.4967,1.0,-1.0,-1.0,1.0,0.8948,1.0,0.0478,-1.0,1.0,0.2672,1.0,0.6037,-1.0,0.0,0.0,0.0,0.0,0.0,0.0,0.0,0.0,0.0,-0.3333,0.0,-0.3333,0.0,3
2.36,run,16.28,5.65,-18.91,2.7,5.81,0.0,-0.05,0.0,0.403,24.17,-32.08,75.67,2.29,-54.58,77.17,-34.8,-24.96,136.58,-15.82,5.01,62.49,13.27,13.18,118.3,33.66,-3.87,96.24,29.91,-40.75,86.43,7.0,-49.3,83.43,-35.0,-31.58,148.54,-11.82,16.44,64.37,5.91,18.14,115.28,35.0,-0.33,85.01,1.0,-1.0,1.0,-0.2066,0.3076,0.0897,-1.0,-1.0,1.0,0.9175,1.0,1.0,-1.0,1.0,-1.0,1.0,-0.2822,-1.0,0.013,0.019,0.013,0.019,0.013,0.013,0.006,0.403,0.338,0.006,0.013,0.006,0.0,0.006,0.006,0.033,0.091,0.019,0.3958,-0.8698,-0.0905,0.0077,-1.2349,-0.0583,-0.6044,-0.7225,0.9879,-0.2669,-0.2378,-0.2761,0.227,-0.0874,0.6642,0.5752,-0.3973,0.3252,0.3027,-0.2368,0.0131,0.3066,-0.2599,0.1572,-0.002,-0.2797,0.2047,-0.2778,0.1669,-0.3033,0.2408,-0.2336,0.3133,0.2742,0.286,-0.2383,1.4429,0.3603,0.0593,-0.3072,0.0865,1.0,-1.0,1.0,1.0,0.2802,0.664,-1.0,-1.0,1.0,1.0,1.0,0.8282,-1.0,1.0,-0.331,1.0,0.4581,-1.0,0.0,0.0,0.0,0.0,0.0,0.0,0.0,0.0,0.0,-0.3333,0.0,-0.3333,0.0,3
2.4,run,15.95,5.07,-13.24,-10.23,20.07,0.0,-0.05,0.0,1.131,25.58,-33.4,77.17,3.69,-54.76,78.66,-34.8,-26.54,137.11,-16.17,6.42,61.88,13.36,12.92,118.92,34.1,-2.9,94.75,31.41,-42.25,87.93,5.5,-47.8,81.93,-35.0,-33.08,150.0,-10.32,17.94,65.87,4.41,16.64,113.78,35.0,1.17,83.51,1.0,-1.0,1.0,-1.0,1.0,-1.0,-1.0,-1.0,1.0,0.7416,1.0,1.0,-1.0,-0.3419,-1.0,1.0,1.0,-1.0,0.013,0.019,0.0,0.013,0.0,0.006,0.006,0.013,1.131,0.0,0.006,0.006,0.013,0.0,0.0,0.033,0.136,0.006,0.4234,-0.8958,-0.0706,0.0322,-1.2441,-0.0322,-0.6059,-0.7747,0.9956,-0.2792,-0.2117,-0.2945,0.2332,-0.1012,0.6811,0.5875,-0.3758,0.3007,0.3145,-0.2627,0.0833,0.3058,-0.2162,0.207,-0.0071,-0.3896,0.1718,-0.2401,0.2137,-0.2807,0.1913,-0.2148,0.282,0.2376,0.28,-0.258,1.3897,0.3601,-0.33,0.0471,0.1014,1.0,-1.0,1.0,-0.2066,0.3076,0.0897,-1.0,-1.0,1.0,0.9175,1.0,1.0,-1.0,1.0,-1.0,1.0,-0.2822,-1.0,0.0,0.0,0.0,0.0,0.0,0.0,0.0,0.0,0.0,-0.3333,0.0,-0.3333,0.0,3
2.44,run,15.19,4.55,-17.59,-10.08,23.82,0.0,-0.05,0.0,1.131,27.33,-35.07,78.93,5.1,-54.76,80.16,-34.8,-28.12,137.37,-16.26,8.17,61.44,12.48,13.1,119.18,34.45,-1.76,92.72,32.91,-43.75,89.43,4.0,-46.3,80.43,-35.0,-34.58,148.5,-11.82,19.44,67.37,2.91,15.14,112.28,35.0,-0.33,82.01,1.0,-1.0,1.0,-1.0,1.0,-1.0,-1.0,-1.0,0.7436,-1.0,1.0,1.0,-1.0,-0.1647,-1.0,1.0,-0.0163,-1.0,0.013,0.019,0.0,0.013,0.0,0.006,0.006,0.013,1.131,0.0,0.006,0.006,0.013,0.0,0.0,0.033,0.136,0.006,0.4479,-0.9189,-0.0445,0.0568,-1.2471,-0.0061,-0.6059,-0.8023,1.0048,-0.2853,-0.1871,-0.3053,0.2347,-0.1058,0.6918,0.5952,-0.359,0.2746,0.3123,-0.2702,0.1562,0.3062,-0.1628,0.2427,-0.005,-0.3764,0.1548,-0.1911,0.2417,-0.2368,0.1397,-0.1676,0.2377,0.1951,0.2593,-0.2785,1.361,0.3096,-0.231,-0.1786,0.3503,1.0,-1.0,1.0,-1.0,1.0,-1.0,-1.0,-1.0,1.0,0.7416,1.0,1.0,-1.0,-0.3419,-1.0,1.0,1.0,-1.0,0.0,0.0,0.0,0.0,0.0,0.0,0.0,0.0,0.0,-0.3333,0.0,-0.3333,0.0,3
2.48,run,14.71,3.69,-12.94,-18.0,16.32,0.0,-0.05,0.0,1.131,28.65,-36.56,79.8,5.8,-54.23,81.12,-34.8,-29.36,137.37,-15.64,8.79,61.35,11.6,13.45,119.27,34.63,-0.79,91.41,34.41,-45.25,90.93,2.5,-44.8,78.93,-35.0,-36.08,147.0,-13.32,20.94,68.87,1.41,13.64,110.78,35.0,-1.83,80.51,1.0,-1.0,1.0,-1.0,1.0,-0.7603,-1.0,-1.0,-0.0709,-1.0,1.0,1.0,-1.0,-0.6999,-1.0,1.0,0.0947,-1.0,0.013,0.019,0.0,0.013,0.0,0.006,0.006,0.013,1.131,0.0,0.006,0.006,0.013,0.0,0.0,0.033,0.136,0.006,0.4786,-0.948,-0.0138,0.0813,-1.2471,0.0199,-0.6059,-0.8299,1.0094,-0.2869,-0.1565,-0.3129,0.2194,-0.1028,0.6964,0.6013,-0.339,0.2393,0.313,-0.2788,0.2037,0.2898,-0.114,0.2501,-0.0035,-0.3484,0.1225,-0.1385,0.2636,-0.1894,0.0506,-0.1079,0.1806,0.1554,0.2429,-0.3035,1.2947,0.2636,-0.307,-0.1759,0.4157,1.0,-1.0,1.0,-1.0,1.0,-1.0,-1.0,-1.0,0.7436,-1.0,1.0,1.0,-1.0,-0.1647,-1.0,1.0,-0.0163,-1.0,0.0,0.0,0.0,0.0,0.0,0.0,0.0,0.0,0.0,-0.3333,0.0,-0.3333,0.0,3
2.52,run,14.51,3.09,-5.63,-13.15,0.0,0.0,-0.05,0.0,2.866,30.15,-37.88,81.47,6.42,-53.17,81.74,-34.8,-30.76,137.37,-14.68,10.72,61.96,10.55,14.24,118.56,34.72,-0.26,90.0,35.0,-46.75,92.43,1.0,-43.3,77.43,-35.0,-37.58,145.5,-14.82,22.44,70.37,-0.09,12.14,109.28,35.0,-3.33,79.01,1.0,-1.0,1.0,-1.0,1.0,-1.0,-1.0,-1.0,-1.0,-1.0,1.0,1.0,-1.0,-0.9035,-1.0,1.0,-0.9952,-1.0,0.013,0.026,0.006,0.0,0.006,0.0,0.0,0.045,2.866,0.006,0.006,0.006,0.013,0.0,0.033,0.013,0.019,0.006,0.5016,-0.9741,0.0015,0.0936,-1.2379,0.0368,-0.6059,-0.8514,1.0094,-0.2761,-0.1457,-0.3145,0.204,-0.0966,0.698,0.6044,-0.3221,0.2163,0.3043,-0.2918,0.1994,0.2483,-0.0457,0.2376,-0.0024,-0.3234,0.0858,-0.0572,0.2243,-0.1382,-0.0214,-0.0528,0.1321,0.1202,0.2325,-0.2977,1.2535,0.1885,-0.2258,-0.3141,0.2849,1.0,-1.0,1.0,-1.0,1.0,-0.7603,-1.0,-1.0,-0.0709,-1.0,1.0,1.0,-1.0,-0.6999,-1.0,1.0,0.0947,-1.0,0.0,0.0,0.0,0.0,0.0,0.0,0.0,0.0,0.0,-0.3333,0.0,-0.3333,0.0,3
2.66,tail,14.11,3.28,-4.34,1.55,1.04,,0.0,0.0,2.866,33.49,-39.46,83.76,6.5,-51.06,82.18,-34.8,-31.38,129.73,-13.8,12.92,63.11,7.38,14.41,118.74,33.93,-0.44,88.33,,,,,,,,,,,,,,,,,,,,,,,,,,,,,,,,,,,,,0.0,0.0,0.0,0.0,0.0,0.0,0.0,0.0,0.0,0.0,0.0,0.0,0.0,0.0,0.0,0.0,0.0,0.0,,,,,,,,,,,,,,,,,,,,,,,,,,,,,,,,,,,,,,,,,,,,,,,,,,,,,,,,,,,,,,,,,,,,,,,,,
2.76,tail,15.06,4.26,7.37,8.49,-6.1,,0.0,0.0,2.866,33.84,-39.46,83.94,6.5,-51.06,82.18,-34.8,-29.0,127.35,-13.71,13.36,63.11,7.29,14.24,119.44,30.94,-1.14,87.71,,,,,,,,,,,,,,,,,,,,,,,,,,,,,,,,,,,,,0.0,0.0,0.0,0.0,0.0,0.0,0.0,0.0,0.0,0.0,0.0,0.0,0.0,0.0,0.0,0.0,0.0,0.0,,,,,,,,,,,,,,,,,,,,,,,,,,,,,,,,,,,,,,,,,,,,,,,,,,,,,,,,,,,,,,,,,,,,,,,,,
2.86,tail,15.07,5.08,-0.99,6.99,-6.01,,0.0,0.0,2.866,33.84,-39.55,83.76,6.5,-51.06,82.18,-34.8,-28.21,127.35,-13.71,13.62,63.11,7.29,14.24,119.44,27.77,-1.93,87.63,,,,,,,,,,,,,,,,,,,,,,,,,,,,,,,,,,,,,0.0,0.0,0.0,0.0,0.0,0.0,0.0,0.0,0.0,0.0,0.0,0.0,0.0,0.0,0.0,0.0,0.0,0.0,,,,,,,,,,,,,,,,,,,,,,,,,,,,,,,,,,,,,,,,,,,,,,,,,,,,,,,,,,,,,,,,,,,,,,,,,
2.96,tail,15.27,5.31,1.05,2.53,-3.04,,0.0,0.0,2.866,33.75,-39.64,83.76,6.5,-51.06,82.18,-34.8,-28.21,127.35,-13.71,13.62,63.11,7.29,14.24,119.44,26.1,-2.29,87.63,,,,,,,,,,,,,,,,,,,,,,,,,,,,,,,,,,,,,0.0,0.0,0.0,0.0,0.0,0.0,0.0,0.0,0.0,0.0,0.0,0.0,0.0,0.0,0.0,0.0,0.0,0.0,,,,,,,,,,,,,,,,,,,,,,,,,,,,,,,,,,,,,,,,,,,,,,,,,,,,,,,,,,,,,,,,,,,,,,,,,
3.06,tail,15.29,5.58,-0.5,2.64,0.87,,0.0,0.0,2.866,33.75,-39.64,83.76,6.5,-51.06,82.18,-34.8,-28.21,127.35,-13.71,13.62,63.11,7.29,14.24,119.44,26.1,-2.29,87.63,,,,,,,,,,,,,,,,,,,,,,,,,,,,,,,,,,,,,0.0,0.0,0.0,0.0,0.0,0.0,0.0,0.0,0.0,0.0,0.0,0.0,0.0,0.0,0.0,0.0,0.0,0.0,,,,,,,,,,,,,,,,,,,,,,,,,,,,,,,,,,,,,,,,,,,,,,,,,,,,,,,,,,,,,,,,,,,,,,,,,
3.16,tail,15.43,5.61,0.49,0.62,-0.03,,0.0,0.0,2.866,33.75,-39.64,83.76,6.5,-51.06,82.18,-34.8,-28.21,127.35,-13.71,13.62,63.11,7.29,14.24,119.44,26.02,-2.29,87.63,,,,,,,,,,,,,,,,,,,,,,,,,,,,,,,,,,,,,0.0,0.0,0.0,0.0,0.0,0.0,0.0,0.0,0.0,0.0,0.0,0.0,0.0,0.0,0.0,0.0,0.0,0.0,,,,,,,,,,,,,,,,,,,,,,,,,,,,,,,,,,,,,,,,,,,,,,,,,,,,,,,,,,,,,,,,,,,,,,,,,
3.26,tail,15.52,5.58,0.05,0.07,-0.32,,0.0,0.0,2.866,33.75,-39.64,83.76,6.5,-51.06,82.18,-34.8,-28.21,127.35,-13.71,13.62,63.11,7.29,14.24,119.44,26.02,-2.29,87.63,,,,,,,,,,,,,,,,,,,,,,,,,,,,,,,,,,,,,0.0,0.0,0.0,0.0,0.0,0.0,0.0,0.0,0.0,0.0,0.0,0.0,0.0,0.0,0.0,0.0,0.0,0.0,,,,,,,,,,,,,,,,,,,,,,,,,,,,,,,,,,,,,,,,,,,,,,,,,,,,,,,,,,,,,,,,,,,,,,,,,
3.36,tail,15.6,5.54,-0.03,-0.06,-0.42,,0.0,0.0,2.866,33.75,-39.64,83.76,6.5,-51.06,82.18,-34.8,-28.21,127.35,-13.71,13.62,63.11,7.29,14.24,119.44,26.02,-2.29,87.63,,,,,,,,,,,,,,,,,,,,,,,,,,,,,,,,,,,,,0.0,0.0,0.0,0.0,0.0,0.0,0.0,0.0,0.0,0.0,0.0,0.0,0.0,0.0,0.0,0.0,0.0,0.0,,,,,,,,,,,,,,,,,,,,,,,,,,,,,,,,,,,,,,,,,,,,,,,,,,,,,,,,,,,,,,,,,,,,,,,,,
3.46,tail,15.67,5.5,0.02,-0.07,-0.42,,0.0,0.0,2.866,33.75,-39.64,83.76,6.5,-51.06,82.18,-34.8,-28.21,127.35,-13.71,13.62,63.11,7.29,14.24,119.44,26.02,-2.29,87.63,,,,,,,,,,,,,,,,,,,,,,,,,,,,,,,,,,,,,0.0,0.0,0.0,0.0,0.0,0.0,0.0,0.0,0.0,0.006,0.0,0.0,0.0,0.0,0.0,0.0,0.0,0.0,,,,,,,,,,,,,,,,,,,,,,,,,,,,,,,,,,,,,,,,,,,,,,,,,,,,,,,,,,,,,,,,,,,,,,,,,
3.56,tail,15.74,5.46,0.07,-0.07,-0.33,,0.0,0.0,2.866,33.75,-39.64,83.76,6.5,-51.06,82.18,-34.8,-28.21,127.35,-13.71,13.62,63.11,7.29,14.24,119.44,26.02,-2.29,87.63,,,,,,,,,,,,,,,,,,,,,,,,,,,,,,,,,,,,,0.0,0.0,0.0,0.0,0.0,0.0,0.0,0.0,0.0,0.0,0.0,0.006,0.0,0.0,0.0,0.0,0.0,0.0,,,,,,,,,,,,,,,,,,,,,,,,,,,,,,,,,,,,,,,,,,,,,,,,,,,,,,,,,,,,,,,,,,,,,,,,,
3.66,tail,15.82,5.42,0.08,-0.06,-0.35,,0.0,0.0,2.866,33.75,-39.64,83.76,6.5,-51.06,82.18,-34.8,-28.21,127.35,-13.71,13.62,63.11,7.29,14.24,119.44,26.02,-2.29,87.63,,,,,,,,,,,,,,,,,,,,,,,,,,,,,,,,,,,,,0.0,0.0,0.0,0.0,0.0,0.0,0.0,0.0,0.0,0.0,0.0,0.0,0.0,0.0,0.0,0.0,0.0,0.0,,,,,,,,,,,,,,,,,,,,,,,,,,,,,,,,,,,,,,,,,,,,,,,,,,,,,,,,,,,,,,,,,,,,,,,,,
3.76,tail,15.9,5.39,0.09,-0.03,-0.33,,0.0,0.0,2.866,33.75,-39.64,83.76,6.5,-51.06,82.18,-34.8,-28.21,127.35,-13.71,13.62,63.11,7.29,14.24,119.44,26.02,-2.29,87.63,,,,,,,,,,,,,,,,,,,,,,,,,,,,,,,,,,,,,0.0,0.0,0.0,0.0,0.0,0.0,0.0,0.0,0.0,0.0,0.0,0.006,0.0,0.0,0.0,0.0,0.0,0.0,,,,,,,,,,,,,,,,,,,,,,,,,,,,,,,,,,,,,,,,,,,,,,,,,,,,,,,,,,,,,,,,,,,,,,,,,
3.86,tail,15.98,5.37,0.07,0.04,-0.25,,0.0,0.0,2.866,33.75,-39.64,83.76,6.5,-51.06,82.18,-34.8,-28.21,127.35,-13.71,13.62,63.11,7.29,14.24,119.44,26.02,-2.29,87.63,,,,,,,,,,,,,,,,,,,,,,,,,,,,,,,,,,,,,0.0,0.0,0.0,0.0,0.0,0.0,0.0,0.0,0.0,0.0,0.0,0.0,0.0,0.0,0.0,0.0,0.0,0.0,,,,,,,,,,,,,,,,,,,,,,,,,,,,,,,,,,,,,,,,,,,,,,,,,,,,,,,,,,,,,,,,,,,,,,,,,
3.96,tail,16.05,5.34,0.06,0.01,-0.23,,0.0,0.0,2.866,33.75,-39.64,83.76,6.5,-51.06,82.18,-34.8,-28.21,127.35,-13.71,13.62,63.11,7.29,14.24,119.44,26.02,-2.29,87.63,,,,,,,,,,,,,,,,,,,,,,,,,,,,,,,,,,,,,0.0,0.0,0.0,0.0,0.0,0.0,0.0,0.0,0.0,0.0,0.0,0.0,0.0,0.0,0.0,0.0,0.0,0.0,,,,,,,,,,,,,,,,,,,,,,,,,,,,,,,,,,,,,,,,,,,,,,,,,,,,,,,,,,,,,,,,,,,,,,,,,
4.06,tail,16.12,5.33,0.04,0.07,-0.15,,0.0,0.0,2.866,33.75,-39.64,83.76,6.5,-51.06,82.18,-34.8,-28.21,127.35,-13.71,13.62,63.11,7.29,14.24,119.44,26.02,-2.29,87.63,,,,,,,,,,,,,,,,,,,,,,,,,,,,,,,,,,,,,0.0,0.0,0.0,0.0,0.0,0.0,0.0,0.0,0.0,0.0,0.0,0.0,0.0,0.0,0.0,0.0,0.0,0.0,,,,,,,,,,,,,,,,,,,,,,,,,,,,,,,,,,,,,,,,,,,,,,,,,,,,,,,,,,,,,,,,,,,,,,,,,
4.16,tail,16.19,5.26,0.05,-0.39,-0.33,,0.0,0.0,2.866,33.75,-39.64,83.76,6.5,-51.06,82.18,-34.8,-28.21,127.35,-13.71,13.62,63.11,7.29,14.24,119.44,26.02,-2.29,87.63,,,,,,,,,,,,,,,,,,,,,,,,,,,,,,,,,,,,,0.0,0.0,0.0,0.0,0.0,0.0,0.0,0.0,0.0,0.0,0.0,0.0,0.0,0.0,0.0,0.0,0.0,0.0,,,,,,,,,,,,,,,,,,,,,,,,,,,,,,,,,,,,,,,,,,,,,,,,,,,,,,,,,,,,,,,,,,,,,,,,,
4.26,tail,16.25,5.24,0.02,0.02,-0.36,,0.0,0.0,2.866,33.75,-39.64,83.76,6.5,-51.06,82.18,-34.8,-28.21,127.35,-13.71,13.62,63.11,7.29,14.24,119.44,26.02,-2.29,87.63,,,,,,,,,,,,,,,,,,,,,,,,,,,,,,,,,,,,,0.0,0.0,0.0,0.0,0.0,0.0,0.0,0.0,0.0,0.0,0.0,0.0,0.0,0.0,0.0,0.0,0.0,0.0,,,,,,,,,,,,,,,,,,,,,,,,,,,,,,,,,,,,,,,,,,,,,,,,,,,,,,,,,,,,,,,,,,,,,,,,,
4.36,tail,16.32,5.2,0.12,-0.09,-0.26,,0.0,0.0,2.866,33.75,-39.64,83.76,6.5,-51.06,82.18,-34.8,-28.21,127.35,-13.71,13.62,63.11,7.29,14.24,119.44,26.02,-2.29,87.63,,,,,,,,,,,,,,,,,,,,,,,,,,,,,,,,,,,,,0.0,0.0,0.0,0.0,0.0,0.0,0.0,0.0,0.0,0.0,0.0,0.0,0.0,0.0,0.0,0.0,0.0,0.0,,,,,,,,,,,,,,,,,,,,,,,,,,,,,,,,,,,,,,,,,,,,,,,,,,,,,,,,,,,,,,,,,,,,,,,,,
4.46,tail,16.39,5.17,0.08,-0.03,-0.25,,0.0,0.0,2.866,33.75,-39.64,83.76,6.5,-51.06,82.18,-34.8,-28.21,127.35,-13.71,13.62,63.11,7.29,14.24,119.44,26.02,-2.29,87.63,,,,,,,,,,,,,,,,,,,,,,,,,,,,,,,,,,,,,0.0,0.0,0.0,0.0,0.0,0.0,0.0,0.0,0.0,0.0,0.0,0.0,0.0,0.0,0.0,0.0,0.0,0.0,,,,,,,,,,,,,,,,,,,,,,,,,,,,,,,,,,,,,,,,,,,,,,,,,,,,,,,,,,,,,,,,,,,,,,,,,
4.56,tail,16.46,5.15,0.07,-0.04,-0.2,,0.0,0.0,2.866,33.75,-39.64,83.76,6.5,-51.06,82.18,-34.8,-28.21,127.35,-13.71,13.62,63.11,7.29,14.24,119.44,26.02,-2.29,87.63,,,,,,,,,,,,,,,,,,,,,,,,,,,,,,,,,,,,,0.0,0.0,0.0,0.0,0.0,0.0,0.0,0.0,0.0,0.0,0.0,0.0,0.0,0.0,0.0,0.0,0.0,0.0,,,,,,,,,,,,,,,,,,,,,,,,,,,,,,,,,,,,,,,,,,,,,,,,,,,,,,,,,,,,,,,,,,,,,,,,,
4.66,tail,16.53,5.12,0.09,-0.01,-0.21,,0.0,0.0,2.866,33.75,-39.64,83.76,6.5,-51.06,82.18,-34.8,-28.21,127.35,-13.71,13.62,63.11,7.29,14.24,119.44,26.02,-2.29,87.63,,,,,,,,,,,,,,,,,,,,,,,,,,,,,,,,,,,,,0.0,0.0,0.0,0.0,0.0,0.0,0.0,0.0,0.0,0.0,0.0,0.0,0.0,0.0,0.0,0.0,0.0,0.0,,,,,,,,,,,,,,,,,,,,,,,,,,,,,,,,,,,,,,,,,,,,,,,,,,,,,,,,,,,,,,,,,,,,,,,,,
4.76,tail,16.59,5.09,0.05,-0.03,-0.22,,0.0,0.0,2.866,33.75,-39.64,83.76,6.5,-51.06,82.18,-34.8,-28.21,127.35,-13.71,13.62,63.11,7.29,14.24,119.44,26.02,-2.29,87.63,,,,,,,,,,,,,,,,,,,,,,,,,,,,,,,,,,,,,0.0,0.0,0.0,0.0,0.0,0.0,0.0,0.0,0.0,0.0,0.0,0.0,0.0,0.0,0.0,0.0,0.0,0.0,,,,,,,,,,,,,,,,,,,,,,,,,,,,,,,,,,,,,,,,,,,,,,,,,,,,,,,,,,,,,,,,,,,,,,,,,
4.86,tail,16.65,5.07,0.07,-0.04,-0.2,,0.0,0.0,2.866,33.75,-39.64,83.76,6.5,-51.06,82.18,-34.8,-28.21,127.35,-13.71,13.62,63.11,7.29,14.24,119.44,26.02,-2.29,87.63,,,,,,,,,,,,,,,,,,,,,,,,,,,,,,,,,,,,,0.0,0.0,0.0,0.0,0.0,0.0,0.0,0.0,0.0,0.0,0.0,0.0,0.0,0.0,0.0,0.0,0.0,0.0,,,,,,,,,,,,,,,,,,,,,,,,,,,,,,,,,,,,,,,,,,,,,,,,,,,,,,,,,,,,,,,,,,,,,,,,,
4.96,tail,16.71,5.05,0.06,0.02,-0.15,,0.0,0.0,2.866,33.75,-39.64,83.76,6.5,-51.06,82.18,-34.8,-28.21,127.35,-13.71,13.62,63.11,7.29,14.24,119.44,26.02,-2.29,87.63,,,,,,,,,,,,,,,,,,,,,,,,,,,,,,,,,,,,,0.0,0.0,0.0,0.0,0.0,0.0,0.0,0.0,0.0,0.0,0.0,0.0,0.0,0.0,0.0,0.0,0.0,0.0,,,,,,,,,,,,,,,,,,,,,,,,,,,,,,,,,,,,,,,,,,,,,,,,,,,,,,,,,,,,,,,,,,,,,,,,,
5.06,tail,16.76,5.03,0.07,-0.0,-0.13,,0.0,0.0,2.866,33.75,-39.64,83.76,6.5,-51.06,82.18,-34.8,-28.21,127.35,-13.71,13.62,63.11,7.29,14.24,119.44,26.02,-2.29,87.63,,,,,,,,,,,,,,,,,,,,,,,,,,,,,,,,,,,,,0.0,0.0,0.0,0.0,0.0,0.0,0.0,0.0,0.0,0.0,0.0,0.0,0.0,0.0,0.0,0.0,0.0,0.0,,,,,,,,,,,,,,,,,,,,,,,,,,,,,,,,,,,,,,,,,,,,,,,,,,,,,,,,,,,,,,,,,,,,,,,,,
5.16,tail,16.82,5.0,0.03,-0.01,-0.17,,0.0,0.0,2.866,33.75,-39.64,83.76,6.5,-51.06,82.18,-34.8,-28.21,127.35,-13.71,13.62,63.11,7.29,14.24,119.44,26.02,-2.29,87.63,,,,,,,,,,,,,,,,,,,,,,,,,,,,,,,,,,,,,0.0,0.0,0.0,0.0,0.0,0.0,0.0,0.0,0.0,0.0,0.0,0.0,0.0,0.0,0.0,0.0,0.0,0.0,,,,,,,,,,,,,,,,,,,,,,,,,,,,,,,,,,,,,,,,,,,,,,,,,,,,,,,,,,,,,,,,,,,,,,,,,
5.26,tail,16.87,4.98,0.02,-0.0,-0.17,,0.0,0.0,2.866,33.75,-39.64,83.76,6.5,-51.06,82.18,-34.8,-28.21,127.35,-13.71,13.62,63.11,7.29,14.24,119.44,26.02,-2.29,87.63,,,,,,,,,,,,,,,,,,,,,,,,,,,,,,,,,,,,,0.0,0.0,0.0,0.0,0.0,0.0,0.0,0.0,0.0,0.0,0.0,0.0,0.0,0.0,0.0,0.0,0.0,0.0,,,,,,,,,,,,,,,,,,,,,,,,,,,,,,,,,,,,,,,,,,,,,,,,,,,,,,,,,,,,,,,,,,,,,,,,,
5.36,tail,16.93,4.97,0.08,0.01,-0.14,,0.0,0.0,2.866,33.75,-39.64,83.76,6.5,-51.06,82.18,-34.8,-28.21,127.35,-13.71,13.62,63.11,7.29,14.24,119.44,26.02,-2.29,87.63,,,,,,,,,,,,,,,,,,,,,,,,,,,,,,,,,,,,,0.0,0.0,0.0,0.0,0.0,0.0,0.0,0.0,0.0,0.0,0.0,0.0,0.0,0.0,0.0,0.0,0.0,0.0,,,,,,,,,,,,,,,,,,,,,,,,,,,,,,,,,,,,,,,,,,,,,,,,,,,,,,,,,,,,,,,,,,,,,,,,,
5.46,tail,16.98,4.95,0.08,-0.01,-0.18,,0.0,0.0,2.866,33.75,-39.64,83.76,6.5,-51.06,82.18,-34.8,-28.21,127.35,-13.71,13.62,63.11,7.29,14.24,119.44,26.02,-2.29,87.63,,,,,,,,,,,,,,,,,,,,,,,,,,,,,,,,,,,,,0.0,0.0,0.0,0.0,0.0,0.0,0.0,0.0,0.0,0.0,0.0,0.0,0.0,0.0,0.0,0.0,0.0,0.0,,,,,,,,,,,,,,,,,,,,,,,,,,,,,,,,,,,,,,,,,,,,,,,,,,,,,,,,,,,,,,,,,,,,,,,,,
5.56,tail,17.03,4.93,0.04,0.02,-0.16,,0.0,0.0,2.866,33.75,-39.64,83.76,6.5,-51.06,82.18,-34.8,-28.21,127.35,-13.71,13.62,63.11,7.29,14.24,119.44,26.02,-2.29,87.63,,,,,,,,,,,,,,,,,,,,,,,,,,,,,,,,,,,,,0.0,0.0,0.0,0.0,0.0,0.0,0.0,0.0,0.0,0.0,0.0,0.006,0.0,0.0,0.0,0.0,0.0,0.0,,,,,,,,,,,,,,,,,,,,,,,,,,,,,,,,,,,,,,,,,,,,,,,,,,,,,,,,,,,,,,,,,,,,,,,,,
