t_s,phase,roll_deg,pitch_deg,gyro_x_dps,gyro_y_dps,gyro_z_dps,height_ref_mm,vx_ref_mps,vy_ref_mps,max_cur_a,q0_deg,q1_deg,q2_deg,q3_deg,q4_deg,q5_deg,q6_deg,q7_deg,q8_deg,q9_deg,q10_deg,q11_deg,q12_deg,q13_deg,q14_deg,q15_deg,q16_deg,q17_deg,cmd0_deg,cmd1_deg,cmd2_deg,cmd3_deg,cmd4_deg,cmd5_deg,cmd6_deg,cmd7_deg,cmd8_deg,cmd9_deg,cmd10_deg,cmd11_deg,cmd12_deg,cmd13_deg,cmd14_deg,cmd15_deg,cmd16_deg,cmd17_deg,act0,act1,act2,act3,act4,act5,act6,act7,act8,act9,act10,act11,act12,act13,act14,act15,act16,act17,cur0_a,cur1_a,cur2_a,cur3_a,cur4_a,cur5_a,cur6_a,cur7_a,cur8_a,cur9_a,cur10_a,cur11_a,cur12_a,cur13_a,cur14_a,cur15_a,cur16_a,cur17_a,obs0,obs1,obs2,obs3,obs4,obs5,obs6,obs7,obs8,obs9,obs10,obs11,obs12,obs13,obs14,obs15,obs16,obs17,obs18,obs19,obs20,obs21,obs22,obs23,obs24,obs25,obs26,obs27,obs28,obs29,obs30,obs31,obs32,obs33,obs34,obs35,obs36,obs37,obs38,obs39,obs40,obs41,obs42,obs43,obs44,obs45,obs46,obs47,obs48,obs49,obs50,obs51,obs52,obs53,obs54,obs55,obs56,obs57,obs58,obs59,obs60,obs61,obs62,obs63,obs64,obs65,obs66,obs67,obs68,obs69,obs70,obs71,rot60_k
0.0,run,1.32,0.79,0.25,0.24,0.5,0.0,0.0,0.0,0.026,-0.35,19.95,69.43,-0.26,19.78,68.73,0.0,20.92,70.66,0.44,19.78,68.64,0.09,20.57,69.08,0.09,20.39,68.91,-1.68,18.63,67.93,-1.76,18.54,70.41,1.5,19.42,71.9,1.76,18.63,70.32,-1.41,19.15,67.58,-1.41,18.89,70.41,-0.9734,-1.0,-0.4161,-1.0,-1.0,1.0,1.0,-1.0,1.0,1.0,-1.0,1.0,-0.1909,-1.0,-0.599,-1.0,-1.0,1.0,0.0,0.0,0.006,0.006,0.0,0.026,0.0,0.013,0.0,0.0,0.0,0.019,0.019,0.013,0.013,0.013,0.006,0.006,-0.0031,-0.0031,0.0,0.0,-0.0031,-0.0031,0.0,0.0,0.0,0.0031,-0.0061,-0.0031,0.0,-0.0015,0.0,0.0,0.0,0.0,-0.0064,-0.0075,0.0,0.0,-0.0075,-0.0064,0.0,0.0,0.0,0.0069,-0.015,-0.0064,0.0,-0.0038,0.0,0.0,0.0,0.0,0.0,0.0,-0.0084,-0.0002,0.0552,0.0,0.0,0.0,0.0,0.0,0.0,0.0,0.0,0.0,0.0,0.0,0.0,0.0,0.0,0.0,0.0,0.0,0.0,0.0,0.0,0.0,0.0,0.0,0.0,0.0,0.0,0.0,0.0,0.0,0.0,0.0,0
0.04,run,0.73,0.76,-0.4,-0.02,0.37,0.0,0.0,0.0,0.045,-3.34,19.07,69.43,-3.08,17.14,71.72,0.18,18.28,71.63,3.34,16.79,71.63,-2.64,17.75,68.91,-2.81,17.49,71.54,-3.18,20.13,69.43,-3.26,17.04,71.91,0.0,17.92,70.4,3.26,17.13,71.82,-2.91,17.65,69.08,-2.91,17.39,71.91,-1.0,1.0,1.0,-1.0,-1.0,1.0,-1.0,-1.0,-1.0,1.0,-1.0,1.0,-1.0,0.5195,1.0,-1.0,-1.0,1.0,0.0,0.033,0.0,0.0,0.0,0.006,0.006,0.013,0.045,0.0,0.006,0.006,0.013,0.0,0.006,0.0,0.0,0.006,-0.0031,-0.0031,0.0,0.0,-0.0046,-0.0031,0.0,0.0,0.0046,0.0031,-0.0061,-0.0031,0.0,-0.0015,0.0,0.0,0.0,0.0,-0.0045,-0.0053,0.0,0.0,-0.0078,-0.0045,0.0,0.0,0.0075,0.0049,-0.0105,-0.0045,0.0,-0.0026,0.0,0.0,0.0,0.0,0.0019,0.0018,0.0044,0.0042,0.0087,-0.9734,-1.0,-0.4161,-1.0,-1.0,1.0,1.0,-1.0,1.0,1.0,-1.0,1.0,-0.1909,-1.0,-0.599,-1.0,-1.0,1.0,0.0,0.0,0.0,0.0,0.0,0.0,0.0,0.0,0.0,0.0,0.0,0.0,0.0,0
0.08,run,0.74,0.75,0.09,0.05,0.18,0.0,0.0,0.0,0.045,-3.34,19.07,69.43,-3.08,17.14,71.72,0.18,18.28,71.63,3.34,16.79,71.63,-2.64,17.75,68.91,-2.81,17.49,71.54,-3.63,18.63,70.93,-4.76,15.54,73.41,-1.5,19.42,71.9,4.76,15.63,73.32,-4.41,19.15,70.58,-4.41,15.89,73.41,-0.1037,0.5189,0.5018,-1.0,-1.0,0.482,-1.0,1.0,1.0,1.0,-1.0,1.0,-1.0,1.0,1.0,-1.0,-1.0,1.0,0.0,0.033,0.0,0.0,0.0,0.006,0.006,0.013,0.045,0.0,0.006,0.006,0.013,0.0,0.006,0.0,0.0,0.006,-0.0552,-0.0184,0.0,-0.0491,-0.0506,0.0491,0.0031,-0.046,0.0215,0.0537,-0.0583,0.0491,-0.0476,-0.0506,-0.0031,-0.0506,-0.0506,0.046,-0.0045,-0.0053,0.0,0.0,-0.0078,-0.0045,0.0,0.0,0.0075,0.0049,-0.0105,-0.0045,0.0,-0.0026,0.0,0.0,0.0,0.0,-0.0501,-0.0014,-0.0071,-0.0003,0.0064,-1.0,1.0,1.0,-1.0,-1.0,1.0,-1.0,-1.0,-1.0,1.0,-1.0,1.0,-1.0,0.5195,1.0,-1.0,-1.0,1.0,0.0,0.0,0.0,0.0,0.0,0.0,0.0,0.0,0.0,0.0,0.0,0.0,0.0,0
0.12,run,0.77,0.74,0.93,-0.35,-0.1,0.0,0.0,0.0,0.045,-3.34,19.07,69.43,-3.08,16.88,71.72,0.18,18.28,71.63,3.34,16.79,71.72,-2.64,17.75,68.91,-2.9,17.49,71.54,-5.13,20.13,72.43,-6.26,14.04,74.91,-3.0,17.92,73.4,6.26,14.13,74.82,-5.91,17.65,69.08,-5.91,14.39,74.91,-1.0,0.9252,0.1626,-1.0,-1.0,1.0,-1.0,0.6045,1.0,1.0,-1.0,1.0,-0.3543,-0.1236,-1.0,-1.0,-1.0,1.0,0.0,0.033,0.0,0.0,0.0,0.006,0.006,0.013,0.045,0.0,0.006,0.006,0.013,0.0,0.006,0.0,0.0,0.006,-0.0552,-0.0184,0.0,-0.0491,-0.0506,0.0491,0.0031,-0.046,0.0215,0.0537,-0.0583,0.0491,-0.0476,-0.0506,-0.0031,-0.0506,-0.0506,0.046,-0.0031,-0.0037,0.0,0.0,-0.0054,-0.0031,0.0,0.0,0.0053,0.0034,-0.0074,-0.0031,0.0,-0.0018,0.0,0.0,0.0,0.0,-0.0485,-0.0016,0.0016,0.0009,0.0031,-0.1037,0.5189,0.5018,-1.0,-1.0,0.482,-1.0,1.0,1.0,1.0,-1.0,1.0,-1.0,1.0,1.0,-1.0,-1.0,1.0,0.0,0.0,0.0,0.0,0.0,0.0,0.0,0.0,0.0,0.0,0.0,0.0,0.0,0
0.16,run,0.76,0.59,0.95,-3.53,-5.07,0.0,0.0,0.0,0.045,-3.87,19.07,69.79,-3.43,16.44,72.07,-0.35,18.28,71.63,3.34,16.44,71.98,-3.16,17.75,68.91,-3.52,17.14,71.89,-6.63,21.63,73.93,-7.76,12.54,76.41,-4.5,16.42,71.9,7.76,12.63,76.32,-7.41,19.15,70.58,-7.41,12.89,76.41,-1.0,0.9542,0.2988,-1.0,-0.6445,1.0,-1.0,-0.9657,-0.2573,1.0,-1.0,1.0,-1.0,0.8967,1.0,-1.0,-1.0,1.0,0.0,0.045,0.0,0.006,0.0,0.019,0.013,0.026,0.0,0.026,0.0,0.026,0.026,0.0,0.006,0.006,0.013,0.013,-0.0552,-0.0184,0.0,-0.0491,-0.0552,0.0491,0.0031,-0.046,0.0215,0.0537,-0.0583,0.0506,-0.0476,-0.0506,-0.0031,-0.0522,-0.0506,0.046,-0.0022,-0.0026,0.0,0.0,-0.0209,-0.0022,0.0,0.0,0.0037,0.0024,-0.0052,0.0035,0.0,-0.0013,0.0,-0.0057,0.0,0.0,-0.0462,-0.0029,0.0163,-0.0061,-0.0017,-1.0,0.9252,0.1626,-1.0,-1.0,1.0,-1.0,0.6045,1.0,1.0,-1.0,1.0,-0.3543,-0.1236,-1.0,-1.0,-1.0,1.0,0.0,0.0,0.0,0.0,0.0,0.0,0.0,0.0,0.0,0.0,0.0,0.0,0.0,0
0.2,run,0.63,0.46,-2.35,-4.31,-6.38,0.0,0.0,0.0,0.045,-4.66,19.16,70.4,-4.04,15.73,72.86,-0.97,18.02,71.81,4.48,15.64,72.77,-3.96,17.67,68.99,-4.22,16.7,72.6,-8.13,20.13,75.43,-9.26,11.04,77.91,-6.0,17.92,73.4,9.26,11.13,77.82,-8.91,17.65,72.08,-8.91,11.39,77.91,-1.0,0.1626,0.9568,-1.0,-1.0,0.3683,-1.0,1.0,1.0,1.0,-1.0,1.0,-1.0,0.3758,1.0,-1.0,-1.0,1.0,0.0,0.045,0.0,0.006,0.0,0.019,0.013,0.026,0.0,0.026,0.0,0.026,0.026,0.0,0.006,0.006,0.013,0.013,-0.0644,-0.0184,0.0061,-0.0552,-0.0629,0.0552,-0.0061,-0.046,0.0215,0.0537,-0.0644,0.0552,-0.0568,-0.0506,-0.0031,-0.0629,-0.0568,0.0522,-0.036,-0.0018,0.023,-0.023,-0.0434,0.0215,-0.0345,0.0,0.0026,0.0017,-0.0266,0.0197,-0.0345,-0.0009,0.0,-0.0442,-0.023,0.023,-0.0472,-0.0158,0.0165,-0.0616,-0.0886,-1.0,0.9542,0.2988,-1.0,-0.6445,1.0,-1.0,-0.9657,-0.2573,1.0,-1.0,1.0,-1.0,0.8967,1.0,-1.0,-1.0,1.0,0.0,0.0,0.0,0.0,0.0,0.0,0.0,0.0,0.0,0.0,0.0,0.0,0.0,0
0.24,run,0.63,0.17,-0.14,-8.9,-9.47,0.0,0.0,0.0,0.045,-5.71,19.51,71.28,-4.92,14.77,74.0,-1.85,17.4,72.25,5.27,14.68,73.74,-4.92,17.67,69.43,-5.27,15.91,73.56,-9.63,18.63,76.93,-10.76,9.54,79.41,-7.5,16.42,74.9,10.76,9.63,79.32,-10.41,16.15,70.58,-10.41,9.89,79.41,-1.0,-0.5787,0.2894,-1.0,-0.919,1.0,-1.0,0.4506,1.0,1.0,-1.0,1.0,-1.0,-0.4371,-1.0,-1.0,-1.0,1.0,0.0,0.045,0.0,0.006,0.0,0.019,0.013,0.026,0.0,0.026,0.0,0.026,0.026,0.0,0.006,0.006,0.013,0.013,-0.0782,-0.0169,0.0169,-0.066,-0.0752,0.069,-0.0169,-0.0506,0.0245,0.0736,-0.0782,0.069,-0.0706,-0.0522,-0.0015,-0.0752,-0.0644,0.0644,-0.0772,0.0045,0.0565,-0.0565,-0.0766,0.067,-0.0646,-0.0173,0.0134,0.0763,-0.0706,0.0658,-0.0762,-0.0064,0.0058,-0.0772,-0.045,0.0623,-0.0581,-0.0271,-0.041,-0.0752,-0.1113,-1.0,0.1626,0.9568,-1.0,-1.0,0.3683,-1.0,1.0,1.0,1.0,-1.0,1.0,-1.0,0.3758,1.0,-1.0,-1.0,1.0,0.0,0.0,0.0,0.0,0.0,0.0,0.0,0.0,0.0,0.0,0.0,0.0,0.0,0
0.28,run,0.61,0.05,-0.72,-3.93,-13.9,0.0,0.0,0.0,0.045,-6.94,19.69,72.51,-6.15,13.62,75.32,-3.08,16.96,72.86,6.59,13.45,75.06,-6.24,17.67,69.96,-6.59,14.5,74.79,-11.13,17.13,78.43,-12.26,8.04,80.91,-9.0,14.92,73.4,12.26,8.13,80.82,-11.91,17.65,72.08,-11.91,8.39,80.91,-1.0,-1.0,0.8302,-1.0,-0.1651,1.0,-1.0,-0.1256,-0.2687,1.0,-1.0,1.0,-1.0,1.0,1.0,-1.0,-1.0,1.0,0.006,0.039,0.013,0.026,0.0,0.026,0.019,0.019,0.0,0.033,0.0,0.026,0.039,0.006,0.019,0.013,0.013,0.019,-0.0966,-0.0107,0.0322,-0.0813,-0.092,0.089,-0.0322,-0.0614,0.0322,0.0874,-0.0951,0.0859,-0.0874,-0.0522,0.0061,-0.0936,-0.0782,0.0813,-0.1228,0.0261,0.0969,-0.0969,-0.1167,0.1214,-0.1025,-0.0522,0.038,0.105,-0.1125,0.1091,-0.1163,-0.0045,0.0327,-0.1228,-0.0831,0.1067,-0.0585,-0.0522,-0.0024,-0.1553,-0.1653,-1.0,-0.5787,0.2894,-1.0,-0.919,1.0,-1.0,0.4506,1.0,1.0,-1.0,1.0,-1.0,-0.4371,-1.0,-1.0,-1.0,1.0,0.0,0.0,0.0,0.0,0.0,0.0,0.0,0.0,0.0,0.0,0.0,0.0,0.0,0
0.32,run,0.68,-0.22,2.26,-7.49,-10.15,0.0,0.0,0.0,0.045,-8.35,19.69,73.83,-7.56,12.3,76.82,-4.39,16.61,73.56,7.82,12.13,76.55,-7.56,17.31,70.4,-8.0,13.1,76.2,-12.63,15.63,79.93,-13.76,6.54,82.41,-10.5,16.42,74.9,13.76,6.63,82.32,-13.41,16.15,73.58,-13.41,6.89,82.41,-1.0,-1.0,0.5897,-1.0,-1.0,0.2123,-1.0,1.0,1.0,1.0,-1.0,1.0,-1.0,-1.0,0.6607,-1.0,-1.0,1.0,0.006,0.039,0.013,0.026,0.0,0.026,0.019,0.019,0.0,0.033,0.0,0.026,0.039,0.006,0.019,0.013,0.013,0.019,-0.1181,-0.0077,0.0537,-0.1028,-0.112,0.112,-0.0537,-0.069,0.043,0.1104,-0.1166,0.1089,-0.1104,-0.0522,0.0153,-0.1166,-0.1028,0.1028,-0.1665,0.0298,0.1483,-0.1483,-0.1564,0.1713,-0.1523,-0.0653,0.0669,0.1597,-0.1592,0.1626,-0.1677,-0.0031,0.0574,-0.1722,-0.1502,0.1552,-0.0605,-0.0634,-0.0125,-0.0685,-0.2426,-1.0,-1.0,0.8302,-1.0,-0.1651,1.0,-1.0,-0.1256,-0.2687,1.0,-1.0,1.0,-1.0,1.0,1.0,-1.0,-1.0,1.0,0.0,0.0,0.0,0.0,0.0,0.0,0.0,0.0,0.0,0.0,0.0,0.0,0.0,0
0.36,run,1.0,-0.42,9.03,-6.68,-5.95,0.0,0.0,0.0,0.045,-9.67,19.69,74.79,-8.88,10.81,78.22,-5.8,15.91,74.18,9.05,10.63,77.96,-8.88,17.23,71.1,-9.49,11.78,77.61,-14.13,14.13,81.43,-15.26,5.04,83.91,-12.0,14.92,76.4,15.26,5.13,83.82,-14.91,17.65,75.08,-14.91,5.39,83.91,-1.0,-1.0,1.0,-1.0,-0.6051,1.0,-1.0,-0.4097,1.0,1.0,-1.0,1.0,-1.0,0.7992,1.0,-1.0,-1.0,1.0,0.006,0.039,0.013,0.026,0.0,0.026,0.019,0.019,0.0,0.033,0.0,0.026,0.039,0.006,0.019,0.013,0.013,0.019,-0.1427,-0.0077,0.0767,-0.1273,-0.135,0.1381,-0.0767,-0.0752,0.0552,0.1319,-0.1396,0.135,-0.1335,-0.0583,0.023,-0.1411,-0.1273,0.1273,-0.2085,0.0208,0.19,-0.1958,-0.1957,0.2176,-0.1928,-0.0687,0.0928,0.1923,-0.1977,0.2115,-0.2036,-0.0252,0.0689,-0.2125,-0.1971,0.2006,-0.0542,-0.0867,0.0394,-0.1308,-0.1772,-1.0,-1.0,0.5897,-1.0,-1.0,0.2123,-1.0,1.0,1.0,1.0,-1.0,1.0,-1.0,-1.0,0.6607,-1.0,-1.0,1.0,0.0,0.0,0.0,0.0,0.0,0.0,0.0,0.0,0.0,0.0,0.0,0.0,0.0,0
0.4,run,1.11,-0.44,3.77,-2.89,3.99,0.0,0.0,0.0,0.084,-10.99,19.07,76.46,-10.37,9.4,79.63,-7.21,15.64,75.06,10.37,9.32,79.45,-10.2,16.7,72.16,-10.9,10.46,79.1,-15.63,12.63,82.93,-16.76,3.54,82.41,-13.5,16.42,77.9,16.76,3.63,85.32,-16.41,16.15,73.58,-16.41,3.89,85.41,-1.0,-1.0,0.3578,-1.0,-1.0,-0.1408,-1.0,1.0,1.0,1.0,-1.0,1.0,-1.0,0.2949,-0.2572,-1.0,-1.0,1.0,0.013,0.0,0.019,0.026,0.0,0.019,0.006,0.019,0.0,0.084,0.0,0.033,0.078,0.013,0.033,0.019,0.019,0.013,-0.1657,-0.0077,0.0936,-0.1503,-0.1611,0.1626,-0.1012,-0.0874,0.066,0.1534,-0.1657,0.1595,-0.1565,-0.0598,0.0353,-0.1672,-0.1503,0.1519,-0.2326,0.0146,0.1966,-0.2237,-0.2352,0.2447,-0.2274,-0.0943,0.1054,0.2155,-0.2366,0.2405,-0.2292,-0.0234,0.0944,-0.2469,-0.2246,0.2328,-0.0258,-0.1039,0.1576,-0.1165,-0.1039,-1.0,-1.0,1.0,-1.0,-0.6051,1.0,-1.0,-0.4097,1.0,1.0,-1.0,1.0,-1.0,0.7992,1.0,-1.0,-1.0,1.0,0.0,0.0,0.0,0.0,0.0,0.0,0.0,0.0,0.0,0.0,0.0,0.0,0.0,0
0.44,run,1.74,-1.21,13.31,-17.02,-0.2,0.0,0.0,0.0,0.084,-12.57,17.93,77.96,-11.78,7.82,81.04,-8.79,15.29,75.94,11.95,7.82,80.86,-11.6,16.61,73.21,-12.39,8.96,80.95,-17.13,11.13,84.43,-18.26,2.04,83.91,-15.0,14.92,79.4,18.26,2.13,86.82,-17.91,17.65,75.08,-17.91,2.39,86.91,-1.0,-1.0,0.896,-1.0,-0.4567,1.0,-1.0,0.1375,1.0,1.0,-1.0,1.0,-1.0,0.8142,1.0,-1.0,-1.0,1.0,0.013,0.0,0.019,0.026,0.0,0.019,0.006,0.019,0.0,0.084,0.0,0.033,0.078,0.013,0.033,0.019,0.019,0.013,-0.1887,-0.0184,0.1227,-0.1764,-0.1856,0.1871,-0.1258,-0.092,0.0813,0.1764,-0.1887,0.1856,-0.1795,-0.069,0.0537,-0.1917,-0.1733,0.1779,-0.2483,-0.0297,0.2459,-0.2535,-0.2558,0.2625,-0.2504,-0.0831,0.1308,0.2363,-0.2511,0.2652,-0.2459,-0.0506,0.1345,-0.2641,-0.2427,0.2599,-0.0164,-0.1054,0.0658,-0.0504,0.0696,-1.0,-1.0,0.3578,-1.0,-1.0,-0.1408,-1.0,1.0,1.0,1.0,-1.0,1.0,-1.0,0.2949,-0.2572,-1.0,-1.0,1.0,0.0,0.0,0.0,0.0,0.0,0.0,0.0,0.0,0.0,0.0,0.0,0.0,0.0,0
0.48,run,1.98,-1.43,6.41,-6.59,-5.35,0.0,0.0,0.0,0.084,-13.8,16.61,79.28,-13.27,6.33,82.0,-10.2,15.64,76.99,13.36,6.42,82.27,-13.01,16.08,73.92,-13.89,7.56,81.91,-18.63,9.63,85.93,-19.76,0.54,82.41,-16.5,16.42,80.9,19.76,3.63,88.32,-19.41,19.15,73.58,-19.41,0.89,88.41,-1.0,-1.0,0.5868,-1.0,-1.0,-1.0,-1.0,1.0,1.0,1.0,0.573,1.0,-0.7216,1.0,-0.8939,-1.0,-1.0,1.0,0.013,0.0,0.019,0.026,0.0,0.019,0.006,0.019,0.0,0.084,0.0,0.033,0.078,0.013,0.033,0.019,0.019,0.013,-0.2163,-0.0383,0.1488,-0.201,-0.2132,0.2117,-0.1534,-0.0982,0.0966,0.204,-0.2148,0.2102,-0.204,-0.0706,0.0721,-0.2178,-0.1994,0.2102,-0.2713,-0.0912,0.2642,-0.2641,-0.2766,0.2704,-0.2728,-0.0799,0.1457,0.2629,-0.2679,0.2724,-0.2588,-0.0408,0.1592,-0.2769,-0.262,0.2957,0.0388,-0.1728,0.2324,-0.297,-0.0034,-1.0,-1.0,0.896,-1.0,-0.4567,1.0,-1.0,0.1375,1.0,1.0,-1.0,1.0,-1.0,0.8142,1.0,-1.0,-1.0,1.0,0.0,0.0,0.0,0.0,0.0,0.0,0.0,0.0,0.0,0.0,0.0,0.0,0.0,0
0.52,run,2.71,-1.42,18.7,1.34,-7.94,0.0,0.0,0.0,0.111,-15.29,15.29,80.68,-14.94,4.92,82.88,-11.51,15.82,78.05,14.77,5.1,83.67,-14.24,15.82,74.27,-15.29,6.15,83.41,-20.13,8.13,87.43,-21.26,-0.96,83.91,-18.0,17.92,82.4,21.26,5.13,89.82,-20.91,20.65,75.08,-20.91,-0.61,89.91,-1.0,-1.0,0.4975,-1.0,-0.1667,1.0,-1.0,1.0,1.0,1.0,1.0,1.0,-1.0,1.0,0.9215,-1.0,-1.0,1.0,0.006,0.0,0.039,0.006,0.0,0.006,0.019,0.013,0.0,0.084,0.0,0.033,0.111,0.078,0.026,0.006,0.033,0.006,-0.2378,-0.0614,0.1718,-0.227,-0.2393,0.2286,-0.1779,-0.092,0.115,0.2286,-0.2393,0.2347,-0.2286,-0.0798,0.0844,-0.2439,-0.224,0.227,-0.27,-0.1496,0.2707,-0.2821,-0.2908,0.2522,-0.2824,-0.033,0.1706,0.2755,-0.279,0.2821,-0.2726,-0.0629,0.1571,-0.291,-0.2749,0.2699,0.059,-0.1917,0.1118,-0.115,-0.0934,-1.0,-1.0,0.5868,-1.0,-1.0,-1.0,-1.0,1.0,1.0,1.0,0.573,1.0,-0.7216,1.0,-0.8939,-1.0,-1.0,1.0,0.0,0.0,0.0,0.0,0.0,0.0,0.0,0.0,0.0,0.0,0.0,0.0,0.0,0
0.56,run,3.31,-1.96,13.28,-12.91,-7.41,0.0,0.0,0.0,0.111,-16.79,13.97,82.0,-16.79,3.34,83.41,-12.92,16.7,79.37,16.26,3.96,84.99,-15.64,15.82,74.44,-16.7,4.75,84.99,-18.63,6.63,88.93,-22.76,-2.46,85.41,-19.5,16.42,83.9,22.76,6.63,91.32,-22.41,22.15,76.58,-22.41,-2.11,91.41,1.0,-1.0,0.948,-1.0,-1.0,1.0,-1.0,-1.0,0.4096,1.0,1.0,1.0,-1.0,1.0,0.2384,-1.0,-1.0,1.0,0.006,0.0,0.039,0.006,0.0,0.006,0.019,0.013,0.0,0.084,0.0,0.033,0.111,0.078,0.026,0.006,0.033,0.006,-0.2638,-0.0844,0.1963,-0.2562,-0.2638,0.2439,-0.201,-0.089,0.1335,0.2531,-0.2623,0.2592,-0.25,-0.0844,0.0905,-0.2684,-0.2485,0.2531,-0.2868,-0.191,0.2816,-0.3068,-0.2956,0.2341,-0.284,-0.0116,0.1885,0.2849,-0.2816,0.2896,-0.2714,-0.0613,0.133,-0.2958,-0.2845,0.2867,0.1234,-0.1911,0.3263,0.0234,-0.1386,-1.0,-1.0,0.4975,-1.0,-0.1667,1.0,-1.0,1.0,1.0,1.0,1.0,1.0,-1.0,1.0,0.9215,-1.0,-1.0,1.0,0.0,0.0,0.0,0.0,0.0,0.0,0.0,0.0,0.0,0.0,0.0,0.0,0.0,0
0.6,run,4.42,-1.96,25.99,0.74,0.79,0.0,0.0,0.0,0.111,-18.11,12.57,83.41,-17.93,1.85,83.76,-14.41,17.4,80.77,17.67,3.16,86.4,-16.96,15.82,74.44,-18.11,3.25,85.96,-17.13,5.13,90.43,-24.26,-3.96,86.91,-21.0,17.92,82.4,24.26,8.13,92.82,-23.91,23.65,78.08,-23.91,-3.61,89.91,1.0,-1.0,0.3126,-1.0,-1.0,1.0,-1.0,1.0,-0.7896,1.0,1.0,1.0,-1.0,1.0,0.6997,-1.0,-1.0,-0.5751,0.006,0.0,0.039,0.006,0.0,0.006,0.019,0.013,0.0,0.084,0.0,0.033,0.111,0.078,0.026,0.006,0.033,0.006,-0.2899,-0.1074,0.2194,-0.2884,-0.2915,0.2531,-0.2255,-0.0736,0.1565,0.2792,-0.2823,0.2823,-0.2746,-0.0844,0.0936,-0.293,-0.273,0.2807,-0.2989,-0.2203,0.2837,-0.336,-0.3108,0.1985,-0.2912,0.0496,0.2185,0.2976,-0.2722,0.2893,-0.2823,-0.0429,0.1047,-0.2994,-0.2915,0.3046,0.1751,-0.2386,0.2317,-0.2254,-0.1293,1.0,-1.0,0.948,-1.0,-1.0,1.0,-1.0,-1.0,0.4096,1.0,1.0,1.0,-1.0,1.0,0.2384,-1.0,-1.0,1.0,0.0,0.0,0.0,0.0,0.0,0.0,0.0,0.0,0.0,0.0,0.0,0.0,0.0,0
0.64,run,5.53,-2.25,27.08,-5.25,-0.09,0.0,0.0,0.0,0.136,-19.07,11.25,84.73,-19.34,0.35,84.38,-15.82,17.75,82.09,19.16,2.81,87.8,-18.28,16.79,74.88,-19.6,1.85,87.8,-15.63,3.63,91.93,-25.76,-5.46,85.41,-22.5,16.42,80.9,25.76,9.63,94.32,-25.41,25.15,79.58,-25.41,-5.11,88.41,1.0,-1.0,0.581,-1.0,-1.0,-0.0709,-1.0,-1.0,-0.0462,1.0,1.0,1.0,-1.0,1.0,1.0,-1.0,-1.0,-1.0,0.0,0.0,0.045,0.013,0.0,0.026,0.019,0.0,0.0,0.039,0.0,0.052,0.136,0.078,0.065,0.013,0.033,0.006,-0.3129,-0.1319,0.2439,-0.3083,-0.3175,0.2592,-0.2516,-0.0614,0.181,0.3037,-0.2961,0.3068,-0.2976,-0.0844,0.0936,-0.3175,-0.2991,0.2976,-0.2952,-0.2459,0.2903,-0.3097,-0.315,0.1619,-0.3012,0.0806,0.2447,0.3,-0.2421,0.2942,-0.2836,-0.03,0.0733,-0.3013,-0.3015,0.2763,0.2721,-0.2381,0.4535,0.013,0.0138,1.0,-1.0,0.3126,-1.0,-1.0,1.0,-1.0,1.0,-0.7896,1.0,1.0,1.0,-1.0,1.0,0.6997,-1.0,-1.0,-0.5751,0.0,0.0,0.0,0.0,0.0,0.0,0.0,0.0,0.0,0.0,0.0,0.0,0.0,0
0.68,run,6.45,-2.58,21.16,-6.53,0.13,0.0,0.0,0.0,0.136,-19.78,9.67,86.13,-20.83,-1.32,85.08,-17.23,17.93,83.14,20.65,2.72,89.21,-19.69,18.02,75.67,-21.01,0.35,88.68,-14.13,2.13,90.43,-27.26,-6.96,86.91,-24.0,14.92,82.4,27.26,11.13,95.82,-26.91,26.65,81.08,-23.91,-6.61,86.91,1.0,-1.0,-0.1072,-1.0,-1.0,0.6163,-1.0,-1.0,0.3751,1.0,1.0,0.5761,-1.0,1.0,1.0,1.0,-1.0,-1.0,0.0,0.0,0.045,0.013,0.0,0.026,0.019,0.0,0.0,0.039,0.0,0.052,0.136,0.078,0.065,0.013,0.033,0.006,-0.3298,-0.1549,0.2669,-0.3329,-0.3436,0.27,-0.2761,-0.0552,0.204,0.3298,-0.3022,0.3313,-0.3206,-0.0675,0.1012,-0.3436,-0.3237,0.3298,-0.2699,-0.2584,0.2894,-0.3088,-0.3183,0.1536,-0.3029,0.0794,0.2575,0.3078,-0.1925,0.2979,-0.2848,0.0422,0.08,-0.3087,-0.303,0.3141,0.3694,-0.2638,0.4727,-0.0916,-0.0016,1.0,-1.0,0.581,-1.0,-1.0,-0.0709,-1.0,-1.0,-0.0462,1.0,1.0,1.0,-1.0,1.0,1.0,-1.0,-1.0,-1.0,0.0,0.0,0.0,0.0,0.0,0.0,0.0,0.0,0.0,0.0,0.0,0.0,0.0,0
0.72,run,7.68,-3.33,30.03,-18.15,-7.42,0.0,0.0,0.0,0.136,-20.04,8.26,87.45,-22.15,-2.64,85.43,-18.63,17.49,83.67,21.97,2.72,90.44,-21.09,19.25,76.64,-22.5,-1.05,89.56,-12.63,0.63,91.93,-28.76,-8.46,85.41,-25.5,13.42,83.9,28.76,12.63,97.32,-28.41,28.15,82.58,-22.41,-5.11,85.41,1.0,-1.0,1.0,-1.0,-1.0,-0.6798,-1.0,-0.9185,0.7455,1.0,1.0,1.0,-1.0,1.0,1.0,1.0,0.8592,-1.0,0.0,0.0,0.045,0.013,0.0,0.026,0.019,0.0,0.0,0.039,0.0,0.052,0.136,0.078,0.065,0.013,0.033,0.006,-0.3421,-0.1825,0.2915,-0.359,-0.3728,0.2823,-0.3007,-0.0522,0.2224,0.3559,-0.3037,0.3559,-0.3451,-0.046,0.115,-0.3682,-0.3497,0.3451,-0.2326,-0.2793,0.2901,-0.3091,-0.3266,0.1512,-0.2995,0.0665,0.2458,0.3083,-0.1402,0.296,-0.2868,0.1061,0.1052,-0.3035,-0.305,0.2746,0.4492,-0.2928,0.3693,-0.114,0.0023,1.0,-1.0,-0.1072,-1.0,-1.0,0.6163,-1.0,-1.0,0.3751,1.0,1.0,0.5761,-1.0,1.0,1.0,1.0,-1.0,-1.0,0.0,0.0,0.0,0.0,0.0,0.0,0.0,0.0,0.0,0.0,0.0,0.0,0.0,0
0.76,run,9.43,-4.44,43.79,-30.77,-8.69,0.0,0.0,0.0,0.286,-20.21,6.94,88.86,-23.55,-4.22,85.87,-19.95,16.96,84.2,23.38,2.81,91.93,-22.68,20.65,78.05,-23.55,-2.37,90.09,-11.13,-0.87,93.43,-30.26,-9.96,83.91,-27.0,14.92,85.4,30.26,14.13,95.82,-29.91,29.65,81.08,-20.91,-5.89,83.91,1.0,-1.0,0.8353,-1.0,-1.0,-0.9809,-1.0,1.0,1.0,0.937,1.0,0.2299,-1.0,1.0,-1.0,1.0,0.3475,-1.0,0.006,0.0,0.033,0.019,0.0,0.019,0.026,0.052,0.006,0.058,0.111,0.058,0.104,0.286,0.163,0.0,0.026,0.006,-0.3467,-0.2071,0.3145,-0.382,-0.3958,0.2884,-0.3252,-0.0598,0.2316,0.3789,-0.3037,0.3774,-0.3697,-0.0245,0.1319,-0.3942,-0.3743,0.3605,-0.1799,-0.2867,0.2885,-0.3018,-0.3141,0.1286,-0.3008,0.0181,0.2063,0.3013,-0.0981,0.287,-0.2919,0.154,0.1363,-0.3093,-0.3047,0.2492,0.5564,-0.3575,0.5241,-0.3168,-0.1295,1.0,-1.0,1.0,-1.0,-1.0,-0.6798,-1.0,-0.9185,0.7455,1.0,1.0,1.0,-1.0,1.0,1.0,1.0,0.8592,-1.0,0.0,0.0,0.0,0.0,0.0,0.0,0.0,0.0,0.0,0.0,0.0,0.0,0.0,0
0.8,run,11.38,-5.3,49.21,-23.13,-4.75,0.0,0.0,0.0,0.286,-19.51,5.54,90.0,-24.96,-5.8,85.87,-21.36,16.35,84.64,24.7,3.6,93.25,-24.26,22.06,79.28,-24.43,-3.52,90.09,-9.63,-2.37,94.93,-31.76,-11.46,82.41,-28.5,16.42,86.9,29.4,15.63,97.32,-31.41,30.0,79.58,-19.41,-4.39,82.41,1.0,-1.0,0.716,-1.0,-1.0,-1.0,-1.0,1.0,1.0,0.84,1.0,0.9727,-1.0,1.0,-0.7447,1.0,1.0,-1.0,0.006,0.0,0.033,0.019,0.0,0.019,0.026,0.052,0.006,0.058,0.111,0.058,0.104,0.286,0.163,0.0,0.026,0.006,-0.3497,-0.2301,0.339,-0.4065,-0.4234,0.2961,-0.3482,-0.069,0.2408,0.4034,-0.3022,0.4034,-0.3973,0.0,0.1565,-0.4126,-0.3973,0.3697,-0.1375,-0.2874,0.2945,-0.3038,-0.324,0.119,-0.2973,-0.0221,0.1791,0.3034,-0.0629,0.2992,-0.3084,0.2003,0.188,-0.2859,-0.3,0.2091,0.7094,-0.4546,0.7642,-0.537,-0.1517,1.0,-1.0,0.8353,-1.0,-1.0,-0.9809,-1.0,1.0,1.0,0.937,1.0,0.2299,-1.0,1.0,-1.0,1.0,0.3475,-1.0,0.0,0.0,0.0,0.0,0.0,0.0,0.0,0.0,0.0,0.0,0.0,0.0,0.0,0
0.84,run,13.28,-6.01,48.01,-19.81,-7.84,0.0,0.0,0.0,0.286,-18.81,4.22,91.23,-26.46,-7.21,85.25,-22.68,16.0,85.25,26.1,4.66,94.31,-25.66,23.47,80.24,-24.96,-4.39,90.09,-8.13,-3.87,96.43,-33.26,-12.96,80.91,-30.0,17.06,88.4,27.9,17.13,98.82,-32.91,30.0,78.08,-17.91,-2.89,80.91,1.0,-1.0,0.9658,-1.0,-1.0,-1.0,-1.0,0.7647,1.0,0.2,1.0,1.0,-1.0,1.0,-0.5475,1.0,1.0,-1.0,0.006,0.0,0.033,0.019,0.0,0.019,0.026,0.052,0.006,0.058,0.111,0.058,0.104,0.286,0.163,0.0,0.026,0.006,-0.3375,-0.2546,0.359,-0.431,-0.451,0.2961,-0.3728,-0.0798,0.2485,0.4264,-0.2884,0.4264,-0.4249,0.0245,0.1779,-0.428,-0.4172,0.3697,-0.0502,-0.2933,0.281,-0.3048,-0.3304,0.0833,-0.3002,-0.0557,0.1541,0.2988,0.0078,0.2958,-0.3195,0.2323,0.2122,-0.2577,-0.2848,0.1464,0.8792,-0.53,0.8588,-0.4036,-0.083,1.0,-1.0,0.716,-1.0,-1.0,-1.0,-1.0,1.0,1.0,0.84,1.0,0.9727,-1.0,1.0,-0.7447,1.0,1.0,-1.0,0.0,0.0,0.0,0.0,0.0,0.0,0.0,0.0,0.0,0.0,0.0,0.0,0.0,0
0.88,run,14.39,-6.12,34.41,-6.48,-6.45,0.0,0.0,0.0,0.292,-17.75,2.81,92.55,-27.95,-8.7,84.29,-23.99,15.91,86.04,27.33,5.89,95.54,-27.07,24.96,81.04,-25.14,-5.01,89.38,-6.63,-5.37,97.93,-34.76,-14.46,79.41,-31.5,15.56,89.9,26.4,18.63,100.32,-34.41,30.0,76.58,-16.41,-1.39,79.41,1.0,-1.0,1.0,-1.0,-1.0,-0.9031,-1.0,0.5835,1.0,-0.5591,1.0,1.0,-1.0,1.0,-0.4571,1.0,1.0,-1.0,0.013,0.006,0.033,0.006,0.0,0.0,0.033,0.033,0.0,0.033,0.201,0.078,0.104,0.292,0.084,0.006,0.006,0.006,-0.3252,-0.2777,0.3804,-0.4571,-0.4755,0.2853,-0.3958,-0.0859,0.2592,0.451,-0.27,0.4449,-0.4495,0.0491,0.1948,-0.4372,-0.4326,0.3697,0.0109,-0.2916,0.2772,-0.3111,-0.3233,0.018,-0.2964,-0.062,0.1482,0.3011,0.0744,0.2761,-0.3157,0.2547,0.2118,-0.2149,-0.2569,0.1025,1.0451,-0.5923,0.8379,-0.3457,-0.1369,1.0,-1.0,0.9658,-1.0,-1.0,-1.0,-1.0,0.7647,1.0,0.2,1.0,1.0,-1.0,1.0,-0.5475,1.0,1.0,-1.0,0.0,0.0,0.0,0.0,0.0,0.0,0.0,0.0,0.0,0.0,0.0,0.0,0.0,0
0.92,run,16.01,-6.51,30.87,-5.97,-4.78,0.0,0.0,0.0,0.292,-16.17,1.23,94.13,-29.53,-10.28,83.14,-25.75,15.91,87.28,28.39,7.56,96.94,-28.74,26.37,81.21,-24.7,-5.36,88.42,-5.13,-6.87,99.43,-35.0,-15.96,80.91,-33.0,14.06,91.4,24.9,20.13,101.82,-35.0,30.0,75.08,-14.91,0.11,77.91,1.0,-1.0,1.0,-1.0,-1.0,0.888,-1.0,0.3832,1.0,-1.0,1.0,0.6769,-1.0,1.0,-1.0,1.0,1.0,-1.0,0.013,0.006,0.033,0.006,0.0,0.0,0.033,0.033,0.0,0.033,0.201,0.078,0.104,0.292,0.084,0.006,0.006,0.006,-0.3068,-0.3022,0.4034,-0.4832,-0.5016,0.2684,-0.4188,-0.0874,0.273,0.4725,-0.2485,0.4663,-0.474,0.0752,0.2086,-0.4403,-0.4433,0.3574,0.0766,-0.2961,0.2803,-0.3155,-0.3241,-0.0506,-0.2938,-0.0492,0.1555,0.2913,0.1326,0.2738,-0.313,0.276,0.2,-0.1619,-0.2201,0.0257,1.142,-0.6012,0.6006,-0.1132,-0.1125,1.0,-1.0,1.0,-1.0,-1.0,-0.9031,-1.0,0.5835,1.0,-0.5591,1.0,1.0,-1.0,1.0,-0.4571,1.0,1.0,-1.0,0.0,0.0,0.0,0.0,0.0,0.0,0.0,0.0,0.0,0.0,0.0,0.0,0.0,0
0.96,run,17.37,-6.96,19.56,-8.44,-15.57,0.0,0.0,0.0,0.292,-14.68,-0.18,95.36,-31.03,-11.51,81.74,-27.16,15.91,88.42,29.0,9.05,98.0,-30.41,27.6,81.39,-23.82,-5.36,86.84,-3.63,-8.37,100.93,-35.0,-17.46,82.41,-34.5,12.56,92.9,23.4,21.63,100.32,-35.0,30.0,73.58,-13.41,1.61,76.41,1.0,-1.0,1.0,-1.0,-1.0,0.4217,-1.0,-0.6595,1.0,-1.0,1.0,0.0182,-1.0,1.0,-0.8527,1.0,1.0,-1.0,0.013,0.006,0.033,0.006,0.0,0.0,0.033,0.033,0.0,0.033,0.201,0.078,0.104,0.292,0.084,0.006,0.006,0.006,-0.2792,-0.3298,0.431,-0.5108,-0.5292,0.2485,-0.4495,-0.0874,0.2945,0.4909,-0.2194,0.4909,-0.5031,0.0997,0.2117,-0.4326,-0.4495,0.3405,0.1418,-0.2955,0.2844,-0.3091,-0.315,-0.0991,-0.3036,-0.0344,0.1774,0.2627,0.1859,0.27,-0.3122,0.2716,0.1498,-0.0889,-0.1737,-0.0359,1.2836,-0.6352,0.5388,-0.1042,-0.0834,1.0,-1.0,1.0,-1.0,-1.0,0.888,-1.0,0.3832,1.0,-1.0,1.0,0.6769,-1.0,1.0,-1.0,1.0,1.0,-1.0,0.0,0.0,0.0,0.0,0.0,0.0,0.0,0.0,0.0,0.0,0.0,0.0,0.0,0
1.0,run,18.01,-6.15,21.89,18.73,-13.84,0.0,0.0,0.0,0.292,-13.27,-1.58,96.68,-32.26,-12.83,80.68,-28.65,15.82,89.56,29.0,10.46,99.05,-31.99,28.3,81.39,-23.12,-4.83,85.43,-2.13,-9.87,102.43,-35.0,-18.96,83.91,-35.0,11.06,94.4,21.9,23.13,98.82,-35.0,30.0,72.08,-11.91,3.11,74.91,1.0,-1.0,1.0,-1.0,-1.0,1.0,-1.0,0.4258,1.0,-1.0,1.0,-0.798,-1.0,1.0,-0.8713,1.0,1.0,-1.0,0.019,0.013,0.026,0.0,0.0,0.013,0.026,0.104,0.0,0.0,0.13,0.117,0.026,0.091,0.0,0.013,0.006,0.013,-0.2531,-0.3543,0.4525,-0.5369,-0.5507,0.224,-0.474,-0.0874,0.3145,0.5016,-0.1933,0.5093,-0.5323,0.1212,0.2148,-0.4172,-0.4495,0.3129,0.1961,-0.298,0.2789,-0.3132,-0.3003,-0.1606,-0.3037,-0.0241,0.1983,0.2238,0.227,0.2574,-0.3268,0.2699,0.1163,-0.0052,-0.1216,-0.1277,1.4026,-0.6748,0.3413,-0.1473,-0.2717,1.0,-1.0,1.0,-1.0,-1.0,0.4217,-1.0,-0.6595,1.0,-1.0,1.0,0.0182,-1.0,1.0,-0.8527,1.0,1.0,-1.0,0.0,0.0,0.0,0.0,0.0,0.0,0.0,0.0,0.0,0.0,0.0,0.0,0.0,0
1.04,run,18.79,-6.21,11.07,6.07,-8.14,0.0,0.002,0.0,0.292,-11.95,-3.08,98.17,-33.4,-14.33,79.89,-30.06,14.94,90.88,28.92,11.95,99.84,-33.05,28.74,80.51,-21.36,-3.87,84.02,-0.63,-11.37,103.93,-35.0,-20.46,85.41,-35.0,9.56,95.9,20.4,24.63,97.32,-35.0,30.0,70.58,-10.41,4.61,73.41,1.0,-1.0,1.0,-1.0,-1.0,1.0,-1.0,-1.0,1.0,-1.0,1.0,-0.5562,-1.0,1.0,-1.0,1.0,1.0,-1.0,0.019,0.013,0.026,0.0,0.0,0.013,0.026,0.104,0.0,0.0,0.13,0.117,0.026,0.091,0.0,0.013,0.006,0.013,-0.2286,-0.3789,0.4755,-0.5584,-0.5737,0.2056,-0.5001,-0.089,0.3344,0.5016,-0.1687,0.5277,-0.5599,0.1335,0.2148,-0.405,-0.4403,0.2884,0.2294,-0.3007,0.2816,-0.2998,-0.2966,-0.1815,-0.3105,-0.0226,0.2136,0.1567,0.251,0.2493,-0.3324,0.235,0.0814,0.0424,-0.0506,-0.1815,1.4583,-0.6039,0.3821,0.3269,-0.2415,1.0,-1.0,1.0,-1.0,-1.0,1.0,-1.0,0.4258,1.0,-1.0,1.0,-0.798,-1.0,1.0,-0.8713,1.0,1.0,-1.0,0.0,0.0,0.0,0.0,0.0,0.0,0.0,0.0,0.0,0.0133,0.0,0.0133,0.0,0
1.08,run,18.93,-5.82,4.04,11.88,-9.4,0.0,0.004,0.0,0.292,-10.63,-4.48,99.49,-34.19,-15.64,79.37,-31.55,13.8,92.11,28.21,13.27,100.28,-33.93,29.0,79.28,-20.21,-2.64,82.53,0.87,-12.87,105.43,-35.0,-21.96,86.91,-35.0,8.06,97.4,18.9,26.13,95.82,-35.0,30.0,69.08,-8.91,6.11,71.91,1.0,-1.0,1.0,-1.0,-1.0,1.0,-1.0,-0.8045,1.0,-1.0,1.0,-1.0,-1.0,1.0,-1.0,1.0,1.0,-1.0,0.019,0.013,0.026,0.0,0.0,0.013,0.026,0.104,0.0,0.0,0.13,0.117,0.026,0.091,0.0,0.013,0.006,0.013,-0.2056,-0.405,0.5016,-0.5783,-0.5998,0.1917,-0.5246,-0.1043,0.3574,0.5001,-0.1427,0.5415,-0.5783,0.1411,0.1994,-0.3743,-0.4234,0.2638,0.243,-0.3039,0.2905,-0.2813,-0.301,-0.1765,-0.3052,-0.0708,0.232,0.1042,0.2691,0.2239,-0.2986,0.192,0.002,0.1396,0.0251,-0.215,1.5262,-0.6092,0.1932,0.106,-0.1421,1.0,-1.0,1.0,-1.0,-1.0,1.0,-1.0,-1.0,1.0,-1.0,1.0,-0.5562,-1.0,1.0,-1.0,1.0,1.0,-1.0,0.0,0.0,0.0,0.0,0.0,0.0,0.0,0.0,0.0,0.0267,0.0,0.0267,0.0,0
1.12,run,19.2,-5.51,5.96,8.0,-1.13,0.0,0.006,0.0,0.292,-9.32,-5.89,100.9,-34.63,-16.96,79.28,-32.7,12.48,93.43,27.16,14.5,100.37,-34.37,29.18,78.05,-18.63,-1.23,81.12,2.37,-14.37,106.93,-35.0,-23.46,88.41,-35.0,6.56,98.9,17.4,27.63,94.32,-35.0,30.0,67.58,-7.41,7.61,70.41,1.0,-1.0,1.0,-1.0,-1.0,1.0,-1.0,-1.0,1.0,-1.0,1.0,-1.0,-1.0,1.0,-1.0,1.0,1.0,-1.0,0.045,0.006,0.026,0.0,0.0,0.026,0.013,0.052,0.006,0.033,0.208,0.026,0.019,0.033,0.006,0.0,0.006,0.013,-0.1825,-0.4295,0.5246,-0.5921,-0.6228,0.1825,-0.5507,-0.1243,0.3789,0.4878,-0.1197,0.5492,-0.5937,0.1457,0.1779,-0.3543,-0.4019,0.2378,0.2556,-0.304,0.2889,-0.2482,-0.2962,-0.1578,-0.3106,-0.1237,0.2422,0.0273,0.2739,0.1853,-0.266,0.1515,-0.0784,0.1718,0.0974,-0.2474,1.5381,-0.5756,0.0705,0.2074,-0.1641,1.0,-1.0,1.0,-1.0,-1.0,1.0,-1.0,-0.8045,1.0,-1.0,1.0,-1.0,-1.0,1.0,-1.0,1.0,1.0,-1.0,0.0,0.0,0.0,0.0,0.0,0.0,0.0,0.0,0.0,0.04,0.0,0.04,0.0,0
1.16,run,19.68,-4.97,12.88,13.45,-3.42,0.0,0.008,0.0,0.292,-8.0,-7.38,102.3,-34.8,-18.37,79.28,-33.57,10.99,94.83,25.93,15.73,100.37,-34.72,29.36,76.64,-17.05,0.18,79.8,3.87,-15.87,108.43,-35.0,-24.96,89.91,-35.0,5.06,100.4,15.9,29.13,92.82,-35.0,30.0,66.08,-5.91,9.11,68.91,1.0,-1.0,1.0,-1.0,-1.0,1.0,-1.0,-1.0,1.0,-1.0,1.0,-1.0,-1.0,1.0,-0.8446,1.0,1.0,-1.0,0.045,0.006,0.026,0.0,0.0,0.026,0.013,0.052,0.006,0.033,0.208,0.026,0.019,0.033,0.006,0.0,0.006,0.013,-0.1595,-0.4541,0.5492,-0.5998,-0.6458,0.181,-0.5706,-0.1473,0.4019,0.4694,-0.0982,0.5507,-0.6013,0.1488,0.1565,-0.3267,-0.3774,0.2132,0.2653,-0.3048,0.2943,-0.2025,-0.2937,-0.1162,-0.2922,-0.1729,0.2559,-0.0499,0.2723,0.1354,-0.215,0.1175,-0.1355,0.2239,0.1602,-0.2653,1.5624,-0.5486,0.1041,0.1396,-0.0197,1.0,-1.0,1.0,-1.0,-1.0,1.0,-1.0,-1.0,1.0,-1.0,1.0,-1.0,-1.0,1.0,-1.0,1.0,1.0,-1.0,0.0,0.0,0.0,0.0,0.0,0.0,0.0,0.0,0.0,0.0533,0.0,0.0533,0.0,0
1.2,run,19.91,-4.26,5.83,15.22,-1.41,0.0,0.01,0.0,0.292,-6.68,-8.88,103.8,-34.72,-19.69,80.07,-34.28,9.49,96.15,24.61,17.14,99.58,-34.72,29.53,75.41,-16.08,1.67,78.31,5.37,-17.37,109.93,-35.0,-26.46,91.41,-35.0,3.56,101.9,14.4,30.0,91.32,-35.0,30.0,64.58,-4.41,10.61,67.41,1.0,-1.0,1.0,-1.0,-1.0,1.0,-1.0,-1.0,1.0,-1.0,1.0,-1.0,-1.0,1.0,-0.3847,1.0,1.0,-1.0,0.045,0.006,0.026,0.0,0.0,0.026,0.013,0.052,0.006,0.033,0.208,0.026,0.019,0.033,0.006,0.0,0.006,0.013,-0.1365,-0.4801,0.5737,-0.6029,-0.6703,0.181,-0.586,-0.1733,0.4264,0.4479,-0.0767,0.5507,-0.6075,0.1519,0.1319,-0.2991,-0.3528,0.1902,0.2723,-0.3116,0.2984,-0.1533,-0.298,-0.0813,-0.2623,-0.2192,0.2715,-0.1158,0.2715,0.0948,-0.1736,0.0938,-0.1872,0.2607,0.2046,-0.2723,1.6039,-0.5013,0.2248,0.2347,-0.0598,1.0,-1.0,1.0,-1.0,-1.0,1.0,-1.0,-1.0,1.0,-1.0,1.0,-1.0,-1.0,1.0,-0.8446,1.0,1.0,-1.0,0.0,0.0,0.0,0.0,0.0,0.0,0.0,0.0,0.0,0.0667,0.0,0.0667,0.0,0
1.24,run,20.19,-3.65,8.26,14.17,-0.81,0.0,0.012,0.0,0.292,-5.36,-10.37,105.12,-34.63,-21.09,80.95,-34.54,8.09,97.56,23.38,18.46,98.61,-34.72,29.71,73.92,-14.15,3.08,76.9,6.87,-18.87,111.43,-35.0,-27.96,92.91,-35.0,2.06,103.4,12.9,30.0,89.82,-35.0,30.0,63.08,-2.91,12.11,65.91,1.0,-1.0,1.0,-1.0,-0.8754,1.0,-1.0,-1.0,1.0,-1.0,1.0,-1.0,-1.0,1.0,-0.4754,1.0,1.0,-1.0,0.052,0.006,0.019,0.006,0.0,0.071,0.006,0.045,0.006,0.065,0.221,0.0,0.013,0.033,0.006,0.0,0.006,0.013,-0.1135,-0.5062,0.5998,-0.6013,-0.6934,0.1948,-0.5983,-0.1994,0.4495,0.4249,-0.0522,0.5369,-0.6075,0.1549,0.1104,-0.2823,-0.3267,0.1641,0.2764,-0.3154,0.3061,-0.1016,-0.2944,-0.0054,-0.2294,-0.2507,0.2759,-0.1669,0.2816,0.0149,-0.1215,0.0771,-0.2112,0.2454,0.2405,-0.2879,1.6242,-0.4387,0.1018,0.2656,-0.0246,1.0,-1.0,1.0,-1.0,-1.0,1.0,-1.0,-1.0,1.0,-1.0,1.0,-1.0,-1.0,1.0,-0.3847,1.0,1.0,-1.0,0.0,0.0,0.0,0.0,0.0,0.0,0.0,0.0,0.0,0.08,0.0,0.08,0.0,0
1.28,run,20.57,-2.87,5.89,13.32,4.82,0.0,0.014,0.0,0.292,-3.6,-12.39,107.14,-34.63,-23.2,82.79,-34.63,5.89,99.58,21.53,20.3,96.68,-34.72,29.88,71.81,-12.39,5.01,74.88,8.37,-20.37,112.93,-35.0,-29.46,94.41,-35.0,0.56,104.9,11.4,30.0,88.32,-35.0,30.0,61.85,-1.41,13.61,64.41,1.0,-1.0,1.0,-1.0,-0.8014,1.0,-1.0,-1.0,1.0,-1.0,1.0,-1.0,-1.0,1.0,-0.0371,0.7186,1.0,-1.0,0.052,0.006,0.019,0.006,0.0,0.071,0.006,0.045,0.006,0.065,0.221,0.0,0.013,0.033,0.006,0.0,0.006,0.013,-0.0905,-0.5323,0.6228,-0.5998,-0.7179,0.2102,-0.6029,-0.224,0.474,0.4034,-0.0291,0.52,-0.6075,0.158,0.0844,-0.2485,-0.3022,0.1396,0.2798,-0.3186,0.3006,-0.0654,-0.2981,0.0537,-0.1778,-0.2675,0.2852,-0.1974,0.2834,-0.0529,-0.0851,0.0655,-0.2456,0.2983,0.2604,-0.2936,1.6487,-0.3858,0.1442,0.2473,-0.0142,1.0,-1.0,1.0,-1.0,-0.8754,1.0,-1.0,-1.0,1.0,-1.0,1.0,-1.0,-1.0,1.0,-0.4754,1.0,1.0,-1.0,0.0,0.0,0.0,0.0,0.0,0.0,0.0,0.0,0.0,0.0933,0.0,0.0933,0.0,0
1.32,run,20.92,-2.31,8.55,13.67,3.41,0.0,0.016,0.0,0.292,-2.2,-13.8,108.46,-34.54,-24.61,84.2,-34.72,4.57,100.81,20.21,21.53,95.27,-34.72,30.15,70.31,-10.81,6.59,73.48,9.87,-21.87,114.43,-35.0,-30.96,95.91,-33.5,-0.94,106.4,9.9,30.0,86.82,-35.0,30.0,63.35,-2.91,15.11,62.91,1.0,-1.0,1.0,-1.0,-0.7701,1.0,-0.7503,-1.0,1.0,-1.0,1.0,-1.0,-1.0,1.0,0.009,-0.6511,1.0,-1.0,0.052,0.006,0.019,0.006,0.0,0.071,0.006,0.045,0.006,0.065,0.221,0.0,0.013,0.033,0.006,0.0,0.006,0.013,-0.0598,-0.5676,0.6581,-0.5998,-0.7547,0.2424,-0.6044,-0.2623,0.5093,0.3712,0.0031,0.4863,-0.6075,0.1611,0.0476,-0.2178,-0.2684,0.1043,0.2751,-0.3141,0.3015,-0.0458,-0.3037,0.1208,-0.1284,-0.2863,0.2907,-0.2213,0.2815,-0.1241,-0.0595,0.0538,-0.267,0.288,0.2694,-0.2966,1.6813,-0.3175,0.1029,0.2326,0.0841,1.0,-1.0,1.0,-1.0,-0.8014,1.0,-1.0,-1.0,1.0,-1.0,1.0,-1.0,-1.0,1.0,-0.0371,0.7186,1.0,-1.0,0.0,0.0,0.0,0.0,0.0,0.0,0.0,0.0,0.0,0.1067,0.0,0.1067,0.0,0
1.36,run,21.16,-1.86,6.23,11.62,1.39,0.0,0.018,0.0,0.292,-0.97,-15.29,109.86,-34.54,-26.1,85.43,-34.72,3.16,101.87,18.98,22.85,94.04,-34.72,30.23,68.99,-9.49,7.91,72.07,11.37,-23.37,115.93,-35.0,-32.46,97.41,-32.0,-2.44,107.9,8.4,30.0,85.32,-35.0,30.0,61.85,-4.41,16.61,61.41,1.0,-1.0,1.0,-1.0,-0.722,1.0,-0.5784,-1.0,1.0,-1.0,1.0,-1.0,-1.0,1.0,-0.0459,-1.0,1.0,-1.0,0.182,0.0,0.033,0.013,0.0,0.091,0.013,0.045,0.026,0.169,0.292,0.0,0.006,0.013,0.013,0.006,0.006,0.013,-0.0353,-0.5921,0.6811,-0.5983,-0.7793,0.2669,-0.6059,-0.2853,0.5308,0.3482,0.0245,0.4617,-0.6075,0.1657,0.0215,-0.1902,-0.2408,0.0798,0.2838,-0.3111,0.2966,-0.0263,-0.3039,0.1758,-0.0956,-0.286,0.2834,-0.2405,0.277,-0.1782,-0.0417,0.0548,-0.2839,0.3043,0.2913,-0.2989,1.7118,-0.2694,0.1492,0.2386,0.0596,1.0,-1.0,1.0,-1.0,-0.7701,1.0,-0.7503,-1.0,1.0,-1.0,1.0,-1.0,-1.0,1.0,0.009,-0.6511,1.0,-1.0,0.0,0.0,0.0,0.0,0.0,0.0,0.0,0.0,0.0,0.12,0.0,0.12,0.0,0
1.4,run,21.71,-1.43,13.02,8.46,-3.71,0.0,0.02,0.0,0.292,0.7,-16.96,111.53,-34.63,-27.69,87.1,-34.63,1.41,103.54,17.31,24.43,92.2,-34.72,30.23,67.24,-7.73,9.67,70.4,12.87,-24.87,117.43,-35.0,-33.96,98.91,-30.5,-3.94,109.4,6.9,30.0,83.82,-35.0,30.0,63.35,-5.91,18.11,59.91,1.0,-1.0,1.0,-1.0,-0.6846,1.0,-0.3589,-1.0,1.0,-1.0,1.0,-1.0,-1.0,1.0,-0.0173,-1.0,1.0,-1.0,0.182,0.0,0.033,0.013,0.0,0.091,0.013,0.045,0.026,0.169,0.292,0.0,0.006,0.013,0.013,0.006,0.006,0.013,-0.0138,-0.6182,0.7056,-0.5983,-0.8053,0.2884,-0.6059,-0.3099,0.5492,0.3267,0.0476,0.4403,-0.6075,0.1672,-0.0015,-0.1672,-0.2178,0.0552,0.2792,-0.3156,0.2997,-0.0184,-0.3105,0.2036,-0.0669,-0.2922,0.2674,-0.2489,0.2802,-0.2053,-0.0292,0.0441,-0.285,0.2993,0.2902,-0.3013,1.7334,-0.2298,0.1087,0.2029,0.0243,1.0,-1.0,1.0,-1.0,-0.722,1.0,-0.5784,-1.0,1.0,-1.0,1.0,-1.0,-1.0,1.0,-0.0459,-1.0,1.0,-1.0,0.0,0.0,0.0,0.0,0.0,0.0,0.0,0.0,0.0,0.1333,0.0,0.1333,0.0,0
1.44,run,22.07,-1.39,9.82,1.19,-4.65,0.0,0.022,0.0,0.292,2.2,-18.46,112.85,-34.63,-29.09,88.51,-33.75,0.0,105.03,15.91,25.58,90.88,-34.72,30.23,65.83,-6.5,11.07,68.91,14.37,-26.37,118.93,-35.0,-35.46,100.41,-29.0,-5.44,110.9,5.4,30.0,82.32,-35.0,30.0,64.85,-7.41,19.61,58.41,1.0,-1.0,1.0,-1.0,-1.0,1.0,-0.0783,-1.0,1.0,-1.0,1.0,-1.0,-1.0,1.0,0.5273,-1.0,1.0,-0.6561,0.182,0.0,0.033,0.013,0.0,0.091,0.013,0.045,0.026,0.169,0.292,0.0,0.006,0.013,0.013,0.006,0.006,0.013,0.0153,-0.6473,0.7348,-0.5998,-0.833,0.3175,-0.6044,-0.3405,0.5783,0.2976,0.0752,0.408,-0.6075,0.1672,-0.0322,-0.1365,-0.1871,0.0261,0.2877,-0.3132,0.302,-0.0178,-0.3048,0.2348,-0.042,-0.3016,0.2794,-0.2665,0.2835,-0.2456,-0.0204,0.0309,-0.2966,0.3066,0.3002,-0.3031,1.7807,-0.1925,0.2272,0.1477,-0.0647,1.0,-1.0,1.0,-1.0,-0.6846,1.0,-0.3589,-1.0,1.0,-1.0,1.0,-1.0,-1.0,1.0,-0.0173,-1.0,1.0,-1.0,0.0,0.0,0.0,0.0,0.0,0.0,0.0,0.0,0.0,0.1467,0.0,0.1467,0.0,0
1.48,run,22.57,-1.36,12.62,0.67,-5.54,0.0,0.024,0.0,0.292,3.6,-19.86,114.26,-34.98,-30.5,89.91,-32.52,-1.49,106.35,14.5,26.46,89.38,-34.72,30.23,64.78,-5.54,12.48,67.5,15.87,-27.87,120.43,-33.5,-36.96,101.91,-27.5,-6.94,112.4,3.9,30.0,80.82,-35.0,30.0,66.35,-8.91,21.11,59.91,1.0,-1.0,1.0,-0.6495,-1.0,1.0,0.2826,-1.0,1.0,-1.0,1.0,-1.0,-1.0,1.0,0.3947,-1.0,1.0,0.1621,0.143,0.0,0.026,0.0,0.0,0.084,0.019,0.026,0.019,0.149,0.221,0.006,0.013,0.013,0.0,0.0,0.006,0.013,0.0414,-0.6734,0.7578,-0.5998,-0.8575,0.3421,-0.589,-0.3651,0.6044,0.273,0.0951,0.385,-0.6075,0.1672,-0.0568,-0.115,-0.1626,0.0,0.2983,-0.3161,0.2969,-0.0124,-0.3045,0.2555,0.0276,-0.3024,0.2925,-0.2777,0.2726,-0.2575,-0.0143,0.0216,-0.2988,0.2944,0.3014,-0.3091,1.8123,-0.1888,0.1713,0.0209,-0.0811,1.0,-1.0,1.0,-1.0,-1.0,1.0,-0.0783,-1.0,1.0,-1.0,1.0,-1.0,-1.0,1.0,0.5273,-1.0,1.0,-0.6561,0.0,0.0,0.0,0.0,0.0,0.0,0.0,0.0,0.0,0.16,0.0,0.16,0.0,0
1.52,run,22.87,-1.55,7.37,-4.55,-6.49,0.0,0.026,0.0,0.292,4.92,-21.18,115.66,-35.24,-31.9,91.32,-31.2,-2.9,107.75,13.01,27.07,88.07,-34.72,30.23,63.9,-4.83,13.89,66.09,17.37,-29.37,121.93,-32.0,-38.46,103.41,-26.0,-8.44,113.9,2.4,30.0,79.32,-35.0,30.0,67.85,-10.41,22.61,61.41,1.0,-1.0,1.0,0.8813,-1.0,1.0,1.0,-1.0,1.0,-1.0,1.0,-1.0,-1.0,1.0,0.3538,-1.0,1.0,1.0,0.143,0.0,0.026,0.0,0.0,0.084,0.019,0.026,0.019,0.149,0.221,0.006,0.013,0.013,0.0,0.0,0.006,0.013,0.066,-0.698,0.7823,-0.6059,-0.882,0.3666,-0.5676,-0.3912,0.6274,0.2485,0.1104,0.359,-0.6075,0.1672,-0.0752,-0.0982,-0.1381,-0.0245,0.3008,-0.3133,0.2998,-0.0317,-0.3051,0.2709,0.0998,-0.3094,0.291,-0.2864,0.2483,-0.2779,-0.01,0.0151,-0.2782,0.2693,0.3029,-0.3083,1.8558,-0.1862,0.2202,0.0117,-0.0967,1.0,-1.0,1.0,-0.6495,-1.0,1.0,0.2826,-1.0,1.0,-1.0,1.0,-1.0,-1.0,1.0,0.3947,-1.0,1.0,0.1621,0.0,0.0,0.0,0.0,0.0,0.0,0.0,0.0,0.0,0.1733,0.0,0.1733,0.0,0
1.56,run,23.25,-1.55,9.02,0.57,-3.57,0.0,0.028,0.0,0.292,6.42,-22.59,117.07,-34.8,-33.31,92.9,-29.88,-4.31,109.16,11.6,27.42,86.48,-34.72,30.23,63.28,-4.57,15.29,64.69,18.87,-30.87,123.43,-30.5,-39.96,104.91,-24.5,-9.94,115.4,0.9,30.0,77.82,-33.5,30.0,66.35,-11.91,24.11,62.91,1.0,-1.0,1.0,1.0,-1.0,1.0,1.0,-1.0,1.0,-1.0,1.0,-1.0,-0.5644,1.0,-0.0832,-1.0,1.0,1.0,0.143,0.0,0.026,0.0,0.0,0.084,0.019,0.026,0.019,0.149,0.221,0.006,0.013,0.013,0.0,0.0,0.006,0.013,0.089,-0.721,0.8069,-0.6105,-0.9066,0.3912,-0.5446,-0.4157,0.6519,0.2224,0.1212,0.3359,-0.6075,0.1672,-0.0905,-0.0859,-0.1135,-0.0491,0.2969,-0.3057,0.302,-0.0395,-0.3057,0.2817,0.1562,-0.3087,0.2958,-0.2984,0.2141,-0.2809,-0.007,0.0106,-0.2523,0.2346,0.3042,-0.308,1.8819,-0.2023,0.1286,-0.0795,-0.1132,1.0,-1.0,1.0,0.8813,-1.0,1.0,1.0,-1.0,1.0,-1.0,1.0,-1.0,-1.0,1.0,0.3538,-1.0,1.0,1.0,0.0,0.0,0.0,0.0,0.0,0.0,0.0,0.0,0.0,0.1867,0.0,0.1867,0.0,0
1.6,run,23.43,-1.43,3.42,2.59,2.83,0.0,0.03,0.0,0.292,7.82,-24.08,118.56,-34.28,-34.72,94.31,-28.56,-5.8,110.48,10.2,27.51,85.34,-34.72,30.23,63.19,-4.48,16.61,63.54,20.37,-32.37,124.93,-29.0,-41.46,106.41,-23.0,-11.44,116.9,-0.6,30.0,76.32,-32.0,30.0,64.85,-13.41,25.61,64.41,1.0,-1.0,1.0,1.0,-1.0,1.0,1.0,-1.0,1.0,-1.0,1.0,-1.0,-0.1705,1.0,-0.2484,-1.0,1.0,1.0,0.175,0.0,0.033,0.045,0.0,0.104,0.019,0.026,0.039,0.13,0.175,0.0,0.006,0.006,0.006,0.013,0.019,0.006,0.115,-0.7455,0.8314,-0.6029,-0.9311,0.4188,-0.5216,-0.4403,0.6765,0.1979,0.1273,0.3083,-0.6075,0.1672,-0.1012,-0.0813,-0.089,-0.0736,0.3055,-0.3059,0.3033,0.0011,-0.306,0.3006,0.1956,-0.308,0.299,-0.3008,0.1729,-0.3001,-0.0049,0.0074,-0.2168,0.1815,0.3049,-0.3075,1.9152,-0.2024,0.1575,0.0099,-0.0623,1.0,-1.0,1.0,1.0,-1.0,1.0,1.0,-1.0,1.0,-1.0,1.0,-1.0,-0.5644,1.0,-0.0832,-1.0,1.0,1.0,0.0,0.0,0.0,0.0,0.0,0.0,0.0,0.0,0.0,0.2,0.0,0.2,0.0,0
1.64,run,23.48,-1.17,0.25,6.5,8.26,0.0,0.032,0.0,0.292,9.32,-25.49,119.88,-33.22,-36.04,95.8,-27.16,-7.29,111.88,8.96,27.51,83.85,-34.28,30.23,63.28,-5.19,17.75,62.67,21.87,-33.87,126.43,-27.5,-42.96,107.91,-21.5,-12.94,118.4,-2.1,30.0,74.82,-30.5,30.0,63.35,-14.91,27.11,65.91,1.0,-1.0,1.0,1.0,-1.0,1.0,1.0,-1.0,1.0,-1.0,1.0,-1.0,0.2019,1.0,-0.7378,-1.0,1.0,1.0,0.175,0.0,0.033,0.045,0.0,0.104,0.019,0.026,0.039,0.13,0.175,0.0,0.006,0.006,0.006,0.013,0.019,0.006,0.1396,-0.7716,0.8575,-0.5937,-0.9557,0.4433,-0.4985,-0.4663,0.6995,0.1733,0.1289,0.2884,-0.6075,0.1672,-0.1028,-0.0798,-0.066,-0.0936,0.3055,-0.3115,0.3097,0.0351,-0.3058,0.3021,0.2228,-0.313,0.2952,-0.3022,0.1267,-0.2845,-0.0034,0.0052,-0.1575,0.1328,0.2993,-0.2897,1.931,-0.1918,0.0597,0.0452,0.0495,1.0,-1.0,1.0,1.0,-1.0,1.0,1.0,-1.0,1.0,-1.0,1.0,-1.0,-0.1705,1.0,-0.2484,-1.0,1.0,1.0,0.0,0.0,0.0,0.0,0.0,0.0,0.0,0.0,0.0,0.2133,0.0,0.2133,0.0,0
1.68,run,23.53,-1.06,1.48,2.71,15.27,0.0,0.034,0.0,0.292,10.72,-26.98,121.29,-32.08,-37.44,97.12,-25.75,-8.61,113.29,7.65,27.6,82.44,-33.31,30.23,63.98,-5.98,19.42,62.05,23.37,-35.37,127.36,-26.0,-44.46,109.41,-20.0,-14.44,119.9,-3.6,30.0,73.32,-29.0,30.0,61.85,-16.41,28.61,67.41,1.0,-1.0,0.7336,1.0,-1.0,1.0,1.0,-1.0,1.0,-1.0,1.0,-1.0,0.4523,1.0,-1.0,-1.0,1.0,1.0,0.175,0.0,0.033,0.045,0.0,0.104,0.019,0.026,0.039,0.13,0.175,0.0,0.006,0.006,0.006,0.013,0.019,0.006,0.1657,-0.7961,0.8805,-0.5752,-0.9787,0.4694,-0.474,-0.4924,0.724,0.1519,0.1289,0.2623,-0.5998,0.1672,-0.1012,-0.092,-0.046,-0.1089,0.3117,-0.3102,0.3031,0.0937,-0.3004,0.3093,0.2481,-0.317,0.2988,-0.2921,0.0887,-0.297,0.0264,0.0036,-0.1045,0.0469,0.2844,-0.2604,1.9357,-0.1695,0.0044,0.1135,0.1442,1.0,-1.0,1.0,1.0,-1.0,1.0,1.0,-1.0,1.0,-1.0,1.0,-1.0,0.2019,1.0,-0.7378,-1.0,1.0,1.0,0.0,0.0,0.0,0.0,0.0,0.0,0.0,0.0,0.0,0.2267,0.0,0.2267,0.0,0
1.72,run,23.89,-1.15,7.44,0.42,17.06,0.0,0.036,0.0,0.292,12.13,-28.3,122.61,-30.67,-38.94,98.61,-24.35,-10.11,114.7,6.24,27.6,81.12,-32.17,30.23,64.16,-7.12,21.27,61.7,24.87,-36.87,125.86,-24.5,-45.96,110.91,-18.5,-15.94,121.4,-5.1,30.0,71.82,-27.5,30.0,60.35,-17.91,30.0,68.91,1.0,-1.0,0.3408,1.0,-1.0,1.0,1.0,-1.0,1.0,-1.0,1.0,-1.0,0.8762,1.0,-1.0,-1.0,1.0,1.0,0.117,0.0,0.033,0.039,0.0,0.084,0.013,0.026,0.033,0.156,0.117,0.0,0.019,0.006,0.006,0.019,0.013,0.006,0.1902,-0.8222,0.905,-0.5553,-1.0032,0.4924,-0.4495,-0.5154,0.7486,0.1289,0.1304,0.2378,-0.5829,0.1672,-0.089,-0.1058,-0.0169,-0.1197,0.3103,-0.315,0.3043,0.1404,-0.3024,0.3029,0.2657,-0.3082,0.3012,-0.2908,0.0679,-0.3,0.0818,0.0025,-0.0271,-0.019,0.3084,-0.2225,1.9401,-0.1601,0.0259,0.0472,0.2665,1.0,-1.0,0.7336,1.0,-1.0,1.0,1.0,-1.0,1.0,-1.0,1.0,-1.0,0.4523,1.0,-1.0,-1.0,1.0,1.0,0.0,0.0,0.0,0.0,0.0,0.0,0.0,0.0,0.0,0.24,0.0,0.24,0.0,0
1.76,run,24.05,-1.31,5.77,-5.05,13.68,0.0,0.038,0.0,0.292,13.62,-29.62,123.84,-29.18,-40.34,99.93,-22.94,-11.51,116.1,4.75,27.95,79.72,-30.85,30.23,63.98,-8.44,22.32,61.7,26.37,-38.37,124.36,-23.0,-47.46,112.41,-17.0,-17.44,122.9,-6.6,30.0,70.32,-26.0,30.0,58.85,-19.41,30.0,70.41,1.0,-1.0,0.1506,1.0,-1.0,1.0,1.0,-1.0,1.0,-1.0,1.0,-1.0,1.0,1.0,-1.0,-1.0,1.0,1.0,0.117,0.0,0.033,0.039,0.0,0.084,0.013,0.026,0.033,0.156,0.117,0.0,0.019,0.006,0.006,0.019,0.013,0.006,0.2148,-0.8452,0.9281,-0.5308,-1.0293,0.5185,-0.4249,-0.5415,0.7731,0.1043,0.1304,0.2148,-0.563,0.1672,-0.0859,-0.1258,0.0153,-0.1258,0.3091,-0.3067,0.2992,0.1902,-0.3093,0.3097,0.278,-0.3134,0.3028,-0.2955,0.0475,-0.2962,0.1319,0.0018,-0.0075,-0.088,0.3365,-0.1788,1.9714,-0.1678,0.1298,0.0073,0.2977,1.0,-1.0,0.3408,1.0,-1.0,1.0,1.0,-1.0,1.0,-1.0,1.0,-1.0,0.8762,1.0,-1.0,-1.0,1.0,1.0,0.0,0.0,0.0,0.0,0.0,0.0,0.0,0.0,0.0,0.2533,0.0,0.2533,0.0,0
1.8,run,24.26,-1.48,6.15,-4.97,4.87,0.0,0.04,0.0,0.292,15.03,-30.94,124.8,-27.77,-41.75,101.43,-21.62,-12.92,117.42,3.34,27.95,78.31,-29.44,30.23,63.11,-9.93,23.47,61.79,27.87,-39.87,122.86,-21.5,-48.96,113.91,-15.5,-18.94,121.4,-8.1,30.0,68.82,-24.5,30.0,57.35,-20.91,30.0,71.91,1.0,-1.0,0.1486,1.0,-1.0,1.0,1.0,-1.0,0.6003,-1.0,1.0,-1.0,1.0,1.0,-1.0,-1.0,1.0,1.0,0.117,0.0,0.033,0.039,0.0,0.084,0.013,0.026,0.033,0.156,0.117,0.0,0.019,0.006,0.006,0.019,0.013,0.006,0.2408,-0.8682,0.9495,-0.5047,-1.0538,0.5415,-0.4004,-0.566,0.7977,0.0782,0.1365,0.1902,-0.54,0.1672,-0.089,-0.1488,0.0337,-0.1258,0.3143,-0.301,0.2901,0.231,-0.3087,0.3032,0.2867,-0.3115,0.3041,-0.3047,0.0563,-0.2995,0.1787,0.0012,-0.0168,-0.148,0.3047,-0.1251,1.9853,-0.1814,0.1007,-0.0881,0.2388,1.0,-1.0,0.1506,1.0,-1.0,1.0,1.0,-1.0,1.0,-1.0,1.0,-1.0,1.0,1.0,-1.0,-1.0,1.0,1.0,0.0,0.0,0.0,0.0,0.0,0.0,0.0,0.0,0.0,0.2667,0.0,0.2667,0.0,0
1.84,run,24.14,-1.59,-2.33,-1.61,1.6,0.0,0.042,0.0,0.292,16.44,-32.43,125.6,-26.37,-43.24,102.92,-20.21,-14.33,118.74,1.85,28.04,76.99,-28.04,30.23,62.23,-11.34,25.05,62.84,29.37,-41.37,121.36,-20.0,-50.46,115.41,-14.0,-20.44,119.9,-9.6,30.0,67.32,-23.0,30.0,55.85,-22.41,30.0,73.41,1.0,-1.0,0.2303,1.0,-1.0,0.7984,1.0,-1.0,0.1546,-1.0,1.0,-1.0,1.0,1.0,-0.9481,-1.0,1.0,1.0,0.091,0.006,0.039,0.045,0.0,0.078,0.013,0.026,0.026,0.175,0.091,0.0,0.013,0.006,0.019,0.013,0.013,0.006,0.2654,-0.8912,0.9664,-0.4801,-1.0784,0.5676,-0.3774,-0.5906,0.8207,0.0537,0.1365,0.1657,-0.5154,0.1672,-0.1043,-0.1749,0.0537,-0.1243,0.312,-0.297,0.2663,0.2537,-0.3081,0.3099,0.2869,-0.3101,0.2991,-0.3053,0.0394,-0.3016,0.2171,0.0009,-0.0692,-0.2013,0.288,-0.0818,2.0039,-0.1962,0.1074,-0.0867,0.0849,1.0,-1.0,0.1486,1.0,-1.0,1.0,1.0,-1.0,0.6003,-1.0,1.0,-1.0,1.0,1.0,-1.0,-1.0,1.0,1.0,0.0,0.0,0.0,0.0,0.0,0.0,0.0,0.0,0.0,0.28,0.0,0.28,0.0,0
1.88,run,23.9,-1.42,-7.08,3.46,-1.08,0.0,0.044,0.0,0.292,17.93,-33.84,125.95,-25.05,-44.56,104.33,-18.72,-15.82,119.71,0.53,28.04,75.59,-26.63,30.23,61.0,-12.74,26.54,64.07,30.87,-42.87,119.86,-18.5,-51.96,116.91,-12.5,-21.94,118.4,-11.1,30.0,65.82,-21.5,30.0,54.35,-23.91,30.0,74.91,1.0,-1.0,0.1745,1.0,-1.0,0.9764,1.0,-1.0,-0.1538,-1.0,1.0,-1.0,1.0,1.0,-0.7693,-1.0,1.0,1.0,0.091,0.006,0.039,0.045,0.0,0.078,0.013,0.026,0.026,0.175,0.091,0.0,0.013,0.006,0.019,0.013,0.013,0.006,0.2899,-0.9173,0.9802,-0.4556,-1.1045,0.5937,-0.3528,-0.6151,0.8437,0.0276,0.1381,0.1427,-0.4909,0.1672,-0.1197,-0.1994,0.0813,-0.1058,0.3105,-0.3057,0.2382,0.2697,-0.3135,0.3148,0.293,-0.3091,0.2957,-0.3116,0.0333,-0.2975,0.2441,0.0006,-0.106,-0.233,0.3052,0.0118,1.9934,-0.2062,-0.0406,-0.0282,0.0279,1.0,-1.0,0.2303,1.0,-1.0,0.7984,1.0,-1.0,0.1546,-1.0,1.0,-1.0,1.0,1.0,-0.9481,-1.0,1.0,1.0,0.0,0.0,0.0,0.0,0.0,0.0,0.0,0.0,0.0,0.2933,0.0,0.2933,0.0,0
1.92,run,23.6,-1.44,-7.92,0.18,-0.66,0.0,0.046,0.0,0.292,19.34,-35.24,126.04,-23.64,-45.88,105.82,-17.31,-17.23,120.5,-0.88,28.04,74.18,-25.22,30.23,59.5,-14.15,27.69,65.48,32.37,-44.37,118.36,-17.0,-53.46,118.41,-11.0,-23.44,116.9,-12.6,28.5,64.32,-20.0,30.0,52.85,-25.41,30.0,76.41,1.0,-1.0,-0.006,1.0,-1.0,1.0,1.0,-1.0,-0.5191,-1.0,0.25,-1.0,1.0,1.0,-0.4331,-1.0,1.0,1.0,0.091,0.006,0.039,0.045,0.0,0.078,0.013,0.026,0.026,0.175,0.091,0.0,0.013,0.006,0.019,0.013,0.013,0.006,0.316,-0.9419,0.9863,-0.4326,-1.1275,0.6182,-0.3267,-0.6412,0.8606,0.0046,0.1381,0.1181,-0.4663,0.1672,-0.1411,-0.224,0.1074,-0.0844,0.3151,-0.306,0.1897,0.275,-0.3057,0.3123,0.3028,-0.3141,0.2702,-0.3043,0.0233,-0.3002,0.2628,0.0004,-0.1547,-0.2551,0.3114,0.0887,1.9718,-0.1916,-0.1236,0.0604,-0.0189,1.0,-1.0,0.1745,1.0,-1.0,0.9764,1.0,-1.0,-0.1538,-1.0,1.0,-1.0,1.0,1.0,-0.7693,-1.0,1.0,1.0,0.0,0.0,0.0,0.0,0.0,0.0,0.0,0.0,0.0,0.3067,0.0,0.3067,0.0,0
1.96,run,23.6,-1.67,-0.65,-5.78,1.43,0.0,0.048,0.0,0.292,20.83,-36.56,126.04,-22.15,-47.29,107.23,-15.91,-18.63,121.11,-2.37,28.04,72.69,-23.82,30.23,58.18,-15.64,28.48,66.88,33.87,-45.87,116.86,-15.5,-54.96,119.91,-9.5,-24.94,115.4,-14.1,27.0,62.82,-18.5,30.0,52.05,-26.91,30.0,77.91,1.0,-1.0,-0.0975,1.0,-1.0,1.0,1.0,-1.0,-1.0,-1.0,-0.9207,-0.6701,1.0,1.0,-0.1524,-1.0,1.0,1.0,0.058,0.006,0.0,0.033,0.0,0.071,0.019,0.019,0.013,0.143,0.033,0.0,0.006,0.006,0.013,0.013,0.013,0.013,0.3405,-0.9664,0.9879,-0.408,-1.1505,0.6443,-0.3022,-0.6657,0.8744,-0.0199,0.1381,0.0936,-0.4418,0.1672,-0.1672,-0.2485,0.1273,-0.0598,0.3126,-0.3062,0.1386,0.2846,-0.3003,0.3164,0.304,-0.3119,0.2409,-0.3051,0.0163,-0.3022,0.276,0.0003,-0.2061,-0.2706,0.2928,0.1542,1.9462,-0.1932,-0.1383,0.0031,-0.0115,1.0,-1.0,-0.006,1.0,-1.0,1.0,1.0,-1.0,-0.5191,-1.0,0.25,-1.0,1.0,1.0,-0.4331,-1.0,1.0,1.0,0.0,0.0,0.0,0.0,0.0,0.0,0.0,0.0,0.0,0.32,0.0,0.32,0.0,0
2.0,run,23.64,-1.99,1.82,-8.33,0.59,0.0,0.05,0.0,0.292,22.24,-37.88,125.77,-20.65,-48.69,108.63,-14.5,-20.04,121.29,-3.87,28.04,71.28,-22.41,30.23,56.69,-17.05,29.09,68.29,35.0,-47.37,115.36,-14.0,-56.46,121.41,-8.0,-26.44,113.9,-15.6,25.5,64.32,-17.0,30.0,53.35,-28.41,30.0,79.41,1.0,-1.0,-0.2046,1.0,-1.0,1.0,1.0,-1.0,-1.0,-1.0,-1.0,0.3897,1.0,1.0,-0.137,-1.0,1.0,1.0,0.058,0.006,0.0,0.033,0.0,0.071,0.019,0.019,0.013,0.143,0.033,0.0,0.006,0.006,0.013,0.013,0.013,0.013,0.3666,-0.9894,0.9879,-0.382,-1.175,0.6688,-0.2777,-0.6903,0.8851,-0.046,0.1381,0.0675,-0.4172,0.1672,-0.1902,-0.2746,0.1411,-0.0353,0.3166,-0.3007,0.097,0.297,-0.3023,0.3136,0.3049,-0.3104,0.2089,-0.3114,0.0114,-0.3094,0.2853,0.0002,-0.2306,-0.2872,0.2567,0.2,1.9457,-0.2134,-0.0113,-0.1009,0.025,1.0,-1.0,-0.0975,1.0,-1.0,1.0,1.0,-1.0,-1.0,-1.0,-0.9207,-0.6701,1.0,1.0,-0.1524,-1.0,1.0,1.0,0.0,0.0,0.0,0.0,0.0,0.0,0.0,0.0,0.0,0.3333,0.0,0.3333,0.0,0
2.04,run,23.61,-1.97,-1.72,-2.51,-3.86,0.0,0.05,0.0,0.292,23.82,-39.2,125.07,-19.25,-50.1,110.13,-13.1,-21.45,121.29,-5.36,27.77,69.87,-21.09,30.23,55.28,-18.54,29.44,69.7,35.0,-48.87,113.86,-12.5,-57.96,122.91,-6.5,-27.94,112.4,-17.1,24.0,65.82,-15.5,30.0,54.85,-29.91,30.0,80.91,1.0,-1.0,-0.0188,1.0,-1.0,1.0,1.0,-1.0,-1.0,-1.0,-1.0,0.6239,1.0,1.0,-0.1057,-1.0,1.0,1.0,0.058,0.006,0.0,0.033,0.0,0.071,0.019,0.019,0.013,0.143,0.033,0.0,0.006,0.006,0.013,0.013,0.013,0.013,0.3912,-1.0124,0.9833,-0.3559,-1.1996,0.6934,-0.2531,-0.7148,0.8882,-0.0721,0.1381,0.043,-0.3927,0.1672,-0.2163,-0.2991,0.1519,-0.0107,0.3136,-0.2967,0.0506,0.3057,-0.3036,0.3115,0.3054,-0.3093,0.1578,-0.3157,0.008,-0.3085,0.2917,0.0001,-0.2592,-0.2931,0.22,0.232,1.9499,-0.2409,0.0317,-0.1454,0.0103,1.0,-1.0,-0.2046,1.0,-1.0,1.0,1.0,-1.0,-1.0,-1.0,-1.0,0.3897,1.0,1.0,-0.137,-1.0,1.0,1.0,0.0,0.0,0.0,0.0,0.0,0.0,0.0,0.0,0.0,0.3333,0.0,0.3333,0.0,0
2.08,run,23.37,-2.02,-7.07,-3.84,-3.53,0.0,0.05,0.0,0.292,25.22,-40.25,123.84,-17.75,-51.5,111.62,-11.69,-22.85,120.94,-6.77,26.81,68.55,-19.6,30.23,54.32,-19.95,29.44,71.02,35.0,-50.37,112.36,-11.0,-59.46,124.41,-5.0,-29.44,110.9,-18.6,22.5,67.32,-14.0,30.0,55.95,-31.41,28.5,82.41,1.0,-0.6695,-0.1693,1.0,-1.0,1.0,1.0,-1.0,-1.0,-1.0,-1.0,1.0,1.0,1.0,-0.1064,-1.0,0.9465,1.0,0.078,0.019,0.013,0.045,0.0,0.052,0.013,0.026,0.013,0.169,0.0,0.0,0.013,0.006,0.013,0.013,0.0,0.026,0.4188,-1.0354,0.971,-0.3313,-1.2241,0.7194,-0.2286,-0.7394,0.8882,-0.0982,0.1335,0.0184,-0.3697,0.1672,-0.2408,-0.3252,0.158,0.0138,0.3231,-0.294,-0.0106,0.306,-0.3045,0.3158,0.3058,-0.3085,0.1104,-0.3188,-0.0117,-0.308,0.2905,0.0001,-0.2734,-0.3029,0.177,0.2544,1.9467,-0.2394,-0.0301,-0.0439,-0.0674,1.0,-1.0,-0.0188,1.0,-1.0,1.0,1.0,-1.0,-1.0,-1.0,-1.0,0.6239,1.0,1.0,-0.1057,-1.0,1.0,1.0,0.0,0.0,0.0,0.0,0.0,0.0,0.0,0.0,0.0,0.3333,0.0,0.3333,0.0,0
2.12,run,22.44,-2.28,-6.31,-1.58,-19.89,0.0,0.05,0.0,0.292,30.41,-45.62,119.18,-13.1,-56.43,116.98,-6.94,-27.6,117.07,-11.78,23.03,65.83,-15.21,30.23,53.09,-25.05,28.48,76.11,35.0,-48.87,110.86,-9.5,-60.96,125.91,-3.5,-30.55,109.4,-20.1,21.0,68.82,-12.5,30.0,54.45,-32.91,27.0,83.91,1.0,-0.2598,-0.1331,1.0,-1.0,0.8771,0.9469,-0.101,-1.0,-1.0,-1.0,1.0,1.0,1.0,-0.187,-1.0,0.7572,1.0,0.065,0.013,0.026,0.019,0.006,0.039,0.006,0.026,0.039,0.13,0.0,0.0,0.013,0.006,0.013,0.013,0.0,0.026,0.4433,-1.0538,0.9495,-0.3053,-1.2487,0.7455,-0.204,-0.7639,0.882,-0.1227,0.1166,-0.0046,-0.3436,0.1672,-0.2577,-0.3497,0.158,0.0368,0.3182,-0.2748,-0.0879,0.3119,-0.3052,0.3188,0.3061,-0.308,0.0543,-0.3151,-0.0714,-0.3019,0.3011,0.0001,-0.2547,-0.304,0.1239,0.2643,1.9255,-0.2439,-0.1234,-0.0669,-0.0616,1.0,-0.6695,-0.1693,1.0,-1.0,1.0,1.0,-1.0,-1.0,-1.0,-1.0,1.0,1.0,1.0,-0.1064,-1.0,0.9465,1.0,0.0,0.0,0.0,0.0,0.0,0.0,0.0,0.0,0.0,0.3333,0.0,0.3333,0.0,0
2.16,run,22.25,-2.03,-3.1,6.46,-34.14,0.0,0.05,0.0,0.292,31.9,-47.46,117.86,-12.3,-57.66,118.48,-6.06,-28.39,115.93,-13.27,22.5,65.83,-14.5,30.23,53.44,-26.54,28.39,77.43,33.89,-47.37,109.36,-8.0,-62.46,127.08,-2.0,-29.05,107.9,-21.6,19.5,70.32,-11.0,30.0,52.95,-34.41,25.5,85.41,0.9683,1.0,-0.3924,1.0,-1.0,0.7304,0.1447,1.0,-1.0,-1.0,-1.0,1.0,1.0,1.0,-1.0,-1.0,0.3159,1.0,0.065,0.013,0.026,0.019,0.006,0.039,0.006,0.026,0.039,0.13,0.0,0.0,0.013,0.006,0.013,0.013,0.0,0.026,0.5338,-1.1474,0.8682,-0.224,-1.3346,0.8391,-0.1212,-0.8468,0.8145,-0.2102,0.0506,-0.0522,-0.2669,0.1672,-0.2792,-0.4387,0.1411,0.1258,0.3173,-0.2902,-0.1465,0.3034,-0.3034,0.321,0.3008,-0.3022,-0.0325,-0.312,-0.1189,-0.261,0.2909,0.0001,-0.2007,-0.3058,0.0691,0.278,1.8452,-0.2667,-0.1102,-0.0275,-0.3472,1.0,-0.2598,-0.1331,1.0,-1.0,0.8771,0.9469,-0.101,-1.0,-1.0,-1.0,1.0,1.0,1.0,-0.187,-1.0,0.7572,1.0,0.0,0.0,0.0,0.0,0.0,0.0,0.0,0.0,0.0,0.3333,0.0,0.3333,0.0,0
2.2,run,21.63,-1.82,-15.06,4.46,-20.36,0.0,0.05,0.0,0.292,33.05,-48.52,116.46,-11.34,-58.89,119.88,-5.19,-29.27,114.61,-15.03,21.8,66.09,-13.45,30.23,54.32,-28.04,27.77,78.84,32.39,-45.87,107.86,-6.5,-63.96,125.58,-2.99,-27.55,106.4,-23.1,18.0,71.82,-9.5,30.0,51.45,-35.0,24.0,86.91,-0.1437,1.0,-0.6066,1.0,-1.0,0.5453,-0.0854,1.0,-1.0,-1.0,-1.0,1.0,1.0,1.0,-1.0,-1.0,0.221,1.0,0.065,0.013,0.026,0.019,0.006,0.039,0.006,0.026,0.039,0.13,0.0,0.0,0.013,0.006,0.013,0.013,0.0,0.026,0.5599,-1.1796,0.8452,-0.2102,-1.356,0.8652,-0.1058,-0.8606,0.7946,-0.2362,0.0414,-0.0522,-0.2546,0.1672,-0.273,-0.4648,0.1396,0.1488,0.3186,-0.3223,-0.1877,0.2634,-0.2918,0.3212,0.2673,-0.2626,-0.0965,-0.3149,-0.1173,-0.1827,0.249,0.0,-0.1178,-0.3105,0.0427,0.2797,1.8281,-0.2442,-0.0541,0.1128,-0.5959,0.9683,1.0,-0.3924,1.0,-1.0,0.7304,0.1447,1.0,-1.0,-1.0,-1.0,1.0,1.0,1.0,-1.0,-1.0,0.3159,1.0,0.0,0.0,0.0,0.0,0.0,0.0,0.0,0.0,0.0,0.3333,0.0,0.3333,0.0,0
2.24,run,21.85,-1.23,4.77,14.44,-26.63,0.0,0.05,0.0,0.292,33.84,-49.39,114.87,-10.11,-60.29,121.38,-4.13,-29.88,113.29,-16.35,20.83,66.8,-12.3,30.23,54.32,-29.62,26.98,80.16,30.89,-44.37,106.36,-5.0,-65.46,127.08,-1.49,-26.05,104.9,-24.6,16.5,73.32,-8.0,30.0,49.95,-35.0,22.5,88.41,-1.0,1.0,-0.8443,1.0,-1.0,1.0,0.6067,1.0,-1.0,-1.0,-1.0,1.0,1.0,1.0,-1.0,-1.0,-0.3661,1.0,0.019,0.0,0.026,0.033,0.006,0.033,0.006,0.019,0.071,0.13,0.006,0.039,0.013,0.006,0.006,0.013,0.0,0.039,0.5798,-1.198,0.8207,-0.1933,-1.3775,0.8897,-0.0905,-0.8759,0.7716,-0.2669,0.0291,-0.0476,-0.2362,0.1672,-0.2577,-0.4909,0.1289,0.1733,0.2978,-0.2946,-0.2234,0.2476,-0.2848,0.3168,0.2446,-0.2413,-0.1538,-0.3354,-0.1281,-0.1106,0.2433,0.0,-0.025,-0.3151,-0.0104,0.2878,1.7744,-0.2259,-0.2629,0.0779,-0.3554,-0.1437,1.0,-0.6066,1.0,-1.0,0.5453,-0.0854,1.0,-1.0,-1.0,-1.0,1.0,1.0,1.0,-1.0,-1.0,0.221,1.0,0.0,0.0,0.0,0.0,0.0,0.0,0.0,0.0,0.0,0.3333,0.0,0.3333,0.0,0
2.28,run,21.49,-1.16,-9.32,0.96,-15.48,0.0,0.05,0.0,0.292,34.28,-50.01,113.55,-8.88,-61.61,122.78,-3.16,-30.15,111.97,-17.93,19.78,67.94,-10.9,30.23,54.32,-30.76,26.1,81.47,29.39,-42.87,104.86,-3.5,-66.96,125.58,-2.99,-24.55,103.4,-26.1,15.0,74.82,-6.5,30.0,48.45,-35.0,21.0,89.91,0.4014,1.0,-0.3961,1.0,-1.0,-1.0,-0.7806,0.4818,-1.0,-1.0,-1.0,1.0,1.0,1.0,-1.0,-1.0,0.1729,1.0,0.019,0.0,0.026,0.033,0.006,0.033,0.006,0.019,0.071,0.13,0.006,0.039,0.013,0.006,0.006,0.013,0.0,0.039,0.5937,-1.2134,0.7931,-0.1718,-1.4021,0.9158,-0.0721,-0.8866,0.7486,-0.2899,0.0123,-0.0353,-0.2163,0.1672,-0.2577,-0.5185,0.115,0.1963,0.2602,-0.2637,-0.2599,0.2539,-0.2914,0.3196,0.2403,-0.2092,-0.194,-0.3211,-0.153,-0.0314,0.2451,0.0,-0.0175,-0.3241,-0.059,0.2878,1.793,-0.1746,0.0833,0.252,-0.4648,-1.0,1.0,-0.8443,1.0,-1.0,1.0,0.6067,1.0,-1.0,-1.0,-1.0,1.0,1.0,1.0,-1.0,-1.0,-0.3661,1.0,0.0,0.0,0.0,0.0,0.0,0.0,0.0,0.0,0.0,0.3333,0.0,0.3333,0.0,0
2.32,run,21.17,-0.33,-7.05,17.51,-16.56,0.0,0.05,0.0,0.292,34.54,-50.27,112.06,-7.47,-62.93,124.19,-2.46,-30.15,110.65,-19.34,18.46,69.26,-9.67,30.32,53.26,-32.34,24.79,82.97,27.89,-41.37,103.36,-2.0,-68.46,127.08,-4.49,-23.05,101.9,-27.6,13.5,76.32,-5.0,30.0,46.95,-35.0,19.5,91.41,-0.6264,1.0,-0.6603,1.0,-1.0,1.0,-0.2286,1.0,-1.0,-1.0,-1.0,1.0,1.0,1.0,-1.0,-1.0,-1.0,0.6388,0.019,0.0,0.026,0.033,0.006,0.033,0.006,0.019,0.071,0.13,0.006,0.039,0.013,0.006,0.006,0.013,0.0,0.039,0.6013,-1.2241,0.7701,-0.1503,-1.4251,0.9403,-0.0552,-0.8912,0.7256,-0.3175,-0.0061,-0.0153,-0.1917,0.1672,-0.2577,-0.5384,0.0997,0.2194,0.2109,-0.2249,-0.2683,0.2584,-0.2904,0.3159,0.2316,-0.1637,-0.2222,-0.3284,-0.1762,0.0529,0.2638,0.0,-0.0122,-0.3018,-0.0989,0.2878,1.7615,-0.1683,-0.1627,0.0167,-0.2701,0.4014,1.0,-0.3961,1.0,-1.0,-1.0,-0.7806,0.4818,-1.0,-1.0,-1.0,1.0,1.0,1.0,-1.0,-1.0,0.1729,1.0,0.0,0.0,0.0,0.0,0.0,0.0,0.0,0.0,0.0,0.3333,0.0,0.3333,0.0,0
2.36,run,20.58,-0.39,-12.75,-4.61,-18.42,0.0,0.05,0.0,0.292,34.19,-50.27,110.65,-6.15,-64.34,125.33,-1.93,-29.62,109.34,-20.83,17.14,70.75,-8.26,30.32,52.29,-33.49,23.38,84.38,29.39,-39.87,101.86,-3.5,-69.96,125.58,-5.99,-21.55,100.4,-29.1,12.0,77.82,-3.5,30.0,45.45,-35.0,18.0,89.91,1.0,1.0,-0.4567,-0.3763,-1.0,-0.632,-1.0,0.1812,-1.0,-1.0,-1.0,1.0,1.0,1.0,-1.0,-1.0,-0.8144,-0.1808,0.0,0.026,0.026,0.013,0.006,0.006,0.0,0.013,0.078,0.045,0.0,0.026,0.013,0.013,0.026,0.0,0.0,0.039,0.6059,-1.2287,0.744,-0.1258,-1.4481,0.9649,-0.043,-0.8912,0.7026,-0.3421,-0.0291,0.0077,-0.1703,0.1687,-0.2761,-0.566,0.0767,0.2454,0.1649,-0.1747,-0.2855,0.2728,-0.2895,0.3131,0.2081,-0.1146,-0.2417,-0.3219,-0.2095,0.1232,0.2651,0.0058,-0.0775,-0.3147,-0.1555,0.2992,1.7342,-0.0957,-0.123,0.3056,-0.2891,-0.6264,1.0,-0.6603,1.0,-1.0,1.0,-0.2286,1.0,-1.0,-1.0,-1.0,1.0,1.0,1.0,-1.0,-1.0,-1.0,0.6388,0.0,0.0,0.0,0.0,0.0,0.0,0.0,0.0,0.0,0.3333,0.0,0.3333,0.0,0
2.4,run,20.23,0.03,-10.78,8.31,-10.12,0.0,0.05,0.0,0.292,33.57,-50.01,109.34,-4.83,-65.65,126.21,-1.93,-28.83,108.02,-22.24,15.73,72.16,-6.86,30.32,50.98,-34.37,21.97,85.69,30.89,-38.37,103.36,-5.0,-71.46,124.08,-7.49,-20.05,98.9,-30.6,10.5,79.32,-2.0,30.0,43.95,-35.0,16.5,88.41,1.0,1.0,0.9659,-1.0,-1.0,0.049,-1.0,1.0,-1.0,-1.0,-1.0,1.0,0.6265,1.0,-1.0,-1.0,-1.0,-1.0,0.0,0.026,0.026,0.013,0.006,0.006,0.0,0.013,0.078,0.045,0.0,0.026,0.013,0.013,0.026,0.0,0.0,0.039,0.5998,-1.2287,0.7194,-0.1028,-1.4726,0.9848,-0.0337,-0.882,0.6796,-0.3682,-0.0522,0.0337,-0.1457,0.1687,-0.293,-0.586,0.0522,0.27,0.0924,-0.1223,-0.292,0.2773,-0.2947,0.294,0.1802,-0.0457,-0.2556,-0.3231,-0.233,0.1841,0.2776,0.004,-0.1176,-0.2951,-0.2009,0.3015,1.6828,-0.1015,-0.2225,-0.0805,-0.3214,1.0,1.0,-0.4567,-0.3763,-1.0,-0.632,-1.0,0.1812,-1.0,-1.0,-1.0,1.0,1.0,1.0,-1.0,-1.0,-0.8144,-0.1808,0.0,0.0,0.0,0.0,0.0,0.0,0.0,0.0,0.0,0.3333,0.0,0.3333,0.0,0
2.44,run,19.93,0.11,-8.75,-0.58,-0.2,0.0,0.05,0.0,0.292,32.52,-49.22,107.93,-3.69,-66.53,126.74,-2.02,-27.6,106.61,-23.55,14.33,73.56,-5.54,30.32,49.57,-34.8,20.57,86.92,32.39,-36.87,104.86,-6.5,-72.96,122.58,-8.99,-21.55,97.4,-29.1,9.0,80.82,-1.78,30.0,42.45,-35.0,15.0,86.91,1.0,1.0,1.0,-1.0,-1.0,-0.2886,-1.0,-0.8942,-1.0,-0.5546,-1.0,1.0,-0.0507,1.0,-1.0,-1.0,-1.0,-1.0,0.0,0.026,0.026,0.013,0.006,0.006,0.0,0.013,0.078,0.045,0.0,0.026,0.013,0.013,0.026,0.0,0.0,0.039,0.589,-1.2241,0.6964,-0.0798,-1.4956,1.0002,-0.0337,-0.8682,0.6565,-0.3927,-0.0767,0.0583,-0.1212,0.1687,-0.316,-0.6013,0.0276,0.293,0.0243,-0.0683,-0.291,0.2807,-0.2929,0.2635,0.1261,0.02,-0.2655,-0.3186,-0.2555,0.2212,0.2867,0.0028,-0.1689,-0.2643,-0.233,0.2976,1.6516,-0.0646,-0.1881,0.145,-0.1766,1.0,1.0,0.9659,-1.0,-1.0,0.049,-1.0,1.0,-1.0,-1.0,-1.0,1.0,0.6265,1.0,-1.0,-1.0,-1.0,-1.0,0.0,0.0,0.0,0.0,0.0,0.0,0.0,0.0,0.0,0.3333,0.0,0.3333,0.0,0
2.48,run,19.4,0.61,-9.85,13.96,-1.98,0.0,0.05,0.0,0.292,31.55,-48.16,106.52,-2.9,-68.2,126.91,-2.99,-26.19,105.38,-24.96,12.83,74.97,-4.22,30.32,48.16,-34.98,19.25,87.89,33.89,-35.37,106.36,-8.0,-74.46,121.08,-10.49,-23.05,95.9,-27.6,7.5,82.32,-3.28,30.0,43.95,-35.0,13.5,85.41,1.0,0.9258,1.0,-1.0,-1.0,0.117,-1.0,-0.4663,-1.0,0.3791,-1.0,1.0,-1.0,1.0,0.3327,-1.0,-1.0,-1.0,0.006,0.045,0.013,0.0,0.019,0.006,0.013,0.006,0.13,0.039,0.0,0.026,0.006,0.013,0.006,0.0,0.0,0.026,0.5706,-1.2103,0.6719,-0.0598,-1.511,1.0094,-0.0353,-0.8468,0.632,-0.4157,-0.1012,0.0828,-0.0982,0.1687,-0.3405,-0.609,0.0031,0.3145,-0.0521,0.004,-0.2958,0.2713,-0.2626,0.219,0.0825,0.0946,-0.2779,-0.3093,-0.2709,0.247,0.287,0.002,-0.2103,-0.2138,-0.2552,0.2889,1.6257,-0.0574,-0.1527,-0.0102,-0.0034,1.0,1.0,1.0,-1.0,-1.0,-0.2886,-1.0,-0.8942,-1.0,-0.5546,-1.0,1.0,-0.0507,1.0,-1.0,-1.0,-1.0,-1.0,0.0,0.0,0.0,0.0,0.0,0.0,0.0,0.0,0.0,0.3333,0.0,0.3333,0.0,0
2.52,run,18.92,0.57,-12.56,-4.25,0.8,0.0,0.05,0.0,0.292,31.2,-46.93,105.47,-2.46,-69.61,126.74,-3.52,-24.87,104.06,-26.37,11.43,76.38,-3.25,30.32,46.67,-34.98,17.84,88.68,35.0,-33.87,107.86,-9.5,-75.96,122.58,-11.99,-24.55,94.4,-26.1,6.0,83.82,-4.78,30.0,45.45,-35.0,12.0,83.91,1.0,1.0,1.0,-1.0,-1.0,1.0,-1.0,-1.0,-1.0,1.0,-1.0,1.0,-1.0,1.0,0.7016,-1.0,-1.0,-1.0,0.006,0.045,0.013,0.0,0.019,0.006,0.013,0.006,0.13,0.039,0.0,0.026,0.006,0.013,0.006,0.0,0.0,0.026,0.5538,-1.1919,0.6473,-0.046,-1.5401,1.0124,-0.0522,-0.8222,0.6105,-0.4403,-0.1273,0.1074,-0.0752,0.1687,-0.3651,-0.6121,-0.0199,0.3313,-0.0996,0.0717,-0.2989,0.2416,-0.2929,0.1648,-0.0054,0.1581,-0.2749,-0.3084,-0.2873,0.2647,0.2871,0.0014,-0.2391,-0.1611,-0.2648,0.2654,1.5797,-0.0143,-0.172,0.2436,-0.0346,1.0,0.9258,1.0,-1.0,-1.0,0.117,-1.0,-0.4663,-1.0,0.3791,-1.0,1.0,-1.0,1.0,0.3327,-1.0,-1.0,-1.0,0.0,0.0,0.0,0.0,0.0,0.0,0.0,0.0,0.0,0.3333,0.0,0.3333,0.0,0
2.56,run,18.48,0.75,-11.81,5.07,-4.3,0.0,0.05,0.0,0.292,30.76,-45.62,104.59,-2.46,-71.1,125.86,-5.01,-23.91,102.74,-27.25,10.02,77.78,-2.46,30.32,45.53,-34.98,16.44,89.12,35.0,-32.37,109.36,-11.0,-77.46,124.08,-13.49,-26.05,92.9,-24.6,4.5,85.32,-6.28,30.0,46.95,-35.0,10.5,82.41,1.0,0.3177,1.0,-1.0,-1.0,0.7883,-1.0,-1.0,-1.0,1.0,-1.0,1.0,-1.0,1.0,1.0,-1.0,-1.0,-1.0,0.006,0.045,0.013,0.0,0.019,0.006,0.013,0.006,0.13,0.039,0.0,0.026,0.006,0.013,0.006,0.0,0.0,0.026,0.5476,-1.1704,0.6289,-0.0383,-1.5647,1.0094,-0.0614,-0.7992,0.5875,-0.4648,-0.1519,0.1319,-0.0583,0.1687,-0.3912,-0.6121,-0.0445,0.3451,-0.0928,0.1309,-0.2784,0.198,-0.2973,0.1038,-0.0384,0.1971,-0.279,-0.3081,-0.2933,0.2776,0.2644,0.001,-0.2654,-0.1128,-0.2776,0.2377,1.5374,-0.0179,-0.2193,-0.0741,0.0139,1.0,1.0,1.0,-1.0,-1.0,1.0,-1.0,-1.0,-1.0,1.0,-1.0,1.0,-1.0,1.0,0.7016,-1.0,-1.0,-1.0,0.0,0.0,0.0,0.0,0.0,0.0,0.0,0.0,0.0,0.3333,0.0,0.3333,0.0,0
2.6,run,18.05,0.48,-11.14,-7.99,-0.2,0.0,0.05,0.0,0.292,30.85,-44.3,104.06,-2.46,-72.51,124.98,-6.5,-23.2,101.43,-27.95,8.53,79.19,-2.11,30.32,44.74,-34.98,15.12,89.21,35.0,-30.87,110.86,-12.5,-78.96,125.58,-14.99,-27.55,91.4,-23.1,3.0,86.82,-7.78,30.0,48.45,-35.0,9.0,80.91,1.0,0.4196,1.0,-1.0,-1.0,1.0,-1.0,-1.0,-1.0,1.0,-1.0,1.0,-1.0,1.0,1.0,-1.0,-1.0,-1.0,0.026,0.065,0.0,0.026,0.019,0.0,0.013,0.0,0.149,0.019,0.0,0.033,0.006,0.013,0.006,0.0,0.0,0.0,0.54,-1.1474,0.6136,-0.0383,-1.5907,0.994,-0.0874,-0.7823,0.5645,-0.4801,-0.1764,0.1565,-0.0445,0.1687,-0.4111,-0.6121,-0.069,0.3528,-0.0937,0.1779,-0.2524,0.1386,-0.3059,0.0152,-0.1246,0.2013,-0.2815,-0.2732,-0.2973,0.2863,0.2368,0.0007,-0.2605,-0.079,-0.2863,0.1951,1.4988,-0.0016,-0.2061,0.0884,-0.075,1.0,0.3177,1.0,-1.0,-1.0,0.7883,-1.0,-1.0,-1.0,1.0,-1.0,1.0,-1.0,1.0,1.0,-1.0,-1.0,-1.0,0.0,0.0,0.0,0.0,0.0,0.0,0.0,0.0,0.0,0.3333,0.0,0.3333,0.0,0
2.64,run,17.7,0.5,-9.71,-1.05,2.89,0.0,0.05,0.0,0.292,31.46,-42.89,103.8,-3.08,-74.0,124.45,-7.82,-22.85,100.2,-28.3,7.21,80.6,-1.93,30.32,44.21,-34.98,13.71,89.03,35.0,-32.37,112.36,-14.0,-80.0,127.08,-16.49,-29.05,89.9,-21.6,1.5,88.32,-9.28,30.0,49.95,-35.0,7.5,79.41,1.0,-0.9384,1.0,-1.0,-1.0,1.0,-1.0,-1.0,-1.0,1.0,-1.0,1.0,-1.0,1.0,1.0,-1.0,-1.0,-1.0,0.026,0.065,0.0,0.026,0.019,0.0,0.013,0.0,0.149,0.019,0.0,0.033,0.006,0.013,0.006,0.0,0.0,0.0,0.5415,-1.1244,0.6044,-0.0383,-1.6153,0.9787,-0.1135,-0.7701,0.5415,-0.4924,-0.2025,0.181,-0.0383,0.1687,-0.4249,-0.6121,-0.092,0.3543,-0.0599,0.2107,-0.2111,0.097,-0.306,-0.0468,-0.1849,0.1868,-0.2832,-0.2372,-0.3058,0.2923,0.1887,0.0005,-0.2341,-0.0553,-0.2866,0.1423,1.4613,-0.0254,-0.1945,-0.1394,-0.0036,1.0,0.4196,1.0,-1.0,-1.0,1.0,-1.0,-1.0,-1.0,1.0,-1.0,1.0,-1.0,1.0,1.0,-1.0,-1.0,-1.0,0.0,0.0,0.0,0.0,0.0,0.0,0.0,0.0,0.0,0.3333,0.0,0.3333,0.0,0
2.68,run,16.94,0.45,-19.25,-1.35,0.77,0.0,0.05,0.0,0.292,32.26,-41.57,103.89,-4.39,-75.32,124.19,-9.32,-22.85,98.88,-28.3,5.8,82.0,-2.2,30.32,44.03,-34.98,12.39,88.33,35.0,-33.87,113.86,-15.5,-80.0,128.58,-17.99,-30.55,88.4,-20.1,0.0,89.82,-10.78,30.0,51.45,-35.0,6.0,77.91,1.0,-1.0,1.0,-1.0,-1.0,1.0,-1.0,-1.0,-1.0,1.0,-1.0,1.0,-1.0,1.0,1.0,-1.0,-1.0,-1.0,0.026,0.065,0.0,0.026,0.019,0.0,0.013,0.0,0.149,0.019,0.0,0.033,0.006,0.013,0.006,0.0,0.0,0.0,0.5522,-1.0999,0.5998,-0.0491,-1.6414,0.9695,-0.1365,-0.7639,0.52,-0.4985,-0.2255,0.2056,-0.0353,0.1687,-0.4341,-0.6121,-0.1166,0.3513,-0.0015,0.2397,-0.1651,0.0275,-0.3122,-0.0674,-0.2159,0.1538,-0.2789,-0.1891,-0.3005,0.2968,0.1436,0.0003,-0.1984,-0.0387,-0.2928,0.0881,1.4308,-0.0234,-0.1695,-0.0183,0.0504,1.0,-0.9384,1.0,-1.0,-1.0,1.0,-1.0,-1.0,-1.0,1.0,-1.0,1.0,-1.0,1.0,1.0,-1.0,-1.0,-1.0,0.0,0.0,0.0,0.0,0.0,0.0,0.0,0.0,0.0,0.3333,0.0,0.3333,0.0,0
2.72,run,15.74,0.61,-30.56,4.35,-6.2,0.0,0.05,0.0,0.292,33.13,-40.25,104.5,-5.62,-76.73,124.37,-10.72,-23.12,97.65,-28.21,4.22,83.41,-3.25,30.32,44.03,-34.98,10.99,87.36,35.0,-35.37,115.36,-17.0,-78.5,130.08,-19.49,-32.05,86.9,-18.6,-1.5,91.32,-12.28,30.0,52.95,-35.0,4.5,76.41,1.0,-1.0,1.0,-1.0,-0.909,1.0,-1.0,-1.0,-1.0,1.0,-1.0,1.0,-1.0,1.0,1.0,-1.0,-1.0,-1.0,0.019,0.078,0.006,0.019,0.019,0.013,0.013,0.033,0.24,0.006,0.0,0.033,0.013,0.013,0.019,0.0,0.0,0.013,0.566,-1.0769,0.6013,-0.0721,-1.6644,0.9649,-0.1626,-0.7639,0.497,-0.4985,-0.25,0.2301,-0.0399,0.1687,-0.4372,-0.6121,-0.1396,0.339,0.0507,0.2541,-0.1098,-0.067,-0.3048,-0.0644,-0.2489,0.1077,-0.2816,-0.1324,-0.3024,0.2999,0.0833,0.0002,-0.1504,-0.0271,-0.2913,0.0156,1.3649,-0.0281,-0.336,-0.0236,0.0135,1.0,-1.0,1.0,-1.0,-1.0,1.0,-1.0,-1.0,-1.0,1.0,-1.0,1.0,-1.0,1.0,1.0,-1.0,-1.0,-1.0,0.0,0.0,0.0,0.0,0.0,0.0,0.0,0.0,0.0,0.3333,0.0,0.3333,0.0,0
2.76,run,14.23,0.89,-38.83,6.97,-11.68,0.0,0.05,0.0,0.292,33.93,-39.02,105.38,-7.03,-77.87,124.89,-12.13,-23.91,96.42,-27.25,2.81,84.81,-4.04,30.15,44.74,-34.98,9.49,85.96,35.0,-36.87,116.86,-18.5,-77.0,131.58,-20.99,-33.55,85.4,-17.1,-3.0,92.82,-13.78,30.0,54.45,-35.0,3.0,74.91,1.0,-0.5162,1.0,-1.0,0.9463,1.0,-1.0,-1.0,-1.0,1.0,-1.0,1.0,-1.0,1.0,0.6872,-1.0,-1.0,-1.0,0.019,0.078,0.006,0.019,0.019,0.013,0.013,0.033,0.24,0.006,0.0,0.033,0.013,0.013,0.019,0.0,0.0,0.013,0.5814,-1.0538,0.6121,-0.0936,-1.6889,0.9679,-0.1871,-0.7685,0.4755,-0.497,-0.2777,0.2546,-0.0583,0.1687,-0.4372,-0.6121,-0.1641,0.3221,0.0929,0.264,-0.0367,-0.1273,-0.3052,-0.0336,-0.2661,0.0582,-0.2775,-0.0869,-0.315,0.3017,-0.0106,0.0002,-0.1053,-0.019,-0.2957,-0.0522,1.2604,-0.0138,-0.5334,0.0759,-0.1083,1.0,-1.0,1.0,-1.0,-0.909,1.0,-1.0,-1.0,-1.0,1.0,-1.0,1.0,-1.0,1.0,1.0,-1.0,-1.0,-1.0,0.0,0.0,0.0,0.0,0.0,0.0,0.0,0.0,0.0,0.3333,0.0,0.3333,0.0,0
2.8,run,13.11,0.76,-28.44,-3.74,-4.24,0.0,0.05,0.0,0.292,34.37,-38.06,106.0,-8.44,-78.75,125.95,-13.54,-24.79,95.19,-26.28,1.41,86.13,-5.45,29.79,45.88,-34.98,8.17,84.55,35.0,-35.37,118.36,-20.0,-75.5,130.08,-22.49,-32.05,83.9,-15.6,-4.5,94.32,-15.28,30.0,55.95,-35.0,1.5,73.41,1.0,0.7273,1.0,-1.0,1.0,-1.0,-1.0,-0.0495,-1.0,1.0,-1.0,1.0,-1.0,1.0,0.2658,-1.0,-1.0,-1.0,0.019,0.078,0.006,0.019,0.019,0.013,0.013,0.033,0.24,0.006,0.0,0.033,0.013,0.013,0.019,0.0,0.0,0.013,0.5952,-1.0324,0.6274,-0.1181,-1.7089,0.9771,-0.2117,-0.7823,0.4541,-0.4801,-0.3022,0.2792,-0.0721,0.1657,-0.4249,-0.6121,-0.1902,0.2976,0.1169,0.2655,0.032,-0.1813,-0.2886,0.0111,-0.2785,-0.0112,-0.2749,0.0026,-0.3128,0.3035,-0.0593,-0.0114,-0.0276,-0.0133,-0.305,-0.1288,1.1284,0.0104,-0.6777,0.1217,-0.2038,1.0,-0.5162,1.0,-1.0,0.9463,1.0,-1.0,-1.0,-1.0,1.0,-1.0,1.0,-1.0,1.0,0.6872,-1.0,-1.0,-1.0,0.0,0.0,0.0,0.0,0.0,0.0,0.0,0.0,0.0,0.3333,0.0,0.3333,0.0,0
2.84,run,12.45,0.58,-15.85,-6.77,3.48,0.0,0.05,0.0,0.384,34.63,-37.27,107.67,-9.84,-79.37,127.09,-14.94,-26.1,93.96,-25.05,0.0,87.54,-6.86,29.71,46.85,-34.98,6.86,83.23,35.0,-36.87,119.86,-21.5,-74.0,128.58,-23.99,-30.55,82.4,-14.1,-6.0,95.82,-16.78,30.0,54.45,-33.5,0.0,71.91,1.0,-1.0,1.0,-1.0,1.0,-1.0,-1.0,0.9066,-1.0,1.0,-1.0,1.0,-1.0,1.0,-1.0,0.4874,-0.9583,-1.0,0.013,0.058,0.013,0.013,0.006,0.006,0.013,0.045,0.384,0.0,0.0,0.045,0.019,0.013,0.039,0.006,0.013,0.006,0.6029,-1.0155,0.6381,-0.1427,-1.7242,0.9956,-0.2362,-0.7977,0.4326,-0.4633,-0.3267,0.3022,-0.0966,0.1595,-0.405,-0.6121,-0.2132,0.273,0.1106,0.2491,0.0626,-0.2189,-0.2595,0.0767,-0.2869,-0.0653,-0.2729,0.065,-0.3109,0.2986,-0.1335,-0.031,0.0554,-0.0093,-0.2997,-0.1821,1.0305,-0.001,-0.4964,-0.0652,-0.074,1.0,0.7273,1.0,-1.0,1.0,-1.0,-1.0,-0.0495,-1.0,1.0,-1.0,1.0,-1.0,1.0,0.2658,-1.0,-1.0,-1.0,0.0,0.0,0.0,0.0,0.0,0.0,0.0,0.0,0.0,0.3333,0.0,0.3333,0.0,0
2.88,run,11.93,0.57,-12.62,-2.65,4.28,0.0,0.05,0.0,0.384,34.63,-36.74,109.16,-11.25,-79.54,128.32,-16.26,-27.42,92.64,-23.64,-1.32,88.95,-8.0,29.62,48.16,-34.89,5.54,81.83,33.5,-38.37,121.36,-23.0,-72.5,127.08,-25.49,-29.05,80.9,-12.6,-7.5,97.32,-18.28,30.0,52.95,-32.0,-1.5,70.41,-0.2256,-1.0,1.0,-1.0,1.0,-1.0,-1.0,0.6859,-1.0,1.0,-1.0,1.0,-1.0,1.0,-0.7208,1.0,0.2023,-1.0,0.013,0.058,0.013,0.013,0.006,0.006,0.013,0.045,0.384,0.0,0.0,0.045,0.019,0.013,0.039,0.006,0.013,0.006,0.6075,-1.0017,0.6673,-0.1672,-1.7349,1.0155,-0.2608,-0.8207,0.4111,-0.4418,-0.3513,0.3267,-0.1212,0.158,-0.3881,-0.6121,-0.2362,0.25,0.0947,0.2262,0.1532,-0.2453,-0.2219,0.1285,-0.2929,-0.1321,-0.2716,0.1261,-0.3097,0.3011,-0.1855,-0.0274,0.1021,-0.0065,-0.2962,-0.2138,0.9728,-0.0168,-0.2767,-0.1182,0.0608,1.0,-1.0,1.0,-1.0,1.0,-1.0,-1.0,0.9066,-1.0,1.0,-1.0,1.0,-1.0,1.0,-1.0,0.4874,-0.9583,-1.0,0.0,0.0,0.0,0.0,0.0,0.0,0.0,0.0,0.0,0.3333,0.0,0.3333,0.0,0
2.92,run,11.56,0.77,-7.09,4.51,-4.95,0.0,0.05,0.0,0.384,34.63,-36.65,110.57,-12.66,-79.54,129.2,-17.75,-28.48,91.41,-22.76,-2.72,90.26,-9.32,29.53,49.39,-34.19,4.66,80.42,32.0,-39.87,122.86,-24.5,-71.0,125.58,-26.99,-27.55,79.4,-11.1,-9.0,98.82,-19.78,30.0,51.45,-30.5,0.0,68.91,0.2913,-1.0,1.0,-1.0,1.0,-1.0,-1.0,1.0,-1.0,1.0,-1.0,1.0,-1.0,1.0,-0.662,1.0,0.8741,-1.0,0.013,0.058,0.013,0.013,0.006,0.006,0.013,0.045,0.384,0.0,0.0,0.045,0.019,0.013,0.039,0.006,0.013,0.006,0.6075,-0.9925,0.6934,-0.1917,-1.738,1.037,-0.2838,-0.8437,0.3881,-0.4172,-0.3743,0.3513,-0.1411,0.1565,-0.3651,-0.6105,-0.2592,0.2255,0.0663,0.1928,0.205,-0.2637,-0.1669,0.1705,-0.2913,-0.1787,-0.2764,0.1803,-0.3031,0.3028,-0.2046,-0.025,0.1577,0.0012,-0.2936,-0.2417,0.9276,-0.0177,-0.2202,-0.0463,0.0747,-0.2256,-1.0,1.0,-1.0,1.0,-1.0,-1.0,0.6859,-1.0,1.0,-1.0,1.0,-1.0,1.0,-0.7208,1.0,0.2023,-1.0,0.0,0.0,0.0,0.0,0.0,0.0,0.0,0.0,0.0,0.3333,0.0,0.3333,0.0,0
2.96,run,11.14,0.66,-9.28,-3.81,-13.81,0.0,0.05,0.0,0.429,34.19,-36.65,111.97,-14.15,-79.28,129.73,-19.07,-29.18,90.18,-21.01,-4.13,91.85,-10.55,29.44,50.54,-33.31,3.16,79.1,30.5,-41.37,124.36,-26.0,-69.5,124.08,-28.49,-26.05,77.9,-9.6,-10.5,100.32,-21.28,30.0,49.95,-29.0,1.5,67.41,0.2586,-1.0,1.0,-1.0,1.0,-1.0,-1.0,0.8545,-1.0,1.0,-1.0,1.0,-1.0,1.0,-1.0,1.0,1.0,-1.0,0.013,0.006,0.019,0.013,0.019,0.006,0.019,0.045,0.429,0.013,0.0,0.033,0.052,0.019,0.045,0.019,0.006,0.013,0.6075,-0.991,0.7179,-0.2163,-1.738,1.0523,-0.3099,-0.8621,0.3666,-0.4019,-0.3988,0.3743,-0.1641,0.1549,-0.3436,-0.5983,-0.2746,0.201,0.0464,0.1407,0.2355,-0.2766,-0.1168,0.1768,-0.3017,-0.1941,-0.274,0.1837,-0.3042,0.2982,-0.2295,-0.0232,0.1909,0.0468,-0.263,-0.2612,0.8956,-0.0002,-0.1238,0.0787,-0.0864,0.2913,-1.0,1.0,-1.0,1.0,-1.0,-1.0,1.0,-1.0,1.0,-1.0,1.0,-1.0,1.0,-0.662,1.0,0.8741,-1.0,0.0,0.0,0.0,0.0,0.0,0.0,0.0,0.0,0.0,0.3333,0.0,0.3333,0.0,0
3.0,run,11.0,0.59,-2.85,-1.32,-22.3,0.0,0.05,0.0,0.429,33.4,-36.74,113.29,-15.56,-78.31,129.99,-20.48,-29.71,88.95,-19.69,-5.45,93.34,-12.13,29.44,51.24,-32.17,1.93,77.7,29.0,-42.87,125.86,-27.5,-68.0,122.58,-29.99,-24.55,76.4,-8.1,-12.0,101.82,-22.78,30.0,48.45,-27.5,3.0,65.91,-0.5465,-1.0,1.0,-1.0,1.0,-1.0,-1.0,1.0,-1.0,1.0,-0.7106,1.0,-1.0,1.0,-1.0,1.0,1.0,-1.0,0.013,0.006,0.019,0.013,0.019,0.006,0.019,0.045,0.429,0.013,0.0,0.033,0.052,0.019,0.045,0.019,0.006,0.013,0.5998,-0.991,0.7424,-0.2424,-1.7334,1.0615,-0.3329,-0.8744,0.3451,-0.3712,-0.4234,0.4019,-0.1856,0.1534,-0.3237,-0.5829,-0.3007,0.1779,0.0037,0.0985,0.2569,-0.2915,-0.0645,0.1583,-0.2975,-0.1819,-0.2724,0.2437,-0.305,0.3123,-0.2412,-0.022,0.2085,0.0903,-0.2819,-0.2691,0.8585,-0.0097,-0.162,-0.0664,-0.2411,0.2586,-1.0,1.0,-1.0,1.0,-1.0,-1.0,0.8545,-1.0,1.0,-1.0,1.0,-1.0,1.0,-1.0,1.0,1.0,-1.0,0.0,0.0,0.0,0.0,0.0,0.0,0.0,0.0,0.0,0.3333,0.0,0.3333,0.0,0
3.04,run,10.96,0.6,-1.27,-0.84,-25.94,0.0,0.05,0.0,0.429,32.43,-37.62,114.79,-16.88,-76.99,129.64,-21.88,-29.79,87.71,-18.28,-6.86,94.83,-13.71,29.44,51.77,-30.67,1.23,76.64,27.5,-44.37,127.36,-29.0,-66.5,121.08,-31.49,-23.05,74.9,-6.6,-13.5,103.32,-24.28,30.0,46.95,-26.0,4.5,64.41,0.0561,-0.9753,1.0,-1.0,1.0,-1.0,-1.0,1.0,-1.0,0.4102,0.0627,1.0,-1.0,1.0,-1.0,1.0,1.0,-1.0,0.013,0.006,0.019,0.013,0.019,0.006,0.019,0.045,0.429,0.013,0.0,0.033,0.052,0.019,0.045,0.019,0.006,0.013,0.586,-0.9925,0.7655,-0.2669,-1.7165,1.0661,-0.3574,-0.8836,0.3237,-0.3482,-0.4464,0.428,-0.2132,0.1534,-0.3114,-0.563,-0.3221,0.1534,-0.0492,0.0632,0.2661,-0.296,0.0181,0.1281,-0.3002,-0.1618,-0.2711,0.2568,-0.2997,0.3164,-0.2723,-0.0154,0.1919,0.138,-0.2778,-0.2804,0.8464,-0.0159,-0.0498,-0.0231,-0.3891,-0.5465,-1.0,1.0,-1.0,1.0,-1.0,-1.0,1.0,-1.0,1.0,-0.7106,1.0,-1.0,1.0,-1.0,1.0,1.0,-1.0,0.0,0.0,0.0,0.0,0.0,0.0,0.0,0.0,0.0,0.3333,0.0,0.3333,0.0,0
3.08,run,10.77,1.05,-4.84,9.9,-26.92,0.0,0.05,0.0,0.481,31.11,-38.76,116.28,-18.37,-75.67,129.02,-23.29,-29.79,86.4,-16.79,-8.17,96.33,-15.38,29.44,51.86,-29.36,0.7,74.97,26.0,-42.87,128.86,-30.5,-65.0,119.58,-32.99,-21.55,73.4,-8.1,-12.0,104.82,-25.78,30.0,45.45,-24.5,6.0,62.91,0.6521,-0.1751,1.0,-1.0,1.0,-1.0,-1.0,1.0,-1.0,-0.7262,1.0,1.0,-1.0,1.0,-1.0,1.0,1.0,-1.0,0.013,0.0,0.019,0.019,0.019,0.013,0.013,0.006,0.481,0.019,0.006,0.019,0.0,0.026,0.033,0.006,0.006,0.006,0.5691,-1.0078,0.7915,-0.2899,-1.6935,1.06,-0.382,-0.8851,0.3022,-0.3237,-0.4709,0.4541,-0.2408,0.1534,-0.3022,-0.5369,-0.3344,0.135,-0.0977,-0.0133,0.2841,-0.2936,0.099,0.0666,-0.3023,-0.119,-0.2704,0.2719,-0.3019,0.3193,-0.2942,-0.0108,0.1689,0.1944,-0.2405,-0.2653,0.8426,-0.0148,-0.0222,-0.0146,-0.4527,0.0561,-0.9753,1.0,-1.0,1.0,-1.0,-1.0,1.0,-1.0,0.4102,0.0627,1.0,-1.0,1.0,-1.0,1.0,1.0,-1.0,0.0,0.0,0.0,0.0,0.0,0.0,0.0,0.0,0.0,0.3333,0.0,0.3333,0.0,0
3.12,run,10.7,1.5,-2.38,9.66,-26.5,0.0,0.05,0.0,0.481,29.62,-40.17,117.69,-19.78,-74.18,128.14,-24.7,-29.18,84.81,-15.38,-8.96,97.91,-17.05,29.36,51.86,-27.86,0.62,73.48,27.5,-41.37,130.36,-32.0,-63.5,118.08,-34.49,-20.05,71.9,-9.6,-10.5,106.32,-27.28,30.0,43.95,-23.0,7.5,61.41,1.0,0.929,1.0,-1.0,1.0,-1.0,-1.0,1.0,-1.0,-1.0,1.0,1.0,-1.0,1.0,-1.0,1.0,1.0,-1.0,0.013,0.0,0.019,0.019,0.019,0.013,0.013,0.006,0.481,0.019,0.006,0.019,0.0,0.026,0.033,0.006,0.006,0.006,0.5461,-1.0278,0.8176,-0.316,-1.6705,1.0492,-0.4065,-0.8851,0.2792,-0.2976,-0.4939,0.4801,-0.27,0.1534,-0.3007,-0.5139,-0.3436,0.1058,-0.1547,-0.0841,0.2967,-0.3033,0.1556,0.0064,-0.3036,-0.0833,-0.2755,0.2881,-0.2976,0.3213,-0.3152,-0.0075,0.124,0.2224,-0.2029,-0.295,0.826,0.0246,-0.0845,0.1727,-0.4699,0.6521,-0.1751,1.0,-1.0,1.0,-1.0,-1.0,1.0,-1.0,-0.7262,1.0,1.0,-1.0,1.0,-1.0,1.0,1.0,-1.0,0.0,0.0,0.0,0.0,0.0,0.0,0.0,0.0,0.0,0.3333,0.0,0.3333,0.0,0
3.16,run,10.54,2.01,-3.9,11.1,-29.04,0.0,0.05,0.0,0.481,28.39,-41.4,119.18,-21.18,-72.77,126.91,-26.1,-28.12,83.41,-13.97,-10.28,99.32,-18.19,29.36,51.42,-26.54,0.62,71.98,29.0,-39.87,131.86,-33.5,-62.0,116.58,-35.0,-18.55,70.4,-11.1,-9.0,107.82,-28.78,30.0,42.45,-21.5,9.0,59.91,1.0,1.0,1.0,-1.0,1.0,-1.0,-1.0,0.5863,-1.0,-1.0,1.0,1.0,-1.0,1.0,-1.0,1.0,1.0,-1.0,0.013,0.0,0.019,0.019,0.019,0.013,0.013,0.006,0.481,0.019,0.006,0.019,0.0,0.026,0.033,0.006,0.006,0.006,0.52,-1.0523,0.8422,-0.3405,-1.6444,1.0339,-0.431,-0.8744,0.2516,-0.273,-0.5077,0.5077,-0.2991,0.1519,-0.3007,-0.4878,-0.3451,0.0798,-0.2054,-0.1502,0.299,-0.3037,0.206,-0.0526,-0.3039,-0.0184,-0.2957,0.293,-0.2597,0.3277,-0.3292,-0.011,0.0868,0.2528,-0.1477,-0.3036,0.8203,0.0633,-0.0416,0.1686,-0.4625,1.0,0.929,1.0,-1.0,1.0,-1.0,-1.0,1.0,-1.0,-1.0,1.0,1.0,-1.0,1.0,-1.0,1.0,1.0,-1.0,0.0,0.0,0.0,0.0,0.0,0.0,0.0,0.0,0.0,0.3333,0.0,0.3333,0.0,0
3.2,run,10.34,2.88,-5.42,20.31,-31.74,0.0,0.05,0.0,0.481,27.42,-42.36,120.59,-22.59,-71.46,125.42,-27.51,-26.89,81.91,-12.57,-11.25,100.72,-19.86,29.36,50.45,-25.14,1.05,70.31,30.5,-38.37,133.36,-35.0,-60.5,115.08,-35.0,-20.05,68.9,-12.6,-7.5,109.32,-30.28,30.0,40.95,-20.0,10.5,58.41,1.0,1.0,1.0,-1.0,1.0,-1.0,-1.0,-0.0326,-0.9693,-1.0,1.0,1.0,-1.0,1.0,-1.0,1.0,1.0,-1.0,0.006,0.006,0.019,0.019,0.013,0.006,0.019,0.006,0.429,0.0,0.006,0.013,0.006,0.026,0.0,0.019,0.006,0.013,0.4985,-1.0738,0.8682,-0.3651,-1.6199,1.0124,-0.4556,-0.856,0.227,-0.2485,-0.5308,0.5323,-0.3191,0.1519,-0.3083,-0.4648,-0.3451,0.0537,-0.2245,-0.1859,0.3074,-0.3048,0.2365,-0.1176,-0.305,0.0564,-0.2993,0.2974,-0.2683,0.3217,-0.3054,-0.0077,0.0319,0.2634,-0.1034,-0.3106,0.8061,0.1078,-0.0681,0.1937,-0.5068,1.0,1.0,1.0,-1.0,1.0,-1.0,-1.0,0.5863,-1.0,-1.0,1.0,1.0,-1.0,1.0,-1.0,1.0,1.0,-1.0,0.0,0.0,0.0,0.0,0.0,0.0,0.0,0.0,0.0,0.3333,0.0,0.3333,0.0,0
3.24,run,9.97,3.24,-9.3,6.59,-24.65,0.0,0.05,0.0,0.481,26.63,-42.8,121.99,-23.99,-69.96,124.01,-28.83,-25.49,80.33,-11.6,-11.78,102.22,-21.18,29.36,49.22,-23.82,1.58,69.17,32.0,-36.87,134.86,-35.0,-59.0,113.58,-35.0,-21.55,67.4,-14.1,-6.0,110.82,-31.78,30.0,39.45,-18.5,12.0,56.91,1.0,1.0,1.0,-1.0,1.0,-1.0,-1.0,-1.0,-0.371,-1.0,1.0,0.7271,-1.0,1.0,-1.0,1.0,1.0,-1.0,0.006,0.006,0.019,0.019,0.013,0.006,0.019,0.006,0.429,0.0,0.006,0.013,0.006,0.026,0.0,0.019,0.006,0.013,0.4817,-1.0907,0.8928,-0.3896,-1.5969,0.9863,-0.4801,-0.8345,0.201,-0.224,-0.5476,0.5568,-0.3482,0.1519,-0.3252,-0.4403,-0.3375,0.0245,-0.2204,-0.1934,0.3072,-0.3055,0.2518,-0.1801,-0.3056,0.12,-0.3073,0.3003,-0.2511,0.3172,-0.3231,-0.0054,-0.041,0.2765,-0.0436,-0.3267,0.7885,0.1837,-0.0946,0.3545,-0.5539,1.0,1.0,1.0,-1.0,1.0,-1.0,-1.0,-0.0326,-0.9693,-1.0,1.0,1.0,-1.0,1.0,-1.0,1.0,1.0,-1.0,0.0,0.0,0.0,0.0,0.0,0.0,0.0,0.0,0.0,0.3333,0.0,0.3333,0.0,0
3.28,run,9.6,3.87,-9.74,13.38,-20.88,0.0,0.05,0.0,0.481,26.28,-43.15,123.31,-25.4,-68.64,122.61,-30.23,-24.08,78.84,-10.9,-11.87,103.54,-22.59,29.36,47.81,-22.41,2.81,67.68,33.5,-35.37,136.36,-35.0,-57.5,112.08,-35.0,-23.05,68.9,-15.6,-4.5,109.32,-33.28,30.0,37.95,-17.0,13.5,55.41,1.0,1.0,1.0,-1.0,1.0,-1.0,-1.0,-0.6272,0.3817,-1.0,1.0,-0.2421,-1.0,1.0,-1.0,1.0,1.0,-1.0,0.006,0.006,0.019,0.019,0.013,0.006,0.019,0.006,0.429,0.0,0.006,0.013,0.006,0.026,0.0,0.019,0.006,0.013,0.4679,-1.0983,0.9173,-0.4142,-1.5708,0.9618,-0.5031,-0.8099,0.1733,-0.2071,-0.5568,0.5829,-0.3712,0.1519,-0.3467,-0.4172,-0.3283,0.0046,-0.2061,-0.1642,0.3071,-0.3058,0.274,-0.2181,-0.3002,0.176,-0.3186,0.2734,-0.2103,0.3198,-0.3124,-0.0038,-0.1092,0.2798,0.004,-0.3035,0.7562,0.2157,-0.1623,0.1151,-0.4303,1.0,1.0,1.0,-1.0,1.0,-1.0,-1.0,-1.0,-0.371,-1.0,1.0,0.7271,-1.0,1.0,-1.0,1.0,1.0,-1.0,0.0,0.0,0.0,0.0,0.0,0.0,0.0,0.0,0.0,0.3333,0.0,0.3333,0.0,0
3.32,run,9.18,4.19,-11.63,5.97,-14.2,0.0,0.05,0.0,0.481,26.19,-43.24,124.63,-26.81,-67.06,121.11,-31.55,-22.94,77.34,-10.55,-11.95,104.94,-23.99,29.36,46.41,-21.09,4.13,66.27,35.0,-33.87,137.86,-35.0,-56.0,110.58,-35.0,-24.55,70.4,-17.1,-3.0,107.82,-34.78,30.0,36.45,-15.5,15.0,53.91,1.0,1.0,1.0,-1.0,1.0,-1.0,-1.0,-1.0,1.0,-1.0,1.0,-1.0,-1.0,1.0,-1.0,1.0,1.0,-1.0,0.006,0.052,0.033,0.019,0.013,0.013,0.013,0.0,0.286,0.006,0.026,0.019,0.006,0.026,0.0,0.026,0.039,0.006,0.4617,-1.1045,0.9403,-0.4387,-1.5478,0.9373,-0.5277,-0.7854,0.1473,-0.1948,-0.5584,0.6059,-0.3958,0.1519,-0.3712,-0.3927,-0.3068,-0.0215,-0.1673,-0.1379,0.3013,-0.3062,0.2782,-0.2448,-0.3022,0.2153,-0.3209,0.2374,-0.153,0.3102,-0.3108,-0.0026,-0.1685,0.2879,0.0833,-0.3103,0.7243,0.2703,-0.17,0.2335,-0.3643,1.0,1.0,1.0,-1.0,1.0,-1.0,-1.0,-0.6272,0.3817,-1.0,1.0,-0.2421,-1.0,1.0,-1.0,1.0,1.0,-1.0,0.0,0.0,0.0,0.0,0.0,0.0,0.0,0.0,0.0,0.3333,0.0,0.3333,0.0,0
3.36,run,8.92,4.65,-5.95,8.17,-3.94,0.0,0.05,0.0,0.481,26.81,-43.15,126.21,-28.56,-65.48,119.44,-32.96,-22.15,75.67,-10.46,-11.16,106.52,-25.4,29.36,44.74,-19.42,5.71,64.51,35.0,-32.37,139.36,-35.0,-54.5,109.08,-35.0,-26.05,71.9,-18.6,-1.5,106.32,-35.0,28.5,34.95,-14.0,16.5,52.41,1.0,1.0,1.0,-1.0,1.0,-0.8438,-1.0,-1.0,1.0,-1.0,1.0,-1.0,-1.0,-0.1319,-1.0,1.0,1.0,-1.0,0.006,0.052,0.033,0.019,0.013,0.013,0.013,0.0,0.286,0.006,0.026,0.019,0.006,0.026,0.0,0.026,0.039,0.006,0.4602,-1.106,0.9633,-0.4633,-1.5202,0.9112,-0.5507,-0.7655,0.1212,-0.1887,-0.5599,0.6305,-0.4203,0.1519,-0.3958,-0.3697,-0.2838,-0.046,-0.1228,-0.1023,0.2972,-0.3063,0.2982,-0.2691,-0.2978,0.2255,-0.3224,0.1892,-0.1128,0.3092,-0.3096,-0.0018,-0.21,0.2878,0.1446,-0.3092,0.6879,0.2979,-0.203,0.1043,-0.2478,1.0,1.0,1.0,-1.0,1.0,-1.0,-1.0,-1.0,1.0,-1.0,1.0,-1.0,-1.0,1.0,-1.0,1.0,1.0,-1.0,0.0,0.0,0.0,0.0,0.0,0.0,0.0,0.0,0.0,0.3333,0.0,0.3333,0.0,0
3.4,run,8.75,4.64,-4.44,-0.59,-2.62,0.0,0.05,0.0,0.481,27.42,-42.54,127.44,-29.97,-63.9,118.04,-33.75,-21.8,74.62,-10.99,-10.11,107.4,-26.89,29.36,43.24,-18.02,6.94,63.11,35.0,-30.87,140.86,-35.0,-53.0,107.58,-33.5,-27.55,73.4,-20.1,0.0,104.82,-35.0,27.0,33.45,-12.5,18.0,50.91,1.0,1.0,1.0,-1.0,1.0,-0.993,0.9664,-1.0,1.0,-1.0,1.0,-1.0,-1.0,0.7255,-1.0,1.0,1.0,-1.0,0.006,0.052,0.033,0.019,0.013,0.013,0.013,0.0,0.286,0.006,0.026,0.019,0.006,0.026,0.0,0.026,0.039,0.006,0.4709,-1.1045,0.991,-0.4939,-1.4926,0.882,-0.5752,-0.7517,0.092,-0.1871,-0.5461,0.6581,-0.4449,0.1519,-0.4249,-0.3405,-0.2562,-0.0767,-0.0529,-0.0669,0.2931,-0.3089,0.2938,-0.2781,-0.2841,0.2004,-0.3154,0.1372,-0.0364,0.3015,-0.2923,-0.0013,-0.2368,0.2913,0.1863,-0.3109,0.6646,0.3385,-0.1039,0.1426,-0.0687,1.0,1.0,1.0,-1.0,1.0,-0.8438,-1.0,-1.0,1.0,-1.0,1.0,-1.0,-1.0,-0.1319,-1.0,1.0,1.0,-1.0,0.0,0.0,0.0,0.0,0.0,0.0,0.0,0.0,0.0,0.3333,0.0,0.3333,0.0,0
3.44,run,8.42,4.74,-8.83,0.89,-1.94,0.0,0.05,0.0,0.481,28.65,-41.57,128.67,-31.38,-62.58,116.54,-34.19,-21.62,73.83,-12.04,-8.88,108.02,-28.3,29.09,41.84,-16.7,8.26,61.7,34.84,-29.37,142.36,-35.0,-51.5,106.08,-32.0,-29.05,74.9,-21.6,1.5,103.32,-35.0,25.5,31.95,-11.0,19.5,49.41,0.9954,1.0,1.0,-1.0,1.0,-1.0,0.7999,-1.0,1.0,-1.0,1.0,-1.0,-1.0,0.8525,-1.0,1.0,1.0,-1.0,0.006,0.136,0.084,0.013,0.013,0.013,0.006,0.013,0.37,0.013,0.033,0.006,0.026,0.013,0.0,0.058,0.071,0.0,0.4817,-1.0937,1.0124,-0.5185,-1.465,0.8575,-0.589,-0.7455,0.0736,-0.1963,-0.5277,0.6734,-0.4709,0.1519,-0.451,-0.316,-0.2347,-0.1012,0.0029,-0.0069,0.2851,-0.3076,0.3084,-0.2861,-0.2502,0.1631,-0.2893,0.0618,0.043,0.2681,-0.3017,-0.0009,-0.2628,0.2952,0.2103,-0.309,0.6497,0.3378,-0.0775,-0.0103,-0.0457,1.0,1.0,1.0,-1.0,1.0,-0.993,0.9664,-1.0,1.0,-1.0,1.0,-1.0,-1.0,0.7255,-1.0,1.0,1.0,-1.0,0.0,0.0,0.0,0.0,0.0,0.0,0.0,0.0,0.0,0.3333,0.0,0.3333,0.0,0
3.48,run,8.14,4.87,-8.13,1.78,0.61,0.0,0.05,0.0,0.481,30.15,-40.34,129.73,-32.61,-61.08,115.14,-34.37,-21.97,73.21,-13.01,-7.65,108.28,-29.71,28.3,40.43,-15.38,9.58,60.21,33.34,-27.87,143.86,-34.33,-50.0,104.58,-30.5,-30.55,76.4,-23.1,3.0,101.82,-35.0,24.0,30.45,-9.5,21.0,47.91,-0.8905,1.0,1.0,-0.9807,1.0,-1.0,1.0,-1.0,1.0,-1.0,1.0,-1.0,-1.0,-0.2909,-1.0,1.0,1.0,-1.0,0.006,0.136,0.084,0.013,0.013,0.013,0.006,0.013,0.37,0.013,0.033,0.006,0.026,0.013,0.0,0.058,0.071,0.0,0.5031,-1.0769,1.0339,-0.543,-1.4419,0.8314,-0.5967,-0.7424,0.0598,-0.2148,-0.5062,0.6842,-0.4955,0.1473,-0.4755,-0.293,-0.2117,-0.1258,0.0826,0.0585,0.2801,-0.3074,0.3022,-0.298,-0.2039,0.1257,-0.2543,-0.0258,0.1106,0.228,-0.3032,-0.0179,-0.276,0.2929,0.2335,-0.3083,0.6212,0.3461,-0.1541,0.0155,-0.0338,0.9954,1.0,1.0,-1.0,1.0,-1.0,0.7999,-1.0,1.0,-1.0,1.0,-1.0,-1.0,0.8525,-1.0,1.0,1.0,-1.0,0.0,0.0,0.0,0.0,0.0,0.0,0.0,0.0,0.0,0.3333,0.0,0.3333,0.0,0
3.52,run,7.83,5.03,-7.82,2.42,0.48,0.0,0.05,0.0,0.481,31.55,-39.02,130.69,-33.57,-59.68,113.73,-34.37,-22.59,73.04,-14.5,-6.42,108.19,-31.11,27.51,39.11,-13.97,10.9,58.71,31.84,-29.37,142.36,-32.83,-48.5,103.08,-29.0,-32.05,77.9,-24.6,4.5,100.32,-35.0,22.5,28.95,-8.0,22.5,46.41,-1.0,-0.11,0.7617,1.0,1.0,-1.0,1.0,-1.0,1.0,-1.0,1.0,-1.0,-1.0,-0.1997,-1.0,1.0,1.0,-1.0,0.006,0.136,0.084,0.013,0.013,0.013,0.006,0.013,0.37,0.013,0.033,0.006,0.026,0.013,0.0,0.058,0.071,0.0,0.5292,-1.0554,1.0523,-0.5645,-1.4159,0.8069,-0.5998,-0.7486,0.0491,-0.2316,-0.4847,0.6888,-0.52,0.1335,-0.5001,-0.27,-0.1887,-0.1519,0.1555,0.1214,0.2651,-0.2956,0.3093,-0.3006,-0.1542,0.065,-0.2183,-0.0813,0.1579,0.1768,-0.3042,-0.0643,-0.2852,0.2913,0.2497,-0.3136,0.5968,0.3581,-0.1419,0.031,0.0106,-0.8905,1.0,1.0,-0.9807,1.0,-1.0,1.0,-1.0,1.0,-1.0,1.0,-1.0,-1.0,-0.2909,-1.0,1.0,1.0,-1.0,0.0,0.0,0.0,0.0,0.0,0.0,0.0,0.0,0.0,0.3333,0.0,0.3333,0.0,0
3.56,run,7.59,5.13,-6.14,0.89,2.76,0.0,0.05,0.0,0.481,32.78,-37.71,131.48,-34.28,-58.36,112.24,-33.84,-23.47,72.95,-15.91,-5.27,107.75,-32.43,26.28,37.88,-12.66,12.22,57.3,30.34,-30.87,140.86,-31.33,-47.0,101.58,-27.5,-33.55,79.4,-26.1,6.0,98.82,-35.0,21.0,27.45,-9.5,24.0,47.91,-1.0,-0.5295,-0.7571,1.0,1.0,-1.0,1.0,-1.0,1.0,-1.0,1.0,-1.0,-1.0,-1.0,-1.0,-1.0,1.0,0.2321,0.006,0.169,0.377,0.006,0.013,0.013,0.013,0.045,0.039,0.013,0.084,0.013,0.006,0.026,0.013,0.052,0.111,0.0,0.5538,-1.0324,1.0692,-0.5814,-1.3913,0.7823,-0.5998,-0.7593,0.046,-0.2577,-0.4633,0.6872,-0.5446,0.1197,-0.5231,-0.2454,-0.1657,-0.1779,0.201,0.1714,0.2489,-0.2703,0.3086,-0.3025,-0.108,0.0052,-0.1643,-0.1548,0.1912,0.118,-0.3051,-0.0968,-0.286,0.296,0.2611,-0.3174,0.5702,0.372,-0.1364,0.0422,0.0083,-1.0,-0.11,0.7617,1.0,1.0,-1.0,1.0,-1.0,1.0,-1.0,1.0,-1.0,-1.0,-0.1997,-1.0,1.0,1.0,-1.0,0.0,0.0,0.0,0.0,0.0,0.0,0.0,0.0,0.0,0.3333,0.0,0.3333,0.0,0
3.6,run,7.31,5.18,-6.5,-0.16,7.02,0.0,0.05,0.0,0.481,33.31,-36.3,132.28,-34.63,-56.87,110.83,-32.96,-24.7,72.86,-17.23,-4.13,107.05,-33.49,24.96,36.74,-11.34,13.45,55.81,28.84,-32.37,139.36,-29.83,-45.5,100.08,-26.0,-35.05,80.9,-27.6,4.5,97.32,-35.0,19.5,25.95,-11.0,25.5,49.41,-1.0,-1.0,-1.0,1.0,1.0,-0.9881,1.0,-1.0,1.0,-1.0,-0.3951,-1.0,-1.0,-1.0,-1.0,-1.0,1.0,1.0,0.006,0.169,0.377,0.006,0.013,0.013,0.013,0.045,0.039,0.013,0.084,0.013,0.006,0.026,0.013,0.052,0.111,0.0,0.5752,-1.0094,1.083,-0.5937,-1.3683,0.7563,-0.5906,-0.7747,0.0445,-0.2823,-0.4433,0.6796,-0.5676,0.0982,-0.5446,-0.2224,-0.1427,-0.2025,0.2212,0.2062,0.226,-0.2352,0.3023,-0.3096,-0.0411,-0.0539,-0.1208,-0.2004,0.2086,0.0539,-0.2998,-0.1483,-0.2807,0.2935,0.2691,-0.3142,0.5486,0.3804,-0.1072,0.0155,0.0481,-1.0,-0.5295,-0.7571,1.0,1.0,-1.0,1.0,-1.0,1.0,-1.0,1.0,-1.0,-1.0,-1.0,-1.0,-1.0,1.0,0.2321,0.0,0.0,0.0,0.0,0.0,0.0,0.0,0.0,0.0,0.3333,0.0,0.3333,0.0,0
3.64,run,7.08,5.0,-5.14,-5.31,3.13,0.0,0.05,0.0,0.481,33.84,-35.16,132.8,-34.63,-55.46,109.51,-31.73,-26.1,73.21,-18.54,-2.9,105.91,-34.28,23.55,34.98,-10.2,14.77,54.49,27.34,-33.87,137.86,-28.33,-44.0,98.58,-24.5,-36.55,82.4,-29.1,3.0,95.82,-35.0,18.0,24.45,-12.5,27.0,50.91,-1.0,-1.0,-1.0,1.0,1.0,-1.0,1.0,-1.0,1.0,-1.0,-1.0,-1.0,-1.0,-1.0,-1.0,-1.0,1.0,1.0,0.006,0.169,0.377,0.006,0.013,0.013,0.013,0.045,0.039,0.013,0.084,0.013,0.006,0.026,0.013,0.052,0.111,0.0,0.5844,-0.9848,1.0968,-0.5998,-1.3422,0.7317,-0.5752,-0.7961,0.043,-0.3053,-0.4234,0.6673,-0.586,0.0752,-0.5645,-0.1994,-0.1212,-0.2286,0.1894,0.2364,0.2099,-0.1876,0.3094,-0.3087,0.0288,-0.1182,-0.0903,-0.2265,0.2208,-0.0083,-0.2789,-0.19,-0.2712,0.2917,0.2689,-0.3177,0.5243,0.3848,-0.1135,-0.0027,0.1225,-1.0,-1.0,-1.0,1.0,1.0,-0.9881,1.0,-1.0,1.0,-1.0,-0.3951,-1.0,-1.0,-1.0,-1.0,-1.0,1.0,1.0,0.0,0.0,0.0,0.0,0.0,0.0,0.0,0.0,0.0,0.3333,0.0,0.3333,0.0,0
3.68,run,7.19,5.16,4.46,4.55,-1.59,0.0,0.05,0.0,0.826,33.93,-34.37,133.33,-34.45,-54.14,108.02,-30.32,-27.51,74.18,-19.95,-1.67,104.59,-34.8,22.24,33.66,-9.58,16.17,53.09,25.84,-35.37,136.36,-26.83,-42.5,97.08,-23.0,-38.05,83.9,-30.6,1.5,94.32,-35.0,16.5,22.95,-14.0,28.5,52.41,-1.0,-1.0,-1.0,1.0,1.0,-1.0,1.0,-1.0,1.0,-1.0,-1.0,-1.0,-1.0,-1.0,-1.0,-1.0,1.0,1.0,0.013,0.214,0.826,0.019,0.006,0.019,0.013,0.039,0.0,0.013,0.104,0.006,0.006,0.026,0.019,0.019,0.149,0.0,0.5937,-0.9649,1.106,-0.5998,-1.3177,0.7087,-0.5538,-0.8207,0.0491,-0.3283,-0.4019,0.6473,-0.5998,0.0506,-0.5952,-0.1795,-0.0982,-0.2516,0.1671,0.2403,0.1815,-0.1314,0.3086,-0.3024,0.1007,-0.1748,-0.0402,-0.2449,0.2351,-0.0806,-0.247,-0.2251,-0.305,0.279,0.2745,-0.3087,0.5046,0.3694,-0.0897,-0.0927,0.0547,-1.0,-1.0,-1.0,1.0,1.0,-1.0,1.0,-1.0,1.0,-1.0,-1.0,-1.0,-1.0,-1.0,-1.0,-1.0,1.0,1.0,0.0,0.0,0.0,0.0,0.0,0.0,0.0,0.0,0.0,0.3333,0.0,0.3333,0.0,0
3.72,run,7.2,5.49,2.44,5.55,-3.36,0.0,0.05,0.0,0.826,33.84,-33.66,133.68,-33.75,-52.65,106.61,-28.92,-29.09,75.41,-21.36,-0.62,103.18,-34.89,20.83,32.17,-9.14,17.49,51.94,24.34,-36.87,134.86,-25.33,-41.0,95.58,-21.5,-39.55,85.4,-32.1,0.0,92.82,-35.0,15.0,24.45,-15.5,30.0,53.91,-1.0,-1.0,-1.0,1.0,1.0,-1.0,1.0,-1.0,1.0,-1.0,-1.0,-1.0,-1.0,-1.0,0.0521,-1.0,1.0,1.0,0.013,0.214,0.826,0.019,0.006,0.019,0.013,0.039,0.0,0.013,0.104,0.006,0.006,0.026,0.019,0.019,0.149,0.0,0.5952,-0.9511,1.1152,-0.5967,-1.2947,0.6826,-0.5292,-0.8452,0.066,-0.3528,-0.3804,0.6243,-0.609,0.0276,-0.6182,-0.1687,-0.0736,-0.2761,0.1227,0.22,0.1615,-0.0804,0.3023,-0.3095,0.1625,-0.2144,0.0351,-0.2634,0.2451,-0.1427,-0.2074,-0.2439,-0.2998,0.2356,0.2842,-0.3081,0.5136,0.3832,0.0778,0.0795,-0.0277,-1.0,-1.0,-1.0,1.0,1.0,-1.0,1.0,-1.0,1.0,-1.0,-1.0,-1.0,-1.0,-1.0,-1.0,-1.0,1.0,1.0,0.0,0.0,0.0,0.0,0.0,0.0,0.0,0.0,0.0,0.3333,0.0,0.3333,0.0,0
3.76,run,6.79,4.91,-7.95,-18.28,-8.45,0.0,0.05,0.0,0.826,33.13,-33.4,133.77,-32.7,-51.24,105.21,-27.51,-30.67,76.64,-22.85,0.18,101.51,-34.89,19.42,30.76,-9.05,18.81,51.06,22.84,-38.37,133.36,-23.83,-39.5,94.08,-20.0,-41.05,86.9,-33.6,-1.5,91.32,-35.0,13.5,25.95,-17.0,30.0,55.41,-1.0,-1.0,-1.0,1.0,1.0,-1.0,1.0,-1.0,1.0,-1.0,-1.0,-1.0,-1.0,-1.0,1.0,-1.0,1.0,1.0,0.013,0.214,0.826,0.019,0.006,0.019,0.013,0.039,0.0,0.013,0.104,0.006,0.006,0.026,0.019,0.019,0.149,0.0,0.5937,-0.9388,1.1213,-0.5844,-1.2686,0.6581,-0.5047,-0.8728,0.0874,-0.3774,-0.362,0.5998,-0.6105,0.0031,-0.6443,-0.1611,-0.0506,-0.2961,0.0802,0.1999,0.1361,-0.0104,0.3093,-0.3085,0.2057,-0.2535,0.105,-0.2763,0.2405,-0.1918,-0.1509,-0.2626,-0.3075,0.1936,0.2851,-0.2904,0.5147,0.412,0.0426,0.0969,-0.0587,-1.0,-1.0,-1.0,1.0,1.0,-1.0,1.0,-1.0,1.0,-1.0,-1.0,-1.0,-1.0,-1.0,0.0521,-1.0,1.0,1.0,0.0,0.0,0.0,0.0,0.0,0.0,0.0,0.0,0.0,0.3333,0.0,0.3333,0.0,0
3.8,run,6.3,4.95,-8.91,1.15,-14.09,0.0,0.05,0.0,0.826,32.34,-33.4,133.77,-31.2,-49.75,103.71,-26.19,-32.08,77.87,-24.26,0.7,99.84,-34.89,18.02,29.36,-9.58,20.13,50.54,21.34,-39.87,131.86,-22.33,-38.0,92.58,-18.5,-42.55,88.4,-35.0,-3.0,89.82,-35.0,12.0,27.45,-18.5,28.5,56.91,-1.0,-1.0,-1.0,1.0,1.0,-1.0,1.0,-1.0,1.0,-1.0,-1.0,-1.0,-1.0,-1.0,0.5438,-1.0,0.0354,1.0,0.065,0.065,0.819,0.013,0.0,0.019,0.006,0.019,0.006,0.026,0.123,0.019,0.0,0.019,0.013,0.0,0.227,0.0,0.5814,-0.9342,1.1229,-0.566,-1.2441,0.6335,-0.4801,-0.9004,0.1089,-0.4034,-0.3482,0.5706,-0.6105,-0.0215,-0.6688,-0.1595,-0.0276,-0.3114,0.0101,0.1572,0.101,0.0618,0.3086,-0.308,0.236,-0.281,0.1541,-0.2913,0.2201,-0.2436,-0.1057,-0.2759,-0.3073,0.1413,0.2859,-0.2608,0.4791,0.3615,-0.1387,-0.319,-0.1474,-1.0,-1.0,-1.0,1.0,1.0,-1.0,1.0,-1.0,1.0,-1.0,-1.0,-1.0,-1.0,-1.0,1.0,-1.0,1.0,1.0,0.0,0.0,0.0,0.0,0.0,0.0,0.0,0.0,0.0,0.3333,0.0,0.3333,0.0,0
3.84,run,6.47,4.78,7.64,-8.55,-16.56,0.0,0.05,0.0,0.826,31.2,-33.31,133.77,-29.71,-48.52,102.3,-24.79,-33.57,79.19,-25.58,0.79,98.7,-34.89,16.61,28.12,-10.2,21.36,50.45,19.84,-41.37,130.36,-20.83,-36.5,91.08,-17.0,-44.05,89.9,-35.0,-4.5,88.32,-35.0,10.5,28.95,-20.0,27.0,58.41,-1.0,-1.0,-1.0,1.0,1.0,-1.0,1.0,-1.0,1.0,-1.0,-1.0,-1.0,-1.0,-0.5528,1.0,-1.0,0.7046,1.0,0.065,0.065,0.819,0.013,0.0,0.019,0.006,0.019,0.006,0.026,0.123,0.019,0.0,0.019,0.013,0.0,0.227,0.0,0.5676,-0.9342,1.1229,-0.54,-1.218,0.6075,-0.4571,-0.925,0.1304,-0.428,-0.339,0.5415,-0.6105,-0.046,-0.6934,-0.1687,-0.0046,-0.3206,-0.043,0.11,0.0707,0.1378,0.3105,-0.3102,0.2487,-0.2857,0.1857,-0.2929,0.1875,-0.2762,-0.074,-0.2821,-0.3041,0.0655,0.2835,-0.2159,0.4365,0.365,-0.1555,0.0201,-0.2459,-1.0,-1.0,-1.0,1.0,1.0,-1.0,1.0,-1.0,1.0,-1.0,-1.0,-1.0,-1.0,-1.0,0.5438,-1.0,0.0354,1.0,0.0,0.0,0.0,0.0,0.0,0.0,0.0,0.0,0.0,0.3333,0.0,0.3333,0.0,0
3.88,run,6.35,3.84,-1.73,-24.73,-20.39,0.0,0.05,0.0,0.826,29.88,-33.49,133.77,-28.48,-46.85,100.9,-23.82,-35.07,80.6,-26.98,0.79,97.21,-34.89,15.21,27.07,-11.43,22.59,50.45,18.34,-42.87,128.86,-19.33,-35.0,89.58,-15.5,-45.55,91.4,-35.0,-6.0,86.82,-35.0,9.0,30.45,-21.5,25.5,59.91,-1.0,-1.0,-1.0,1.0,0.1283,-1.0,1.0,-1.0,1.0,-1.0,-1.0,-1.0,-1.0,0.0742,1.0,-1.0,-0.0676,1.0,0.065,0.065,0.819,0.013,0.0,0.019,0.006,0.019,0.006,0.026,0.123,0.019,0.0,0.019,0.013,0.0,0.227,0.0,0.5476,-0.9327,1.1229,-0.5139,-1.1965,0.5829,-0.4326,-0.9511,0.1534,-0.451,-0.3375,0.5216,-0.6105,-0.0706,-0.7148,-0.1795,0.0169,-0.3221,-0.1075,0.083,0.0495,0.1976,0.3007,-0.3123,0.2693,-0.3012,0.2193,-0.2943,0.1372,-0.2707,-0.0518,-0.2927,-0.2962,0.0042,0.2818,-0.1571,0.4508,0.3496,0.1334,-0.1493,-0.2891,-1.0,-1.0,-1.0,1.0,1.0,-1.0,1.0,-1.0,1.0,-1.0,-1.0,-1.0,-1.0,-0.5528,1.0,-1.0,0.7046,1.0,0.0,0.0,0.0,0.0,0.0,0.0,0.0,0.0,0.0,0.3333,0.0,0.3333,0.0,0
3.92,run,6.62,3.51,8.31,-10.46,-17.48,0.0,0.05,0.0,0.826,28.48,-34.54,133.77,-26.54,-45.62,99.49,-22.06,-36.47,82.0,-28.39,0.79,95.8,-34.89,13.8,26.46,-12.74,23.64,50.62,16.84,-44.37,127.36,-17.83,-33.5,88.08,-14.0,-47.05,92.9,-35.0,-7.5,85.32,-35.0,10.5,31.95,-23.0,24.0,61.41,-1.0,-1.0,-1.0,1.0,-0.0805,-1.0,1.0,-1.0,1.0,-1.0,-0.3807,-1.0,-1.0,1.0,1.0,-1.0,-1.0,1.0,0.078,0.0,0.227,0.006,0.006,0.019,0.019,0.006,0.013,0.026,0.0,0.0,0.0,0.013,0.006,0.0,0.182,0.091,0.5246,-0.9357,1.1229,-0.4924,-1.1674,0.5584,-0.4157,-0.9771,0.1779,-0.4755,-0.3375,0.4955,-0.6105,-0.0951,-0.7332,-0.201,0.0383,-0.3221,-0.1617,0.0466,0.0346,0.219,0.32,-0.3108,0.2519,-0.3088,0.2457,-0.2982,0.096,-0.2875,-0.0362,-0.2971,-0.2765,-0.0777,0.2779,-0.11,0.4404,0.2677,-0.0302,-0.4316,-0.3558,-1.0,-1.0,-1.0,1.0,0.1283,-1.0,1.0,-1.0,1.0,-1.0,-1.0,-1.0,-1.0,0.0742,1.0,-1.0,-0.0676,1.0,0.0,0.0,0.0,0.0,0.0,0.0,0.0,0.0,0.0,0.3333,0.0,0.3333,0.0,0
3.96,run,7.55,2.79,21.12,-17.47,-14.94,0.0,0.05,0.0,0.826,26.81,-36.12,133.77,-25.22,-43.86,97.73,-20.3,-38.32,83.76,-30.06,-0.09,94.04,-34.89,12.22,26.02,-14.5,24.7,51.68,15.34,-45.87,125.86,-16.33,-35.0,86.58,-12.5,-48.55,94.4,-35.0,-9.0,83.82,-35.0,12.0,33.45,-24.5,22.5,62.91,-1.0,-0.4316,-1.0,1.0,-0.6735,-1.0,1.0,-1.0,1.0,-1.0,-0.8623,-1.0,-1.0,1.0,1.0,-1.0,-0.4739,1.0,0.078,0.0,0.227,0.006,0.006,0.019,0.019,0.006,0.013,0.026,0.0,0.0,0.0,0.013,0.006,0.0,0.182,0.091,0.5001,-0.9541,1.1229,-0.4587,-1.1459,0.5338,-0.385,-1.0017,0.2025,-0.5001,-0.3375,0.4709,-0.6105,-0.1197,-0.744,-0.224,0.0568,-0.3191,-0.2052,-0.0364,0.0242,0.2799,0.3045,-0.3096,0.2914,-0.3082,0.264,-0.3008,0.0672,-0.2933,-0.0254,-0.3,-0.2338,-0.1407,0.2636,-0.0655,0.4641,0.2394,0.1451,-0.1826,-0.3051,-1.0,-1.0,-1.0,1.0,-0.0805,-1.0,1.0,-1.0,1.0,-1.0,-0.3807,-1.0,-1.0,1.0,1.0,-1.0,-1.0,1.0,0.0,0.0,0.0,0.0,0.0,0.0,0.0,0.0,0.0,0.3333,0.0,0.3333,0.0,0
4.0,run,7.69,2.24,2.17,-14.76,-15.36,0.0,0.05,0.0,0.826,25.31,-37.44,133.24,-23.99,-42.36,96.24,-18.9,-39.73,85.25,-31.38,-1.14,92.55,-34.89,11.25,26.19,-16.0,25.31,52.82,13.84,-44.37,124.36,-14.83,-36.5,85.08,-11.0,-48.96,95.9,-35.0,-7.5,82.32,-33.5,13.5,34.95,-26.0,21.0,64.41,-1.0,-0.1116,-1.0,1.0,-1.0,-1.0,1.0,-0.4356,1.0,-1.0,1.0,-1.0,-0.6045,1.0,1.0,-1.0,-0.6971,1.0,0.078,0.0,0.227,0.006,0.006,0.019,0.019,0.006,0.013,0.026,0.0,0.0,0.0,0.013,0.006,0.0,0.182,0.091,0.4709,-0.9817,1.1229,-0.4357,-1.1152,0.5031,-0.3543,-1.0339,0.2332,-0.5292,-0.3528,0.4403,-0.6105,-0.1473,-0.7517,-0.2546,0.0752,-0.3007,-0.2343,-0.1114,0.017,0.2675,0.3086,-0.3122,0.2994,-0.316,0.2803,-0.3012,-0.0007,-0.3007,-0.0178,-0.2959,-0.1875,-0.1939,0.2418,0.0114,0.5456,0.1763,0.3687,-0.3049,-0.2608,-1.0,-0.4316,-1.0,1.0,-0.6735,-1.0,1.0,-1.0,1.0,-1.0,-0.8623,-1.0,-1.0,1.0,1.0,-1.0,-0.4739,1.0,0.0,0.0,0.0,0.0,0.0,0.0,0.0,0.0,0.0,0.3333,0.0,0.3333,0.0,0
4.04,run,7.34,1.6,-12.2,-17.41,-16.17,0.0,0.05,0.0,0.826,23.82,-38.76,132.36,-22.15,-40.96,94.92,-17.49,-41.22,86.57,-32.52,-2.46,91.14,-34.89,10.63,26.72,-17.4,25.49,54.05,12.34,-42.87,122.86,-13.33,-38.0,86.58,-9.5,-47.46,97.4,-35.0,-6.0,80.82,-32.0,15.0,36.45,-27.5,19.5,65.91,-1.0,0.5473,-1.0,1.0,-1.0,0.4515,1.0,0.1239,1.0,-1.0,1.0,-1.0,-0.7602,1.0,1.0,-1.0,-1.0,1.0,0.052,0.0,0.0,0.006,0.0,0.019,0.013,0.013,0.006,0.039,0.0,0.0,0.019,0.013,0.013,0.0,0.084,0.143,0.4449,-1.0048,1.1137,-0.4142,-1.0891,0.4771,-0.3298,-1.0584,0.2592,-0.5522,-0.3712,0.4142,-0.6105,-0.1641,-0.7486,-0.2807,0.0859,-0.2807,-0.2605,-0.1631,-0.0221,0.2667,0.3125,-0.315,0.3003,-0.3119,0.2926,-0.2959,-0.0685,-0.3069,-0.0124,-0.2695,-0.1199,-0.2322,0.209,0.0817,0.5575,0.1286,0.0378,-0.2576,-0.2681,-1.0,-0.1116,-1.0,1.0,-1.0,-1.0,1.0,-0.4356,1.0,-1.0,1.0,-1.0,-0.6045,1.0,1.0,-1.0,-0.6971,1.0,0.0,0.0,0.0,0.0,0.0,0.0,0.0,0.0,0.0,0.3333,0.0,0.3333,0.0,0
4.08,run,7.17,1.29,-4.67,-8.98,-14.64,0.0,0.05,0.0,0.826,22.32,-39.99,131.4,-20.65,-39.81,93.43,-16.17,-42.71,88.07,-33.49,-3.87,89.65,-34.28,10.28,27.86,-18.81,25.49,55.28,10.84,-41.37,121.36,-11.83,-39.5,85.08,-8.0,-45.96,98.9,-35.0,-4.5,79.32,-30.5,16.5,37.95,-29.0,18.0,67.41,-1.0,1.0,-1.0,1.0,-1.0,-0.2318,1.0,0.561,1.0,-1.0,1.0,-1.0,0.1057,0.7848,1.0,-1.0,-1.0,1.0,0.052,0.0,0.0,0.006,0.0,0.019,0.013,0.013,0.006,0.039,0.0,0.0,0.019,0.013,0.013,0.0,0.084,0.143,0.4188,-1.0278,1.0983,-0.382,-1.0646,0.4541,-0.3053,-1.0845,0.2823,-0.5722,-0.3942,0.3896,-0.6105,-0.1749,-0.7394,-0.3053,0.089,-0.2592,-0.2799,-0.2002,-0.0729,0.3072,0.3105,-0.3065,0.302,-0.3159,0.2909,-0.2818,-0.134,-0.3067,-0.0087,-0.2288,-0.0495,-0.2543,0.1577,0.1376,0.527,0.0723,-0.2129,-0.3038,-0.2821,-1.0,0.5473,-1.0,1.0,-1.0,0.4515,1.0,0.1239,1.0,-1.0,1.0,-1.0,-0.7602,1.0,1.0,-1.0,-1.0,1.0,0.0,0.0,0.0,0.0,0.0,0.0,0.0,0.0,0.0,0.3333,0.0,0.3333,0.0,0
4.12,run,6.82,2.19,-5.69,16.54,-13.78,0.0,0.05,0.0,0.826,20.57,-41.22,130.52,-19.78,-38.41,92.02,-14.85,-44.12,89.47,-34.19,-4.92,88.24,-33.31,10.55,28.74,-20.13,25.49,56.69,9.34,-39.87,119.86,-10.33,-41.0,83.58,-6.5,-44.46,100.4,-35.0,-3.0,77.82,-29.0,18.0,39.45,-30.5,16.5,68.91,-1.0,1.0,-1.0,1.0,-1.0,-0.0466,1.0,0.6094,1.0,-1.0,1.0,-1.0,0.6922,0.8647,1.0,-1.0,-1.0,1.0,0.052,0.0,0.0,0.006,0.0,0.019,0.013,0.013,0.006,0.039,0.0,0.0,0.019,0.013,0.013,0.0,0.084,0.143,0.3927,-1.0492,1.0815,-0.3559,-1.0446,0.428,-0.2823,-1.1106,0.3083,-0.589,-0.4188,0.3636,-0.5998,-0.181,-0.7194,-0.3298,0.089,-0.2378,-0.2945,-0.2213,-0.1148,0.3136,0.2927,-0.3131,0.2984,-0.3197,0.3022,-0.261,-0.1866,-0.3132,0.0345,-0.1834,0.0407,-0.2708,0.1104,0.1774,0.5118,0.0451,-0.0815,-0.1567,-0.2555,-1.0,1.0,-1.0,1.0,-1.0,-0.2318,1.0,0.561,1.0,-1.0,1.0,-1.0,0.1057,0.7848,1.0,-1.0,-1.0,1.0,0.0,0.0,0.0,0.0,0.0,0.0,0.0,0.0,0.0,0.3333,0.0,0.3333,0.0,0
4.16,run,6.76,1.7,-0.08,-11.32,2.55,0.0,0.05,0.0,0.826,18.72,-42.1,129.38,-18.37,-37.71,90.62,-13.45,-44.91,90.18,-34.8,-5.54,86.84,-32.17,10.9,30.5,-21.45,24.79,58.01,7.84,-38.37,118.36,-8.83,-42.5,85.08,-5.0,-42.96,101.9,-35.0,-4.5,76.32,-27.5,16.5,40.95,-32.0,15.0,70.41,-1.0,1.0,-1.0,1.0,-1.0,0.4056,1.0,0.6628,1.0,-1.0,-1.0,-1.0,1.0,0.6768,1.0,-1.0,-1.0,1.0,0.026,0.0,0.006,0.006,0.006,0.019,0.019,0.013,0.026,0.006,0.006,0.006,0.013,0.006,0.006,0.0,0.0,0.143,0.362,-1.0707,1.0661,-0.3405,-1.0201,0.4034,-0.2592,-1.1351,0.3329,-0.6013,-0.4372,0.339,-0.5829,-0.1764,-0.7041,-0.3528,0.089,-0.2132,-0.3211,-0.2354,-0.1378,0.277,0.2969,-0.3111,0.2951,-0.3157,0.3035,-0.2287,-0.1996,-0.3112,0.0874,-0.1111,0.086,-0.2758,0.0773,0.2162,0.4818,0.1238,-0.0994,0.2887,-0.2406,-1.0,1.0,-1.0,1.0,-1.0,-0.0466,1.0,0.6094,1.0,-1.0,1.0,-1.0,0.6922,0.8647,1.0,-1.0,-1.0,1.0,0.0,0.0,0.0,0.0,0.0,0.0,0.0,0.0,0.0,0.3333,0.0,0.3333,0.0,0
4.2,run,6.88,1.87,2.69,1.63,-0.41,0.0,0.05,0.0,0.826,17.67,-42.63,127.97,-16.61,-37.35,89.21,-12.04,-45.7,91.85,-34.8,-5.8,85.52,-30.76,11.69,31.46,-22.41,23.55,59.33,6.34,-36.87,116.86,-7.33,-44.0,86.58,-3.5,-41.46,103.4,-35.0,-3.0,74.82,-26.0,15.0,42.45,-33.5,13.5,71.91,-1.0,1.0,-1.0,1.0,-1.0,0.5171,1.0,0.8503,1.0,-1.0,1.0,-0.9423,1.0,-0.0905,1.0,-1.0,-1.0,1.0,0.026,0.0,0.006,0.006,0.006,0.019,0.019,0.013,0.026,0.006,0.006,0.006,0.013,0.006,0.006,0.0,0.0,0.143,0.3298,-1.0861,1.0462,-0.316,-1.0078,0.3789,-0.2347,-1.149,0.3451,-0.6121,-0.4479,0.3145,-0.563,-0.1703,-0.6734,-0.3758,0.0767,-0.1902,-0.345,-0.222,-0.1709,0.2855,0.2536,-0.3094,0.2982,-0.2726,0.2583,-0.2002,-0.1798,-0.3095,0.1356,-0.0549,0.1747,-0.279,0.0083,0.2372,0.4764,0.0809,-0.0013,-0.1976,0.0445,-1.0,1.0,-1.0,1.0,-1.0,0.4056,1.0,0.6628,1.0,-1.0,-1.0,-1.0,1.0,0.6768,1.0,-1.0,-1.0,1.0,0.0,0.0,0.0,0.0,0.0,0.0,0.0,0.0,0.0,0.3333,0.0,0.3333,0.0,0
4.24,run,6.21,2.08,-16.3,3.23,-14.01,0.0,0.05,0.0,0.826,16.08,-42.8,126.65,-15.47,-36.91,87.8,-10.63,-46.23,93.34,-34.89,-6.06,84.11,-29.44,12.83,33.22,-24.08,22.24,60.73,4.84,-35.37,115.36,-5.83,-45.5,88.08,-2.0,-39.96,104.9,-35.0,-4.5,73.32,-24.5,13.5,43.95,-35.0,12.0,73.41,-1.0,1.0,-1.0,1.0,-1.0,0.4638,1.0,0.4339,1.0,-1.0,-0.2014,-1.0,1.0,-0.8327,1.0,-1.0,-0.5846,1.0,0.026,0.0,0.006,0.006,0.006,0.019,0.019,0.013,0.026,0.006,0.006,0.006,0.013,0.006,0.006,0.0,0.0,0.143,0.3114,-1.0953,1.0216,-0.2853,-1.0017,0.3543,-0.2102,-1.1628,0.3743,-0.6121,-0.4525,0.2915,-0.5384,-0.1565,-0.6565,-0.3927,0.0552,-0.1672,-0.3105,-0.1899,-0.2116,0.3148,0.2005,-0.3086,0.3007,-0.2425,0.29,-0.1401,-0.1431,-0.3029,0.1869,0.0133,0.1856,-0.2585,-0.0747,0.2523,0.4872,0.0957,0.0469,0.0285,-0.0071,-1.0,1.0,-1.0,1.0,-1.0,0.5171,1.0,0.8503,1.0,-1.0,1.0,-0.9423,1.0,-0.0905,1.0,-1.0,-1.0,1.0,0.0,0.0,0.0,0.0,0.0,0.0,0.0,0.0,0.0,0.3333,0.0,0.3333,0.0,0
4.28,run,5.2,1.9,-27.01,-8.1,-26.83,0.0,0.05,0.0,0.826,14.85,-42.8,125.24,-13.97,-37.0,86.75,-9.32,-46.32,94.66,-34.98,-6.06,82.62,-28.12,13.97,34.54,-25.4,20.74,62.05,3.34,-33.87,113.86,-4.33,-47.0,89.58,-0.5,-38.46,106.4,-35.0,-6.0,71.82,-23.0,12.0,45.45,-35.0,10.5,74.91,-1.0,1.0,-1.0,1.0,-1.0,1.0,1.0,0.5788,1.0,-1.0,-1.0,-1.0,1.0,-1.0,1.0,-1.0,-1.0,1.0,0.019,0.019,0.013,0.013,0.019,0.006,0.013,0.006,0.026,0.0,0.033,0.0,0.019,0.006,0.019,0.019,0.0,0.182,0.2838,-1.0983,0.9986,-0.2654,-0.994,0.3298,-0.1856,-1.172,0.4004,-0.6136,-0.4571,0.2669,-0.5154,-0.1365,-0.6259,-0.4218,0.0322,-0.1427,-0.3209,-0.1445,-0.2345,0.2952,0.1691,-0.3081,0.3026,-0.2043,0.3008,-0.1038,-0.1174,-0.3041,0.2172,0.0841,0.245,-0.2903,-0.1386,0.2687,0.4288,0.1141,-0.2846,0.0564,-0.2444,-1.0,1.0,-1.0,1.0,-1.0,0.4638,1.0,0.4339,1.0,-1.0,-0.2014,-1.0,1.0,-0.8327,1.0,-1.0,-0.5846,1.0,0.0,0.0,0.0,0.0,0.0,0.0,0.0,0.0,0.0,0.3333,0.0,0.3333,0.0,0
4.32,run,4.93,1.75,-6.2,-3.89,-23.3,0.0,0.05,0.0,0.826,13.36,-42.63,123.84,-12.48,-37.62,85.87,-7.91,-45.97,95.98,-35.33,-5.8,81.21,-26.72,14.06,35.86,-26.89,19.34,63.37,1.84,-32.37,112.36,-2.83,-45.5,91.08,1.0,-36.96,107.9,-35.0,-7.5,70.32,-21.5,10.5,46.95,-35.0,9.0,76.41,-1.0,1.0,-1.0,1.0,-0.3653,1.0,1.0,1.0,1.0,-1.0,-1.0,-0.6756,1.0,-1.0,0.3439,-1.0,-1.0,1.0,0.019,0.019,0.013,0.013,0.019,0.006,0.013,0.006,0.026,0.0,0.033,0.0,0.019,0.006,0.019,0.019,0.0,0.182,0.2623,-1.0983,0.9741,-0.2393,-0.9956,0.3114,-0.1626,-1.1735,0.4234,-0.6151,-0.4571,0.2408,-0.4924,-0.1166,-0.6029,-0.4449,0.0061,-0.1197,-0.3051,-0.1011,-0.256,0.3043,0.1127,-0.2846,0.298,-0.1488,0.2968,-0.0784,-0.0822,-0.3105,0.2382,0.1336,0.2577,-0.2894,-0.1947,0.2742,0.3402,0.0986,-0.4714,-0.1413,-0.4683,-1.0,1.0,-1.0,1.0,-1.0,1.0,1.0,0.5788,1.0,-1.0,-1.0,-1.0,1.0,-1.0,1.0,-1.0,-1.0,1.0,0.0,0.0,0.0,0.0,0.0,0.0,0.0,0.0,0.0,0.3333,0.0,0.3333,0.0,0
4.36,run,4.83,1.74,0.34,-1.08,-0.3,0.0,0.05,0.0,0.826,11.95,-41.92,122.52,-10.9,-38.58,85.43,-6.42,-45.26,97.38,-35.16,-5.62,79.8,-25.49,14.85,37.18,-28.21,17.93,64.95,0.34,-30.87,110.86,-1.33,-47.0,92.58,2.5,-35.46,109.4,-35.0,-9.0,68.82,-20.0,9.0,48.45,-35.0,7.5,77.91,-1.0,1.0,-1.0,1.0,-1.0,1.0,1.0,0.9803,1.0,-1.0,-1.0,-0.4455,1.0,-1.0,0.5436,-1.0,-0.9619,1.0,0.019,0.019,0.013,0.013,0.019,0.006,0.013,0.006,0.026,0.0,0.033,0.0,0.019,0.006,0.019,0.019,0.0,0.182,0.2362,-1.0953,0.9495,-0.2132,-1.0063,0.2961,-0.1381,-1.1674,0.4464,-0.6213,-0.4525,0.2163,-0.4679,-0.115,-0.5798,-0.4709,-0.0184,-0.0966,-0.312,-0.0592,-0.2719,0.3115,0.0383,-0.2571,0.3012,-0.081,0.2946,-0.0781,-0.0402,-0.31,0.2594,0.0993,0.2672,-0.301,-0.2289,0.2788,0.3168,0.0856,-0.1082,-0.0679,-0.4067,-1.0,1.0,-1.0,1.0,-0.3653,1.0,1.0,1.0,1.0,-1.0,-1.0,-0.6756,1.0,-1.0,0.3439,-1.0,-1.0,1.0,0.0,0.0,0.0,0.0,0.0,0.0,0.0,0.0,0.0,0.3333,0.0,0.3333,0.0,0
4.4,run,4.59,1.87,-4.53,1.12,6.61,0.0,0.05,0.0,0.826,10.63,-40.96,121.03,-9.67,-39.81,85.34,-5.1,-44.21,98.7,-35.07,-5.62,78.49,-23.99,14.5,38.5,-29.53,16.52,66.36,-1.16,-29.37,109.36,0.17,-48.5,94.08,4.0,-33.96,110.9,-35.0,-10.5,67.32,-18.5,7.5,49.95,-35.0,6.0,79.41,-1.0,1.0,-1.0,1.0,-1.0,1.0,1.0,0.8517,1.0,-1.0,-1.0,-0.2936,1.0,-0.9476,0.3438,-1.0,-0.6325,1.0,0.026,0.033,0.006,0.026,0.026,0.013,0.039,0.019,0.045,0.0,0.0,0.006,0.026,0.0,0.033,0.033,0.0,0.169,0.2117,-1.083,0.9265,-0.1856,-1.0232,0.2884,-0.112,-1.1551,0.4709,-0.6182,-0.4495,0.1917,-0.4464,-0.1012,-0.5568,-0.4939,-0.043,-0.069,-0.3099,0.0043,-0.2761,0.321,-0.0361,-0.2086,0.3081,-0.0109,0.2977,-0.0432,-0.0167,-0.3085,0.2616,0.121,0.2728,-0.2965,-0.2517,0.2981,0.308,0.0844,0.006,-0.0188,-0.0053,-1.0,1.0,-1.0,1.0,-1.0,1.0,1.0,0.9803,1.0,-1.0,-1.0,-0.4455,1.0,-1.0,0.5436,-1.0,-0.9619,1.0,0.0,0.0,0.0,0.0,0.0,0.0,0.0,0.0,0.0,0.3333,0.0,0.3333,0.0,0
4.44,run,4.46,1.68,-1.72,-6.48,1.68,0.0,0.05,0.0,0.826,9.23,-39.64,119.62,-8.26,-41.13,85.61,-3.78,-43.15,100.02,-35.16,-5.98,77.08,-22.68,14.24,39.9,-30.85,15.21,67.85,-2.66,-27.87,107.86,1.67,-50.0,95.58,5.5,-32.46,112.4,-35.0,-12.0,65.82,-17.0,6.0,51.45,-35.0,4.5,80.91,-1.0,1.0,-1.0,1.0,-0.5007,1.0,1.0,0.7764,0.6083,-1.0,-1.0,-0.3913,1.0,-0.8666,0.0698,-1.0,-0.5719,1.0,0.026,0.033,0.006,0.026,0.026,0.013,0.039,0.019,0.045,0.0,0.0,0.006,0.026,0.0,0.033,0.033,0.0,0.169,0.1887,-1.0661,0.9004,-0.1641,-1.0446,0.2869,-0.089,-1.1367,0.4939,-0.6167,-0.4495,0.1687,-0.4203,-0.1074,-0.5338,-0.517,-0.0675,-0.0445,-0.3037,0.0667,-0.2916,0.3057,-0.1063,-0.1518,0.3024,0.0618,0.2952,-0.0245,-0.0117,-0.3027,0.2815,0.0615,0.2778,-0.2943,-0.2688,0.3013,0.2868,0.0958,-0.079,0.0195,0.1153,-1.0,1.0,-1.0,1.0,-1.0,1.0,1.0,0.8517,1.0,-1.0,-1.0,-0.2936,1.0,-0.9476,0.3438,-1.0,-0.6325,1.0,0.0,0.0,0.0,0.0,0.0,0.0,0.0,0.0,0.0,0.3333,0.0,0.3333,0.0,0
4.48,run,4.17,1.61,-7.22,-1.64,-6.65,0.0,0.05,0.0,0.826,7.73,-38.32,118.12,-6.86,-42.54,86.48,-2.37,-41.92,101.34,-35.07,-6.77,75.85,-21.27,13.36,41.31,-32.08,13.8,69.26,-4.16,-26.37,106.36,3.17,-51.5,97.08,7.0,-30.96,110.9,-35.0,-13.5,67.32,-15.5,4.5,49.95,-35.0,3.0,82.41,-1.0,1.0,-1.0,1.0,-0.5387,1.0,1.0,0.9373,-0.5659,-1.0,-1.0,0.269,1.0,0.098,-0.8681,-1.0,-0.2724,1.0,0.026,0.033,0.006,0.026,0.026,0.013,0.039,0.019,0.045,0.0,0.0,0.006,0.026,0.0,0.033,0.033,0.0,0.169,0.1641,-1.0431,0.8759,-0.1396,-1.0677,0.2915,-0.066,-1.1183,0.517,-0.6182,-0.4556,0.1442,-0.3973,-0.112,-0.5093,-0.54,-0.0905,-0.0184,-0.3042,0.1325,-0.2957,0.3055,-0.1602,-0.0891,0.2975,0.1119,0.2925,-0.0228,-0.0311,-0.3035,0.2829,0.0259,0.286,-0.2919,-0.274,0.3082,0.2756,0.0792,-0.0301,-0.113,0.0294,-1.0,1.0,-1.0,1.0,-0.5007,1.0,1.0,0.7764,0.6083,-1.0,-1.0,-0.3913,1.0,-0.8666,0.0698,-1.0,-0.5719,1.0,0.0,0.0,0.0,0.0,0.0,0.0,0.0,0.0,0.0,0.3333,0.0,0.3333,0.0,0
4.52,run,3.72,1.5,-13.09,-3.97,-12.01,0.0,0.05,0.0,0.826,6.33,-36.91,116.72,-5.45,-43.95,87.54,-1.05,-40.78,102.66,-35.07,-7.38,74.27,-19.95,12.13,42.71,-33.13,12.39,70.66,-5.66,-24.87,104.86,4.67,-50.0,98.58,8.5,-29.46,109.4,-35.0,-15.0,68.82,-14.0,6.0,48.45,-35.0,1.5,83.91,-1.0,1.0,-1.0,1.0,0.7177,1.0,1.0,1.0,-1.0,-1.0,-1.0,0.7824,1.0,0.7904,-1.0,-1.0,0.3929,1.0,0.013,0.039,0.013,0.019,0.026,0.019,0.039,0.111,0.065,0.0,0.026,0.006,0.033,0.006,0.039,0.039,0.0,0.143,0.1381,-1.0201,0.8498,-0.115,-1.0922,0.3068,-0.0414,-1.0968,0.54,-0.6167,-0.4694,0.1227,-0.3728,-0.1273,-0.4847,-0.5614,-0.115,0.0061,-0.3107,0.179,-0.3048,0.3059,-0.2042,-0.0048,0.3003,0.1589,0.291,-0.0102,-0.0735,-0.293,0.29,-0.0394,0.2922,-0.2848,-0.2838,0.3077,0.2502,0.0734,-0.126,-0.0287,-0.1161,-1.0,1.0,-1.0,1.0,-0.5387,1.0,1.0,0.9373,-0.5659,-1.0,-1.0,0.269,1.0,0.098,-0.8681,-1.0,-0.2724,1.0,0.0,0.0,0.0,0.0,0.0,0.0,0.0,0.0,0.0,0.3333,0.0,0.3333,0.0,0
4.56,run,3.05,1.11,-17.31,-10.71,-14.77,0.0,0.05,0.0,0.826,4.92,-35.42,115.31,-4.04,-45.35,88.77,0.35,-39.64,103.97,-35.07,-9.05,72.86,-18.46,10.81,44.12,-33.84,10.99,72.07,-7.16,-23.37,103.36,6.17,-48.5,100.08,10.0,-27.96,107.9,-35.0,-16.5,70.32,-12.5,7.5,46.95,-35.0,0.0,85.41,-1.0,1.0,-1.0,0.799,1.0,1.0,1.0,1.0,-1.0,-1.0,-1.0,1.0,1.0,1.0,-1.0,-1.0,0.1783,1.0,0.013,0.039,0.013,0.019,0.026,0.019,0.039,0.111,0.065,0.0,0.026,0.006,0.033,0.006,0.039,0.039,0.0,0.143,0.1135,-0.9956,0.8253,-0.0905,-1.1167,0.3252,-0.0184,-1.0769,0.563,-0.6167,-0.4801,0.0951,-0.3497,-0.1488,-0.4602,-0.5798,-0.1396,0.0307,-0.3096,0.2174,-0.3054,0.3062,-0.235,0.0657,0.2965,0.186,0.29,-0.0072,-0.0917,-0.3087,0.2894,-0.1081,0.2966,-0.2684,-0.2908,0.3075,0.2114,0.0635,-0.2285,-0.0693,-0.2097,-1.0,1.0,-1.0,1.0,0.7177,1.0,1.0,1.0,-1.0,-1.0,-1.0,0.7824,1.0,0.7904,-1.0,-1.0,0.3929,1.0,0.0,0.0,0.0,0.0,0.0,0.0,0.0,0.0,0.0,0.3333,0.0,0.3333,0.0,0
4.6,run,2.44,0.86,-15.15,-8.1,-8.73,0.0,0.05,0.0,0.826,3.52,-33.84,113.91,-2.55,-46.76,90.26,1.67,-38.41,105.29,-35.07,-10.55,71.54,-17.14,9.4,45.44,-34.37,9.49,73.56,-8.66,-21.87,101.86,4.67,-47.0,101.58,11.5,-26.46,106.4,-33.5,-18.0,71.82,-11.0,9.0,45.45,-35.0,-1.5,86.91,-1.0,1.0,-1.0,-0.7701,1.0,1.0,1.0,1.0,-1.0,-0.8583,-1.0,1.0,1.0,1.0,-1.0,-1.0,-0.5512,1.0,0.013,0.039,0.013,0.019,0.026,0.019,0.039,0.111,0.065,0.0,0.026,0.006,0.033,0.006,0.039,0.039,0.0,0.143,0.089,-0.9695,0.8007,-0.066,-1.1413,0.3467,0.0061,-1.0569,0.586,-0.6167,-0.5093,0.0706,-0.3237,-0.1718,-0.4357,-0.5921,-0.1641,0.0552,-0.3091,0.2504,-0.3062,0.3068,-0.257,0.1269,0.3,0.2053,0.2897,-0.005,-0.174,-0.3085,0.3008,-0.1624,0.3001,-0.2341,-0.296,0.3077,0.1525,0.0296,-0.3022,-0.1869,-0.2578,-1.0,1.0,-1.0,0.799,1.0,1.0,1.0,1.0,-1.0,-1.0,-1.0,1.0,1.0,1.0,-1.0,-1.0,0.1783,1.0,0.0,0.0,0.0,0.0,0.0,0.0,0.0,0.0,0.0,0.3333,0.0,0.3333,0.0,0
4.64,run,2.1,0.94,-7.44,0.16,4.34,0.0,0.05,0.0,0.826,2.11,-32.43,112.5,-1.05,-47.9,91.67,2.99,-37.27,106.35,-34.89,-12.04,70.49,-15.64,8.44,46.49,-34.45,8.09,74.97,-10.16,-20.37,100.36,3.17,-45.5,103.08,13.0,-27.96,104.9,-32.0,-19.5,73.32,-9.5,10.5,43.95,-35.0,-3.0,88.41,-1.0,1.0,-0.6927,-1.0,1.0,0.7038,1.0,-0.2333,-1.0,-0.2074,-1.0,1.0,1.0,1.0,-0.8763,-1.0,-1.0,1.0,0.019,0.033,0.006,0.013,0.006,0.013,0.052,0.24,0.058,0.006,0.006,0.006,0.039,0.0,0.026,0.019,0.0,0.149,0.0644,-0.9419,0.7762,-0.0399,-1.1658,0.3728,0.0291,-1.0354,0.609,-0.6167,-0.5354,0.0476,-0.3007,-0.1963,-0.4126,-0.6013,-0.1902,0.0813,-0.308,0.2784,-0.306,0.3121,-0.2715,0.1862,0.2959,0.2239,0.2887,-0.0035,-0.2192,-0.3019,0.2964,-0.2053,0.296,-0.1983,-0.3045,0.3127,0.0995,0.0078,-0.2645,-0.1413,-0.1524,-1.0,1.0,-1.0,-0.7701,1.0,1.0,1.0,1.0,-1.0,-0.8583,-1.0,1.0,1.0,1.0,-1.0,-1.0,-0.5512,1.0,0.0,0.0,0.0,0.0,0.0,0.0,0.0,0.0,0.0,0.3333,0.0,0.3333,0.0,0
4.68,run,1.98,1.12,-2.56,2.85,9.4,0.0,0.05,0.0,0.826,0.7,-31.11,111.09,0.18,-48.78,93.08,4.39,-36.12,107.14,-34.1,-13.27,69.7,-14.41,7.65,47.2,-34.45,6.77,76.38,-11.66,-18.87,98.86,1.67,-44.0,101.58,14.5,-29.46,103.4,-30.5,-21.0,74.82,-8.0,12.0,45.45,-35.0,-4.5,89.91,-1.0,1.0,-0.3552,-1.0,0.158,-0.287,1.0,-1.0,-1.0,0.7028,-1.0,1.0,0.7846,1.0,0.2779,-1.0,-1.0,1.0,0.019,0.033,0.006,0.013,0.006,0.013,0.052,0.24,0.058,0.006,0.006,0.006,0.039,0.0,0.026,0.019,0.0,0.149,0.0399,-0.9173,0.7517,-0.0138,-1.1858,0.3973,0.0522,-1.0155,0.6274,-0.6136,-0.5614,0.0291,-0.2746,-0.2132,-0.3942,-0.6029,-0.2148,0.1058,-0.3076,0.2869,-0.3062,0.3162,-0.2648,0.2223,0.2934,0.2315,0.2711,0.009,-0.2512,-0.2803,0.3053,-0.207,0.2762,-0.1445,-0.3052,0.3109,0.0697,0.015,-0.1299,0.0027,0.0757,-1.0,1.0,-0.6927,-1.0,1.0,0.7038,1.0,-0.2333,-1.0,-0.2074,-1.0,1.0,1.0,1.0,-0.8763,-1.0,-1.0,1.0,0.0,0.0,0.0,0.0,0.0,0.0,0.0,0.0,0.0,0.3333,0.0,0.3333,0.0,0
4.72,run,1.82,1.13,-4.21,-1.05,4.03,0.0,0.05,0.0,0.826,-0.62,-29.79,109.6,1.23,-49.31,94.57,5.8,-35.07,107.67,-33.31,-14.59,69.26,-13.1,7.29,47.72,-34.45,5.36,77.87,-13.16,-17.37,100.36,0.17,-45.5,100.08,16.0,-30.96,101.9,-29.0,-22.5,76.32,-9.5,13.5,46.95,-35.0,-6.0,91.41,-1.0,1.0,0.7498,-1.0,-0.6268,-0.7653,1.0,-1.0,-1.0,1.0,-1.0,1.0,-1.0,1.0,0.6084,-1.0,-1.0,1.0,0.019,0.033,0.006,0.013,0.006,0.013,0.052,0.24,0.058,0.006,0.006,0.006,0.039,0.0,0.026,0.019,0.0,0.149,0.0153,-0.8943,0.7271,0.0077,-1.2011,0.4218,0.0767,-0.9956,0.6412,-0.5998,-0.5829,0.0153,-0.2531,-0.227,-0.382,-0.6029,-0.2378,0.1304,-0.3073,0.287,-0.3063,0.3018,-0.2428,0.2476,0.2974,0.2368,0.2415,0.0581,-0.2563,-0.248,0.2942,-0.1966,0.2393,-0.1012,-0.2999,0.3096,0.0591,0.0301,-0.0448,0.0498,0.1641,-1.0,1.0,-0.3552,-1.0,0.158,-0.287,1.0,-1.0,-1.0,0.7028,-1.0,1.0,0.7846,1.0,0.2779,-1.0,-1.0,1.0,0.0,0.0,0.0,0.0,0.0,0.0,0.0,0.0,0.0,0.3333,0.0,0.3333,0.0,0
4.76,run,1.38,1.02,-9.54,-2.37,8.99,0.0,0.05,0.0,0.826,-2.02,-28.39,108.19,2.11,-49.57,95.98,7.29,-34.01,107.75,-32.17,-16.08,69.26,-11.87,7.03,47.9,-34.45,3.87,79.28,-14.66,-15.87,101.86,-1.33,-47.0,98.58,14.5,-32.46,100.4,-27.5,-24.0,77.82,-11.0,15.0,45.45,-35.0,-7.5,89.91,-0.5793,1.0,1.0,-1.0,-1.0,-1.0,-0.728,-1.0,-1.0,1.0,-1.0,1.0,-1.0,1.0,-0.5799,-1.0,-1.0,-0.8053,0.033,0.045,0.006,0.006,0.006,0.013,0.045,0.442,0.026,0.013,0.019,0.006,0.039,0.052,0.006,0.026,0.0,0.149,-0.0077,-0.8713,0.701,0.0261,-1.2103,0.4479,0.1012,-0.9771,0.6504,-0.586,-0.6059,0.0077,-0.2301,-0.2332,-0.3728,-0.6029,-0.2623,0.1565,-0.3015,0.2873,-0.3123,0.2804,-0.2045,0.2712,0.3003,0.2348,0.2036,0.0925,-0.2658,-0.2023,0.2923,-0.1606,0.2021,-0.0708,-0.302,0.3146,0.0455,0.0313,-0.0734,-0.0183,0.0704,-1.0,1.0,0.7498,-1.0,-0.6268,-0.7653,1.0,-1.0,-1.0,1.0,-1.0,1.0,-1.0,1.0,0.6084,-1.0,-1.0,1.0,0.0,0.0,0.0,0.0,0.0,0.0,0.0,0.0,0.0,0.3333,0.0,0.3333,0.0,0
4.8,run,1.26,1.23,-1.56,4.54,6.27,0.0,0.05,0.0,0.826,-3.69,-26.81,106.52,2.72,-49.48,97.47,8.96,-32.96,107.75,-30.5,-17.67,69.61,-10.63,7.29,47.46,-34.45,2.29,81.04,-16.16,-17.37,103.36,-2.83,-45.5,97.08,13.0,-33.96,98.9,-26.0,-25.5,79.32,-12.5,16.5,43.95,-35.0,-9.0,88.41,-0.8869,-0.3963,1.0,-1.0,0.0012,-0.1223,-1.0,-0.4413,-1.0,1.0,-0.7157,1.0,-1.0,1.0,-0.7043,-1.0,-1.0,-1.0,0.033,0.045,0.006,0.006,0.006,0.013,0.045,0.442,0.026,0.013,0.019,0.006,0.039,0.052,0.006,0.026,0.0,0.149,-0.0322,-0.8468,0.6765,0.0414,-1.2149,0.4725,0.1273,-0.9587,0.6519,-0.566,-0.632,0.0077,-0.2086,-0.2378,-0.3697,-0.6029,-0.2884,0.181,-0.3037,0.2937,-0.3112,0.2541,-0.1605,0.2824,0.3086,0.2338,0.1483,0.14,-0.2844,-0.1416,0.2856,-0.1298,0.153,-0.0496,-0.3098,0.3128,0.0073,0.0214,-0.1665,-0.0414,0.1569,-0.5793,1.0,1.0,-1.0,-1.0,-1.0,-0.728,-1.0,-1.0,1.0,-1.0,1.0,-1.0,1.0,-0.5799,-1.0,-1.0,-0.8053,0.0,0.0,0.0,0.0,0.0,0.0,0.0,0.0,0.0,0.3333,0.0,0.3333,0.0,0
4.84,run,0.98,1.41,-5.27,0.97,6.8,0.0,0.05,0.0,0.826,-5.1,-25.49,105.03,2.81,-49.04,98.35,10.28,-32.34,107.58,-29.27,-19.16,70.4,-9.93,7.91,46.58,-34.45,0.88,82.53,-17.66,-18.75,104.86,-4.33,-44.0,95.58,11.5,-35.46,97.4,-24.5,-27.0,80.82,-14.0,18.0,45.45,-35.0,-10.5,86.91,-0.7325,0.1136,1.0,-1.0,0.0106,-0.6917,-1.0,-1.0,-1.0,1.0,-1.0,1.0,-1.0,1.0,0.2326,-1.0,-1.0,-1.0,0.033,0.045,0.006,0.006,0.006,0.013,0.045,0.442,0.026,0.013,0.019,0.006,0.039,0.052,0.006,0.026,0.0,0.149,-0.0614,-0.8191,0.6473,0.0522,-1.2134,0.4985,0.1565,-0.9403,0.6519,-0.5369,-0.6596,0.0138,-0.1871,-0.2332,-0.3774,-0.6029,-0.316,0.2117,-0.3044,0.2926,-0.3097,0.2117,-0.1075,0.2799,0.3079,0.2217,0.1038,0.1898,-0.2861,-0.0798,0.2676,-0.0764,0.0829,-0.0347,-0.3039,0.3157,-0.0033,0.0399,-0.0272,0.0792,0.1094,-0.8869,-0.3963,1.0,-1.0,0.0012,-0.1223,-1.0,-0.4413,-1.0,1.0,-0.7157,1.0,-1.0,1.0,-0.7043,-1.0,-1.0,-1.0,0.0,0.0,0.0,0.0,0.0,0.0,0.0,0.0,0.0,0.3333,0.0,0.3333,0.0,0
4.88,run,0.85,1.42,-4.26,-1.93,9.24,0.0,0.05,0.0,0.826,-6.5,-24.08,103.89,2.72,-47.99,99.05,11.43,-31.9,106.79,-27.86,-20.57,71.54,-9.49,8.79,45.88,-34.45,-0.44,83.85,-16.16,-20.25,106.36,-5.83,-45.5,94.08,10.0,-33.96,95.9,-23.0,-28.5,82.32,-15.5,19.5,46.95,-35.0,-12.0,85.41,1.0,-0.3462,1.0,-1.0,-0.3741,-0.9274,-1.0,0.0875,-1.0,1.0,-0.77,1.0,-1.0,1.0,-0.128,-1.0,-1.0,-1.0,0.039,0.071,0.0,0.019,0.006,0.0,0.045,0.299,0.006,0.013,0.019,0.013,0.013,0.143,0.006,0.026,0.0,0.084,-0.0859,-0.7961,0.6213,0.0537,-1.2057,0.5139,0.1795,-0.9296,0.6489,-0.5154,-0.6857,0.0276,-0.1749,-0.2224,-0.3927,-0.6029,-0.3405,0.2378,-0.3046,0.2907,-0.3141,0.1539,-0.0467,0.2532,0.3013,0.1952,0.0612,0.213,-0.2976,-0.0044,0.2331,-0.0134,0.0008,-0.0243,-0.3043,0.3183,-0.0281,0.0556,-0.0921,0.017,0.1188,-0.7325,0.1136,1.0,-1.0,0.0106,-0.6917,-1.0,-1.0,-1.0,1.0,-1.0,1.0,-1.0,1.0,0.2326,-1.0,-1.0,-1.0,0.0,0.0,0.0,0.0,0.0,0.0,0.0,0.0,0.0,0.3333,0.0,0.3333,0.0,0
4.92,run,0.74,1.4,-1.58,-1.61,3.49,0.0,0.05,0.0,0.826,-8.09,-22.68,102.83,2.11,-46.67,99.32,12.48,-31.82,105.56,-26.19,-22.32,73.12,-9.58,10.28,45.18,-34.45,-2.02,85.17,-14.66,-21.75,107.86,-7.33,-47.0,92.58,8.5,-32.46,94.4,-21.5,-30.0,83.82,-17.0,21.0,45.45,-35.0,-13.5,83.91,0.3105,-0.1284,1.0,-1.0,-0.7624,-1.0,-1.0,0.4008,-1.0,1.0,-0.757,1.0,-1.0,1.0,-1.0,-1.0,-1.0,-1.0,0.039,0.071,0.0,0.019,0.006,0.0,0.045,0.299,0.006,0.013,0.019,0.013,0.013,0.143,0.006,0.026,0.0,0.084,-0.1104,-0.7716,0.6013,0.0522,-1.1873,0.5262,0.1994,-0.9219,0.6351,-0.4909,-0.7102,0.0476,-0.1672,-0.2071,-0.405,-0.6029,-0.3636,0.2608,-0.3053,0.2955,-0.2946,0.102,0.0364,0.2232,0.2857,0.1654,-0.0089,0.2411,-0.3003,0.0717,0.1919,0.0481,-0.0454,-0.017,-0.2993,0.309,-0.039,0.0567,-0.0743,-0.0336,0.1613,1.0,-0.3462,1.0,-1.0,-0.3741,-0.9274,-1.0,0.0875,-1.0,1.0,-0.77,1.0,-1.0,1.0,-0.128,-1.0,-1.0,-1.0,0.0,0.0,0.0,0.0,0.0,0.0,0.0,0.0,0.0,0.3333,0.0,0.3333,0.0,0
4.96,run,0.71,1.34,-1.36,-2.7,2.7,0.0,0.05,0.0,0.826,-9.49,-21.71,102.13,0.79,-45.88,99.23,13.01,-31.82,104.33,-24.87,-23.73,74.53,-9.93,11.6,45.09,-34.45,-3.43,86.04,-16.16,-23.25,109.36,-8.83,-48.5,91.08,7.0,-30.96,92.9,-20.0,-31.5,85.32,-18.5,22.5,43.95,-33.5,-15.0,82.41,-1.0,-0.5243,1.0,-1.0,-0.5274,-1.0,-1.0,0.5134,-1.0,1.0,-0.7044,1.0,-1.0,1.0,-1.0,-0.7261,-1.0,-1.0,0.039,0.071,0.0,0.019,0.006,0.0,0.045,0.299,0.006,0.013,0.019,0.013,0.013,0.143,0.006,0.026,0.0,0.084,-0.1381,-0.747,0.5829,0.0414,-1.1643,0.5308,0.2178,-0.9204,0.6136,-0.4617,-0.7409,0.0752,-0.1687,-0.181,-0.4172,-0.6029,-0.3912,0.2838,-0.3005,0.284,-0.2641,0.0377,0.0977,0.1707,0.2578,0.1206,-0.0737,0.2604,-0.3066,0.137,0.1295,0.1156,-0.0704,-0.0119,-0.2962,0.2886,-0.0493,0.055,-0.0276,-0.0282,0.0609,0.3105,-0.1284,1.0,-1.0,-0.7624,-1.0,-1.0,0.4008,-1.0,1.0,-0.757,1.0,-1.0,1.0,-1.0,-1.0,-1.0,-1.0,0.0,0.0,0.0,0.0,0.0,0.0,0.0,0.0,0.0,0.3333,0.0,0.3333,0.0,0
5.0,run,0.65,1.37,0.21,-0.33,1.64,0.0,0.05,0.0,0.826,-10.9,-21.01,101.95,-0.53,-45.35,98.53,13.18,-31.82,103.54,-23.55,-25.14,75.94,-10.63,12.83,44.82,-34.54,-4.75,86.57,-17.66,-24.75,110.86,-10.33,-47.0,89.58,5.5,-29.46,91.4,-18.5,-33.0,86.82,-20.0,21.0,42.45,-32.0,-16.5,80.91,-1.0,-0.9378,1.0,-1.0,-0.2051,-1.0,-1.0,1.0,-1.0,1.0,-0.9745,1.0,-1.0,-0.6973,-1.0,0.5449,-1.0,-1.0,0.052,0.045,0.006,0.013,0.0,0.006,0.013,0.013,0.026,0.013,0.019,0.013,0.006,0.221,0.0,0.0,0.0,0.026,-0.1626,-0.7302,0.5706,0.0184,-1.1505,0.5292,0.227,-0.9204,0.5921,-0.4387,-0.7655,0.0997,-0.1749,-0.158,-0.4188,-0.6029,-0.4157,0.2991,-0.3013,0.2613,-0.2304,-0.059,0.1196,0.1138,0.2146,0.0844,-0.1312,0.2676,-0.3056,0.1869,0.0679,0.1663,-0.0549,-0.0083,-0.2984,0.2589,-0.0513,0.0494,-0.0237,-0.0471,0.0472,-1.0,-0.5243,1.0,-1.0,-0.5274,-1.0,-1.0,0.5134,-1.0,1.0,-0.7044,1.0,-1.0,1.0,-1.0,-0.7261,-1.0,-1.0,0.0,0.0,0.0,0.0,0.0,0.0,0.0,0.0,0.0,0.3333,0.0,0.3333,0.0,0
5.04,run,0.75,1.42,1.99,1.17,3.26,0.0,0.048,0.0,0.826,-12.22,-20.57,101.95,-1.93,-45.18,97.56,13.27,-31.9,102.04,-22.06,-26.54,77.34,-11.95,14.06,43.95,-34.19,-5.98,86.84,-19.16,-26.25,112.36,-11.83,-45.5,88.08,4.0,-27.96,89.9,-17.0,-34.5,88.32,-21.5,19.5,40.95,-30.5,-18.0,79.41,-1.0,-0.2712,1.0,-1.0,0.2197,-1.0,-1.0,1.0,-1.0,1.0,-1.0,1.0,-1.0,-0.6031,-0.7988,1.0,-1.0,-1.0,0.052,0.045,0.006,0.013,0.0,0.006,0.013,0.013,0.026,0.013,0.019,0.013,0.006,0.221,0.0,0.0,0.0,0.026,-0.1871,-0.7179,0.5676,-0.0046,-1.1413,0.517,0.2301,-0.9204,0.5783,-0.4157,-0.79,0.1243,-0.1871,-0.1365,-0.4234,-0.6044,-0.4387,0.3083,-0.3029,0.2289,-0.1727,-0.1275,0.1182,0.0337,0.1617,0.0591,-0.1436,0.2735,-0.3059,0.2228,0.0016,0.1969,-0.0557,-0.0116,-0.2951,0.2157,-0.0567,0.0518,0.0036,-0.0058,0.0287,-1.0,-0.9378,1.0,-1.0,-0.2051,-1.0,-1.0,1.0,-1.0,1.0,-0.9745,1.0,-1.0,-0.6973,-1.0,0.5449,-1.0,-1.0,0.0,0.0,0.0,0.0,0.0,0.0,0.0,0.0,0.0,0.32,0.0,0.32,0.0,0
5.08,run,0.78,1.47,0.76,-0.48,5.4,0.0,0.046,0.0,0.826,-13.62,-20.48,102.3,-3.34,-45.18,96.42,13.1,-31.99,100.46,-20.74,-27.95,78.75,-13.18,15.29,43.24,-33.4,-7.38,86.84,-20.66,-27.75,113.86,-13.33,-44.0,86.58,2.5,-26.46,88.4,-15.5,-36.0,89.82,-23.0,18.0,39.45,-29.0,-19.5,77.91,-1.0,-0.2521,1.0,-1.0,0.7642,-1.0,-1.0,1.0,-1.0,1.0,-1.0,1.0,-1.0,-1.0,-1.0,1.0,-1.0,-1.0,0.052,0.045,0.006,0.013,0.0,0.006,0.013,0.013,0.026,0.013,0.019,0.013,0.006,0.221,0.0,0.0,0.0,0.026,-0.2102,-0.7102,0.5676,-0.0291,-1.1382,0.5001,0.2316,-0.9219,0.5522,-0.3896,-0.8145,0.1488,-0.2102,-0.115,-0.4387,-0.5983,-0.4602,0.3129,-0.2984,0.189,-0.1209,-0.1814,0.0943,-0.0397,0.119,0.0356,-0.1984,0.2893,-0.3063,0.2481,-0.0853,0.2184,-0.0966,0.0149,-0.2872,0.1683,-0.0483,0.0566,0.0348,0.0205,0.0569,-1.0,-0.2712,1.0,-1.0,0.2197,-1.0,-1.0,1.0,-1.0,1.0,-1.0,1.0,-1.0,-0.6031,-0.7988,1.0,-1.0,-1.0,0.0,0.0,0.0,0.0,0.0,0.0,0.0,0.0,0.0,0.3067,0.0,0.3067,0.0,0
5.12,run,0.82,1.53,2.11,0.8,1.37,0.0,0.044,0.0,0.826,-15.03,-20.48,103.1,-4.83,-45.18,94.92,12.48,-31.99,99.14,-19.34,-29.44,80.24,-14.41,16.26,41.92,-32.17,-8.61,86.57,-22.16,-29.25,115.36,-14.83,-42.5,85.08,1.0,-24.96,86.9,-14.0,-37.5,91.32,-24.5,16.5,37.95,-27.5,-21.0,76.41,-1.0,-0.1978,1.0,-1.0,1.0,-1.0,-1.0,1.0,-1.0,1.0,-1.0,1.0,-1.0,-1.0,-1.0,1.0,-1.0,-1.0,0.071,0.0,0.045,0.013,0.0,0.019,0.019,0.319,0.019,0.013,0.019,0.013,0.039,0.267,0.006,0.019,0.0,0.013,-0.2347,-0.7087,0.5737,-0.0537,-1.1382,0.4801,0.2286,-0.9235,0.5246,-0.3666,-0.8391,0.1733,-0.2316,-0.0936,-0.451,-0.5844,-0.4847,0.3129,-0.3009,0.1381,-0.0616,-0.219,0.066,-0.1026,0.0718,0.0192,-0.2424,0.2888,-0.3064,0.2657,-0.1402,0.2334,-0.1136,0.0622,-0.293,0.1178,-0.045,0.0606,0.0133,-0.0083,0.0942,-1.0,-0.2521,1.0,-1.0,0.7642,-1.0,-1.0,1.0,-1.0,1.0,-1.0,1.0,-1.0,-1.0,-1.0,1.0,-1.0,-1.0,0.0,0.0,0.0,0.0,0.0,0.0,0.0,0.0,0.0,0.2933,0.0,0.2933,0.0,0
