t_s,phase,roll_deg,pitch_deg,gyro_x_dps,gyro_y_dps,gyro_z_dps,height_ref_mm,vx_ref_mps,vy_ref_mps,max_cur_a,q0_deg,q1_deg,q2_deg,q3_deg,q4_deg,q5_deg,q6_deg,q7_deg,q8_deg,q9_deg,q10_deg,q11_deg,q12_deg,q13_deg,q14_deg,q15_deg,q16_deg,q17_deg,cmd0_deg,cmd1_deg,cmd2_deg,cmd3_deg,cmd4_deg,cmd5_deg,cmd6_deg,cmd7_deg,cmd8_deg,cmd9_deg,cmd10_deg,cmd11_deg,cmd12_deg,cmd13_deg,cmd14_deg,cmd15_deg,cmd16_deg,cmd17_deg,act0,act1,act2,act3,act4,act5,act6,act7,act8,act9,act10,act11,act12,act13,act14,act15,act16,act17,cur0_a,cur1_a,cur2_a,cur3_a,cur4_a,cur5_a,cur6_a,cur7_a,cur8_a,cur9_a,cur10_a,cur11_a,cur12_a,cur13_a,cur14_a,cur15_a,cur16_a,cur17_a,obs0,obs1,obs2,obs3,obs4,obs5,obs6,obs7,obs8,obs9,obs10,obs11,obs12,obs13,obs14,obs15,obs16,obs17,obs18,obs19,obs20,obs21,obs22,obs23,obs24,obs25,obs26,obs27,obs28,obs29,obs30,obs31,obs32,obs33,obs34,obs35,obs36,obs37,obs38,obs39,obs40,obs41,obs42,obs43,obs44,obs45,obs46,obs47,obs48,obs49,obs50,obs51,obs52,obs53,obs54,obs55,obs56,obs57,obs58,obs59,obs60,obs61,obs62,obs63,obs64,obs65,obs66,obs67,obs68,obs69,obs70,obs71,rot60_k
0.0,run,1.01,-0.26,-0.21,0.39,-0.33,0.0,-0.0,0.0,0.019,-0.26,19.42,79.8,-0.09,16.0,79.19,-0.09,19.51,79.63,0.53,16.17,79.37,-0.09,19.16,79.54,-0.09,17.4,79.37,-1.76,18.01,78.3,-1.59,14.76,80.43,1.41,18.01,81.13,1.85,14.94,80.69,1.41,17.57,78.04,-1.59,16.08,80.69,-1.0,-1.0,-0.3763,-1.0,-1.0,1.0,1.0,-1.0,1.0,1.0,-1.0,1.0,0.1906,-1.0,-0.4477,-1.0,-1.0,1.0,0.013,0.0,0.006,0.013,0.006,0.0,0.006,0.019,0.006,0.006,0.0,0.0,0.006,0.019,0.019,0.019,0.006,0.0,-0.0031,-0.0015,0.0,0.0,-0.0031,0.0046,0.0,0.0,0.0,0.0031,-0.0031,0.0031,0.0,0.0015,0.0,0.0,-0.0031,0.0015,-0.0062,-0.003,0.0,0.0,-0.006,0.0091,0.0,0.0,0.0,0.0062,-0.006,0.0062,0.0,0.0032,0.0,0.0,-0.006,0.003,0.0,0.0,-0.016,-0.001,0.024,0.0,0.0,0.0,0.0,0.0,0.0,0.0,0.0,0.0,0.0,0.0,0.0,0.0,0.0,0.0,0.0,0.0,0.0,0.0,0.0,0.0,0.0,0.0,0.0,0.0,0.0,0.0,-0.0,0.0,-0.0,0.0,0
0.04,run,0.95,-0.23,-1.0,-0.16,0.43,0.0,-0.0,0.0,0.019,-0.7,19.34,79.8,-0.26,15.73,79.37,-0.09,19.16,79.63,0.62,15.82,79.54,-0.09,18.81,79.37,-0.44,17.23,79.54,-3.26,19.51,79.8,-3.09,13.26,81.93,-0.09,16.51,79.63,3.35,13.44,82.19,-0.09,16.07,79.54,-3.09,14.58,82.19,-1.0,1.0,1.0,-1.0,-1.0,1.0,-1.0,-1.0,-1.0,1.0,-1.0,1.0,-1.0,0.184,1.0,-1.0,-1.0,1.0,0.013,0.0,0.006,0.013,0.006,0.0,0.006,0.019,0.006,0.006,0.0,0.0,0.006,0.019,0.019,0.019,0.006,0.0,0.0,-0.0015,0.0,0.0,-0.0046,0.0046,0.0,0.0,0.0,0.0031,-0.0046,0.0031,0.0,0.0015,0.0,0.0,-0.0031,0.0031,0.0007,-0.0021,0.0,0.0,-0.0068,0.0063,0.0,0.0,0.0,0.0044,-0.0068,0.0044,0.0,0.0022,0.0,0.0,-0.0042,0.0047,-0.0023,0.0048,-0.0036,0.0067,-0.0057,-1.0,-1.0,-0.3763,-1.0,-1.0,1.0,1.0,-1.0,1.0,1.0,-1.0,1.0,0.1906,-1.0,-0.4477,-1.0,-1.0,1.0,0.0,0.0,0.0,0.0,0.0,0.0,0.0,0.0,0.0,-0.0,0.0,-0.0,0.0,0
0.08,run,0.75,-0.23,-4.59,-1.51,3.49,0.0,-0.0,0.0,0.019,-1.41,18.98,79.28,-0.79,15.21,80.07,0.44,18.37,80.24,1.49,15.38,80.33,0.79,18.11,78.66,-1.14,16.61,80.16,-4.76,21.01,81.3,-4.59,11.76,83.43,-1.59,18.01,81.13,4.85,11.94,83.69,-1.59,17.57,81.04,-4.59,13.08,83.69,-0.4128,1.0,0.2733,-1.0,-1.0,0.6884,-1.0,1.0,1.0,1.0,-1.0,1.0,-0.9551,1.0,1.0,-1.0,-1.0,1.0,0.013,0.0,0.006,0.013,0.006,0.0,0.006,0.019,0.006,0.006,0.0,0.0,0.006,0.019,0.019,0.019,0.006,0.0,-0.0077,-0.0031,0.0,-0.0031,-0.0092,0.0077,0.0,-0.0061,0.0,0.0046,-0.0107,0.0061,0.0,-0.0046,-0.0031,-0.0061,-0.0061,0.0061,-0.0281,-0.0072,0.0,-0.0115,-0.0219,0.0159,0.0,-0.0229,0.0,0.0088,-0.0276,0.0145,0.0,-0.0213,-0.0115,-0.0229,-0.0144,0.0147,-0.0075,0.0073,-0.0174,-0.0029,0.0075,-1.0,1.0,1.0,-1.0,-1.0,1.0,-1.0,-1.0,-1.0,1.0,-1.0,1.0,-1.0,0.184,1.0,-1.0,-1.0,1.0,0.0,0.0,0.0,0.0,0.0,0.0,0.0,0.0,0.0,-0.0,0.0,-0.0,0.0,0
0.12,run,0.61,-0.16,-2.67,0.22,-3.42,0.0,-0.0,0.0,0.026,-2.37,18.37,79.1,-1.32,14.41,81.04,0.79,17.75,80.68,2.29,14.41,81.21,0.79,17.4,78.66,-2.02,15.82,80.95,-6.26,22.51,79.8,-6.09,10.26,84.93,-3.09,19.51,82.63,6.35,10.44,85.19,-0.09,16.07,79.54,-6.09,11.58,85.19,-1.0,1.0,0.095,-1.0,-1.0,1.0,-1.0,1.0,1.0,1.0,-1.0,1.0,0.9614,0.1816,-1.0,-1.0,-1.0,1.0,0.006,0.006,0.0,0.026,0.006,0.006,0.0,0.006,0.0,0.026,0.0,0.013,0.0,0.006,0.0,0.019,0.013,0.0,-0.0199,-0.0092,-0.0092,-0.0123,-0.0184,0.0199,0.0092,-0.0199,0.0107,0.0199,-0.0184,0.0199,0.0153,-0.0169,-0.0153,-0.0184,-0.0169,0.0169,-0.0656,-0.028,-0.0344,-0.0425,-0.0498,0.0571,0.0344,-0.0677,0.0402,0.0636,-0.0481,0.0618,0.0574,-0.0609,-0.0539,-0.062,-0.0503,0.0505,-0.0253,0.0076,-0.0802,-0.0263,0.0609,-0.4128,1.0,0.2733,-1.0,-1.0,0.6884,-1.0,1.0,1.0,1.0,-1.0,1.0,-0.9551,1.0,1.0,-1.0,-1.0,1.0,0.0,0.0,0.0,0.0,0.0,0.0,0.0,0.0,0.0,-0.0,0.0,-0.0,0.0,0
0.16,run,0.44,-0.24,-1.95,-1.83,-7.65,0.0,-0.0,0.0,0.026,-3.6,18.28,79.1,-2.72,13.27,82.27,0.7,17.4,81.04,3.34,13.27,82.44,0.79,16.7,78.84,-3.34,14.77,81.91,-7.76,24.01,78.3,-7.59,8.76,86.43,-4.59,18.01,81.13,7.85,8.94,86.69,1.41,17.57,81.04,-7.59,10.08,86.69,-1.0,1.0,-0.0506,-1.0,-0.7037,1.0,-0.4432,0.324,-0.3951,1.0,-1.0,1.0,1.0,0.8403,1.0,-1.0,-1.0,1.0,0.006,0.006,0.0,0.026,0.006,0.006,0.0,0.006,0.0,0.026,0.0,0.013,0.0,0.006,0.0,0.019,0.013,0.0,-0.0368,-0.0199,-0.0123,-0.0215,-0.0322,0.0368,0.0153,-0.0307,0.0184,0.0337,-0.0353,0.0353,0.0153,-0.0291,-0.0153,-0.0337,-0.0307,0.0307,-0.1091,-0.0598,-0.0356,-0.0642,-0.0866,0.1031,0.0471,-0.0876,0.0569,0.0962,-0.0968,0.1007,0.0402,-0.0886,-0.0378,-0.1008,-0.0869,0.087,-0.0373,0.0129,-0.0466,0.0038,-0.0598,-1.0,1.0,0.095,-1.0,-1.0,1.0,-1.0,1.0,1.0,1.0,-1.0,1.0,0.9614,0.1816,-1.0,-1.0,-1.0,1.0,0.0,0.0,0.0,0.0,0.0,0.0,0.0,0.0,0.0,-0.0,0.0,-0.0,0.0,0
0.2,run,0.28,-0.52,-3.9,-7.81,-4.93,0.0,-0.0,0.0,0.026,-4.92,18.63,79.37,-3.87,12.04,83.5,0.62,17.58,81.65,4.83,11.95,83.58,0.18,15.91,79.63,-4.57,13.62,83.06,-9.26,25.51,79.8,-9.09,7.26,87.93,-6.09,19.51,82.63,9.35,7.44,88.19,2.91,16.07,82.54,-9.09,8.58,88.19,-1.0,1.0,1.0,-1.0,-1.0,1.0,-1.0,1.0,0.3772,1.0,-1.0,1.0,1.0,0.1354,1.0,-1.0,-1.0,1.0,0.006,0.006,0.0,0.026,0.006,0.006,0.0,0.006,0.0,0.026,0.0,0.013,0.0,0.006,0.0,0.019,0.013,0.0,-0.0583,-0.0215,-0.0123,-0.046,-0.0522,0.0583,0.0138,-0.0368,0.0245,0.0522,-0.0552,0.0568,0.0153,-0.0414,-0.0123,-0.0568,-0.0491,0.0476,-0.157,-0.0476,-0.0249,-0.1371,-0.1355,0.1528,0.0272,-0.0844,0.0628,0.1364,-0.1427,0.1511,0.0281,-0.1081,-0.0149,-0.157,-0.1299,0.1243,-0.0517,0.0061,-0.0341,-0.0319,-0.1336,-1.0,1.0,-0.0506,-1.0,-0.7037,1.0,-0.4432,0.324,-0.3951,1.0,-1.0,1.0,1.0,0.8403,1.0,-1.0,-1.0,1.0,0.0,0.0,0.0,0.0,0.0,0.0,0.0,0.0,0.0,-0.0,0.0,-0.0,0.0,0
0.24,run,0.25,-0.99,-0.84,-10.73,-4.24,0.0,-0.0,0.0,0.065,-6.33,19.16,79.72,-5.27,10.72,84.81,-0.44,18.19,82.18,6.06,10.55,84.99,0.0,15.82,80.33,-5.98,12.74,83.85,-10.76,24.01,78.3,-10.59,5.76,89.43,-7.59,21.01,81.13,10.85,5.94,89.69,4.41,14.57,84.04,-10.59,7.08,89.69,-1.0,0.1797,0.0642,-1.0,-0.5197,1.0,-1.0,1.0,0.0408,1.0,-1.0,1.0,1.0,0.7053,0.3429,-1.0,-1.0,1.0,0.006,0.065,0.0,0.019,0.0,0.013,0.019,0.013,0.0,0.019,0.0,0.019,0.0,0.006,0.033,0.019,0.033,0.0,-0.0813,-0.0153,-0.0077,-0.066,-0.0736,0.0798,0.0123,-0.0337,0.0353,0.0782,-0.0782,0.0767,0.0046,-0.0552,0.0015,-0.0782,-0.069,0.0675,-0.1962,-0.0103,-0.0002,-0.1707,-0.1753,0.1875,0.0133,-0.0476,0.0842,0.1933,-0.1861,0.1805,-0.0206,-0.1274,0.0413,-0.1904,-0.1657,0.1617,-0.0655,-0.0177,-0.0681,-0.1364,-0.086,-1.0,1.0,1.0,-1.0,-1.0,1.0,-1.0,1.0,0.3772,1.0,-1.0,1.0,1.0,0.1354,1.0,-1.0,-1.0,1.0,0.0,0.0,0.0,0.0,0.0,0.0,0.0,0.0,0.0,-0.0,0.0,-0.0,0.0,0
0.28,run,-0.03,-1.27,-8.21,-6.86,-5.07,0.0,-0.0,0.0,0.065,-7.65,19.95,79.72,-6.59,9.4,86.31,-1.67,18.9,82.44,7.47,9.14,86.22,0.18,15.47,81.3,-7.47,11.34,85.61,-12.26,22.51,79.8,-12.09,4.26,90.93,-9.09,22.51,79.63,12.35,4.44,91.19,5.91,16.07,85.54,-12.09,5.58,91.19,-1.0,0.0554,1.0,-1.0,-0.8939,1.0,-1.0,1.0,-0.9329,1.0,-1.0,1.0,1.0,0.7745,0.2537,-1.0,-1.0,1.0,0.006,0.065,0.0,0.019,0.0,0.013,0.019,0.013,0.0,0.019,0.0,0.019,0.0,0.006,0.033,0.019,0.033,0.0,-0.1058,-0.0061,-0.0015,-0.0905,-0.0966,0.1028,-0.0061,-0.023,0.0445,0.0997,-0.1028,0.1012,0.0015,-0.0568,0.0138,-0.1028,-0.0844,0.0813,-0.2294,0.0273,0.0229,-0.2116,-0.2091,0.2176,-0.0598,0.007,0.0935,0.2159,-0.2224,0.2185,-0.0259,-0.0949,0.075,-0.2254,-0.1736,0.165,-0.0682,-0.0595,-0.0146,-0.1873,-0.074,-1.0,0.1797,0.0642,-1.0,-0.5197,1.0,-1.0,1.0,0.0408,1.0,-1.0,1.0,1.0,0.7053,0.3429,-1.0,-1.0,1.0,0.0,0.0,0.0,0.0,0.0,0.0,0.0,0.0,0.0,-0.0,0.0,-0.0,0.0,0
0.32,run,-0.22,-1.61,-5.38,-7.71,-4.81,0.0,-0.0,0.0,0.065,-8.79,20.65,79.54,-8.0,8.09,87.63,-3.08,20.04,82.44,8.79,7.82,87.71,1.32,15.03,82.53,-8.7,9.84,87.01,-13.76,21.01,81.3,-13.59,2.76,92.43,-10.59,24.01,78.13,13.85,2.94,92.69,7.41,14.57,87.04,-13.59,4.08,92.69,-1.0,-0.4615,0.5682,-1.0,0.2312,1.0,-1.0,1.0,-1.0,1.0,-1.0,1.0,0.8468,0.4321,0.5053,-1.0,-1.0,1.0,0.006,0.065,0.0,0.019,0.0,0.013,0.019,0.013,0.0,0.019,0.0,0.019,0.0,0.006,0.033,0.019,0.033,0.0,-0.1289,0.0077,-0.0015,-0.1135,-0.1197,0.1289,-0.0276,-0.0107,0.0491,0.1243,-0.1273,0.1227,0.0046,-0.0629,0.0307,-0.1289,-0.1089,0.112,-0.2468,0.0708,0.016,-0.2343,-0.2326,0.25,-0.1223,0.0509,0.0827,0.2431,-0.2476,0.2334,-0.0066,-0.0894,0.1157,-0.2555,-0.2134,0.2305,-0.0929,-0.0839,-0.1433,-0.1197,-0.0884,-1.0,0.0554,1.0,-1.0,-0.8939,1.0,-1.0,1.0,-0.9329,1.0,-1.0,1.0,1.0,0.7745,0.2537,-1.0,-1.0,1.0,0.0,0.0,0.0,0.0,0.0,0.0,0.0,0.0,0.0,-0.0,0.0,-0.0,0.0,0
0.36,run,-0.24,-2.23,-0.79,-16.32,-6.78,0.0,-0.0,0.0,0.104,-10.28,21.27,79.37,-9.4,6.77,88.86,-4.39,21.27,82.18,10.11,6.42,89.12,1.58,14.59,83.67,-10.2,8.53,88.68,-15.26,19.51,82.8,-15.09,1.26,90.93,-12.09,25.51,76.63,15.35,1.44,94.19,8.91,13.07,88.54,-15.09,2.58,94.19,-1.0,-0.5282,0.2999,-1.0,0.2333,-0.9617,-1.0,1.0,-1.0,1.0,-1.0,1.0,1.0,-0.0796,0.7753,-1.0,-1.0,1.0,0.013,0.104,0.0,0.019,0.013,0.006,0.013,0.019,0.039,0.019,0.0,0.019,0.019,0.0,0.033,0.019,0.033,0.0,-0.1488,0.0199,-0.0046,-0.1381,-0.1427,0.1519,-0.0522,0.0092,0.0491,0.1473,-0.1503,0.1488,0.0245,-0.0706,0.0522,-0.1503,-0.135,0.1365,-0.2474,0.0955,-0.0003,-0.2559,-0.2489,0.2611,-0.1774,0.1102,0.0579,0.2562,-0.2594,0.261,0.07,-0.0913,0.1613,-0.2592,-0.247,0.2532,-0.1091,-0.1132,-0.0939,-0.1345,-0.084,-1.0,-0.4615,0.5682,-1.0,0.2312,1.0,-1.0,1.0,-1.0,1.0,-1.0,1.0,0.8468,0.4321,0.5053,-1.0,-1.0,1.0,0.0,0.0,0.0,0.0,0.0,0.0,0.0,0.0,0.0,-0.0,0.0,-0.0,0.0,0
0.4,run,0.05,-2.92,6.05,-15.56,8.76,0.0,-0.0,0.0,0.104,-12.04,21.71,79.37,-10.99,5.1,90.53,-6.06,22.85,81.3,11.78,4.66,90.62,3.6,13.97,85.34,-11.87,6.86,90.26,-16.76,18.01,82.53,-16.59,-0.24,89.43,-13.59,27.01,75.13,16.85,-0.06,95.69,7.88,11.57,90.04,-16.59,1.08,95.69,-1.0,-1.0,0.2062,-1.0,-0.012,-1.0,-1.0,1.0,-1.0,1.0,-1.0,1.0,0.2251,0.0914,0.8815,-1.0,-1.0,1.0,0.013,0.104,0.0,0.019,0.013,0.006,0.013,0.019,0.039,0.019,0.0,0.019,0.019,0.0,0.033,0.019,0.033,0.0,-0.1749,0.0307,-0.0077,-0.1626,-0.1657,0.1733,-0.0752,0.0307,0.0445,0.1703,-0.1749,0.1733,0.0291,-0.0782,0.0721,-0.1764,-0.158,0.1657,-0.2712,0.1072,-0.0117,-0.2713,-0.2607,0.2635,-0.2107,0.1579,0.0232,0.2658,-0.2738,0.2749,0.0663,-0.0927,0.1879,-0.2794,-0.2594,0.2867,-0.1115,-0.1671,-0.0137,-0.2848,-0.1183,-1.0,-0.5282,0.2999,-1.0,0.2333,-0.9617,-1.0,1.0,-1.0,1.0,-1.0,1.0,1.0,-0.0796,0.7753,-1.0,-1.0,1.0,0.0,0.0,0.0,0.0,0.0,0.0,0.0,0.0,0.0,-0.0,0.0,-0.0,0.0,0
0.44,run,0.06,-3.6,0.71,-16.05,9.27,0.0,-0.0,0.0,0.104,-13.62,21.88,80.16,-12.66,3.43,91.85,-7.82,24.26,79.98,13.36,2.99,92.2,5.19,13.01,86.84,-13.45,5.27,91.76,-18.26,16.51,84.03,-18.09,-1.74,87.93,-15.09,28.51,73.63,18.35,-1.56,97.19,6.38,13.07,91.54,-18.09,-0.42,97.19,-1.0,-1.0,0.6834,-1.0,-0.5519,-1.0,-1.0,1.0,-0.5728,1.0,-0.0403,1.0,-0.308,1.0,0.911,-1.0,-1.0,1.0,0.013,0.104,0.0,0.019,0.013,0.006,0.013,0.019,0.039,0.019,0.0,0.019,0.019,0.0,0.033,0.019,0.033,0.0,-0.2056,0.0383,-0.0077,-0.1902,-0.1948,0.2025,-0.1043,0.0583,0.0291,0.1994,-0.2056,0.1994,0.0644,-0.089,0.1012,-0.2056,-0.1871,0.1933,-0.2864,0.0992,-0.0082,-0.2769,-0.2743,0.2762,-0.2393,0.1975,-0.032,0.2779,-0.2883,0.2746,0.1575,-0.0987,0.2233,-0.2874,-0.2733,0.2877,-0.0862,-0.2276,0.1057,-0.2716,0.1529,-1.0,-1.0,0.2062,-1.0,-0.012,-1.0,-1.0,1.0,-1.0,1.0,-1.0,1.0,0.2251,0.0914,0.8815,-1.0,-1.0,1.0,0.0,0.0,0.0,0.0,0.0,0.0,0.0,0.0,0.0,-0.0,0.0,-0.0,0.0,0
0.48,run,0.4,-4.12,8.93,-13.5,5.7,0.0,-0.0,0.0,0.123,-14.94,21.88,81.12,-14.06,2.2,92.02,-9.23,25.49,78.93,14.85,1.58,93.52,6.33,12.13,88.07,-14.77,3.87,92.99,-19.76,15.01,85.53,-19.59,-0.24,86.43,-16.59,30.0,74.68,19.85,-0.06,98.69,4.88,14.57,90.04,-19.59,-1.92,98.69,-1.0,-1.0,0.6185,-1.0,0.5052,-0.2184,-1.0,1.0,0.1138,1.0,0.7137,1.0,-0.3467,0.8759,-0.3512,-1.0,-1.0,1.0,0.013,0.006,0.006,0.013,0.013,0.006,0.013,0.013,0.123,0.013,0.0,0.026,0.0,0.0,0.019,0.006,0.033,0.0,-0.2332,0.0414,0.0061,-0.2194,-0.224,0.2255,-0.135,0.0828,0.0061,0.227,-0.2347,0.227,0.092,-0.1058,0.1273,-0.2332,-0.2148,0.2194,-0.2859,0.0789,0.037,-0.284,-0.2821,0.2645,-0.2624,0.2141,-0.0936,0.2799,-0.292,0.2776,0.1957,-0.1213,0.237,-0.2866,-0.2767,0.282,-0.0848,-0.2871,0.0124,-0.2801,0.1618,-1.0,-1.0,0.6834,-1.0,-0.5519,-1.0,-1.0,1.0,-0.5728,1.0,-0.0403,1.0,-0.308,1.0,0.911,-1.0,-1.0,1.0,0.0,0.0,0.0,0.0,0.0,0.0,0.0,0.0,0.0,-0.0,0.0,-0.0,0.0,0
0.52,run,0.8,-4.8,10.31,-19.11,1.93,0.0,-0.0,0.0,0.123,-16.35,21.8,82.0,-15.47,0.88,92.46,-10.63,26.81,77.87,16.35,0.35,94.83,7.12,11.78,89.3,-16.17,2.55,94.75,-21.26,13.51,84.03,-21.09,-1.74,84.93,-18.09,28.5,73.18,21.35,1.44,100.19,3.38,16.07,88.54,-21.09,-3.42,97.19,-1.0,-1.0,-0.335,-1.0,0.3666,-0.9415,-1.0,0.4302,-0.0984,1.0,1.0,1.0,-0.7951,1.0,0.0248,-1.0,-1.0,-0.237,0.013,0.006,0.006,0.013,0.013,0.006,0.013,0.013,0.123,0.013,0.0,0.026,0.0,0.0,0.019,0.006,0.033,0.0,-0.2562,0.0414,0.023,-0.2439,-0.2454,0.2286,-0.1595,0.1043,-0.0123,0.2531,-0.2592,0.25,0.112,-0.1212,0.1488,-0.2562,-0.2393,0.2408,-0.2857,0.0552,0.0886,-0.29,-0.2773,0.1966,-0.2749,0.2297,-0.1339,0.2929,-0.2956,0.2798,0.2111,-0.1419,0.2457,-0.2861,-0.2849,0.2772,-0.0554,-0.3323,0.1559,-0.2356,0.0996,-1.0,-1.0,0.6185,-1.0,0.5052,-0.2184,-1.0,1.0,0.1138,1.0,0.7137,1.0,-0.3467,0.8759,-0.3512,-1.0,-1.0,1.0,0.0,0.0,0.0,0.0,0.0,0.0,0.0,0.0,0.0,-0.0,0.0,-0.0,0.0,0
0.56,run,1.49,-5.28,17.99,-12.89,-3.03,0.0,-0.0,0.0,0.123,-17.75,20.92,82.88,-17.05,-0.18,92.11,-12.04,28.04,76.82,17.84,-0.62,96.24,7.65,11.51,90.26,-17.58,1.14,95.54,-22.76,12.01,82.53,-22.59,-3.24,83.43,-19.59,30.0,74.68,22.85,2.94,101.69,1.88,17.57,90.04,-22.59,-4.92,95.69,-1.0,-1.0,-0.2179,-1.0,-0.1616,-1.0,-1.0,1.0,1.0,1.0,1.0,1.0,-1.0,1.0,1.0,-0.7306,-1.0,-1.0,0.013,0.006,0.006,0.013,0.013,0.006,0.013,0.013,0.123,0.013,0.0,0.026,0.0,0.0,0.019,0.006,0.033,0.0,-0.2807,0.0399,0.0383,-0.2684,-0.2684,0.2362,-0.1841,0.1273,-0.0307,0.2792,-0.2807,0.273,0.1258,-0.1273,0.1703,-0.2807,-0.2623,0.2715,-0.2924,0.0329,0.1198,-0.2955,-0.2808,0.1665,-0.2849,0.2475,-0.1631,0.3033,-0.2878,0.2826,0.1998,-0.1225,0.2529,-0.2928,-0.2861,0.3097,-0.0206,-0.3916,0.1799,-0.3335,0.0336,-1.0,-1.0,-0.335,-1.0,0.3666,-0.9415,-1.0,0.4302,-0.0984,1.0,1.0,1.0,-0.7951,1.0,0.0248,-1.0,-1.0,-0.237,0.0,0.0,0.0,0.0,0.0,0.0,0.0,0.0,0.0,-0.0,0.0,-0.0,0.0,0
0.6,run,2.21,-5.66,18.93,-10.57,-8.32,0.0,-0.0,0.0,0.123,-19.16,19.6,84.11,-18.81,-1.14,91.49,-13.45,29.0,75.94,19.51,-1.23,97.65,7.82,11.6,90.7,-18.98,-0.26,97.03,-23.12,10.51,81.03,-24.09,-4.74,81.93,-21.09,28.5,76.18,24.35,4.44,103.19,0.38,19.07,88.54,-21.09,-6.42,94.19,-0.6606,-1.0,0.1475,-1.0,-1.0,-0.6914,-1.0,-0.6286,1.0,1.0,1.0,1.0,-1.0,1.0,0.0712,1.0,-1.0,-1.0,0.006,0.0,0.0,0.006,0.006,0.026,0.013,0.0,0.091,0.013,0.0,0.033,0.006,0.026,0.013,0.006,0.033,0.0,-0.3053,0.0245,0.0537,-0.2961,-0.2869,0.2301,-0.2086,0.1488,-0.0491,0.3053,-0.2976,0.2976,0.135,-0.1319,0.1871,-0.3053,-0.2869,0.2853,-0.2963,-0.0342,0.1411,-0.3099,-0.2653,0.0936,-0.2911,0.2534,-0.1829,0.3096,-0.2645,0.2894,0.1742,-0.1029,0.24,-0.2966,-0.2919,0.2683,0.0401,-0.4331,0.3139,-0.225,-0.0528,-1.0,-1.0,-0.2179,-1.0,-0.1616,-1.0,-1.0,1.0,1.0,1.0,1.0,1.0,-1.0,1.0,1.0,-0.7306,-1.0,-1.0,0.0,0.0,0.0,0.0,0.0,0.0,0.0,0.0,0.0,-0.0,0.0,-0.0,0.0,0
0.64,run,3.25,-6.31,26.92,-17.61,-11.28,0.0,-0.0,0.0,0.123,-20.74,18.11,84.81,-19.95,-2.2,90.53,-14.85,29.71,75.5,20.65,-1.76,98.96,7.56,12.22,90.97,-20.39,-1.67,97.82,-21.62,9.01,82.53,-25.59,-6.24,80.43,-22.59,27.0,77.68,25.85,5.94,104.69,-1.12,20.57,90.04,-19.59,-7.92,92.69,0.4681,-1.0,0.3636,-1.0,-0.9874,-0.4464,-1.0,0.4066,1.0,1.0,1.0,1.0,-1.0,1.0,1.0,1.0,-1.0,-1.0,0.006,0.0,0.0,0.006,0.006,0.026,0.013,0.0,0.091,0.013,0.0,0.033,0.006,0.026,0.013,0.006,0.033,0.0,-0.3298,0.0015,0.0752,-0.3267,-0.3037,0.2194,-0.2332,0.1657,-0.0644,0.3344,-0.3083,0.3221,0.1381,-0.1304,0.1948,-0.3298,-0.3114,0.3114,-0.2995,-0.1103,0.1794,-0.3321,-0.249,0.0253,-0.2958,0.2407,-0.1856,0.3261,-0.2254,0.2947,0.1335,-0.0663,0.1968,-0.2997,-0.2965,0.2857,0.1027,-0.4669,0.3304,-0.1845,-0.1452,-0.6606,-1.0,0.1475,-1.0,-1.0,-0.6914,-1.0,-0.6286,1.0,1.0,1.0,1.0,-1.0,1.0,0.0712,1.0,-1.0,-1.0,0.0,0.0,0.0,0.0,0.0,0.0,0.0,0.0,0.0,-0.0,0.0,-0.0,0.0,0
0.68,run,4.61,-6.97,34.54,-17.4,-10.48,0.0,-0.0,0.0,0.123,-21.71,16.88,84.99,-21.36,-3.43,89.12,-16.17,29.88,75.23,22.15,-1.85,100.28,6.77,13.1,90.79,-21.36,-3.08,98.09,-20.12,7.51,84.03,-27.09,-7.74,78.93,-24.09,25.5,79.18,27.35,7.44,106.19,-2.62,22.07,88.54,-18.09,-9.42,91.19,1.0,-1.0,0.8284,-1.0,-1.0,-1.0,-1.0,0.492,1.0,1.0,1.0,1.0,-0.4324,1.0,-1.0,1.0,-1.0,-1.0,0.006,0.0,0.0,0.006,0.006,0.026,0.013,0.0,0.091,0.013,0.0,0.033,0.006,0.026,0.013,0.006,0.033,0.0,-0.3574,-0.0245,0.0874,-0.3467,-0.3221,0.2025,-0.2577,0.1779,-0.0721,0.3543,-0.3175,0.3451,0.1335,-0.1197,0.1994,-0.3543,-0.3359,0.3252,-0.3136,-0.1754,0.1718,-0.3075,-0.2436,-0.0459,-0.2995,0.2147,-0.1588,0.3034,-0.1925,0.2929,0.0761,-0.006,0.1551,-0.3022,-0.2999,0.2519,0.1929,-0.5233,0.4698,-0.3073,-0.1969,0.4681,-1.0,0.3636,-1.0,-0.9874,-0.4464,-1.0,0.4066,1.0,1.0,1.0,1.0,-1.0,1.0,1.0,1.0,-1.0,-1.0,0.0,0.0,0.0,0.0,0.0,0.0,0.0,0.0,0.0,-0.0,0.0,-0.0,0.0,0
0.72,run,6.62,-8.3,48.34,-28.74,-12.02,0.0,-0.0,0.0,0.123,-22.5,15.47,84.9,-22.76,-4.83,87.54,-17.58,29.97,75.23,23.55,-1.93,101.51,5.98,14.33,90.09,-22.06,-4.48,98.53,-18.62,6.01,85.53,-28.59,-9.24,77.43,-25.59,24.0,80.68,28.85,8.94,107.69,-4.12,23.57,87.04,-16.59,-10.92,89.69,1.0,-1.0,0.4024,-1.0,-1.0,-0.5718,-1.0,0.6973,1.0,1.0,1.0,1.0,-0.3637,1.0,-1.0,1.0,-1.0,-1.0,0.006,0.0,0.006,0.0,0.0,0.006,0.019,0.039,0.026,0.0,0.123,0.084,0.026,0.019,0.0,0.006,0.033,0.006,-0.3743,-0.046,0.0905,-0.3712,-0.3436,0.1779,-0.2807,0.181,-0.0767,0.3804,-0.3191,0.3682,0.1197,-0.1043,0.1963,-0.3712,-0.3605,0.3298,-0.2827,-0.2032,0.1317,-0.3072,-0.2509,-0.124,-0.2958,0.1618,-0.1284,0.31,-0.1405,0.2912,0.0016,0.0533,0.0971,-0.2747,-0.3018,0.1936,0.3116,-0.5806,0.6029,-0.3037,-0.1829,1.0,-1.0,0.8284,-1.0,-1.0,-1.0,-1.0,0.492,1.0,1.0,1.0,1.0,-0.4324,1.0,-1.0,1.0,-1.0,-1.0,0.0,0.0,0.0,0.0,0.0,0.0,0.0,0.0,0.0,-0.0,0.0,-0.0,0.0,0
0.76,run,10.41,-10.74,79.0,-49.96,-11.5,0.0,-0.0,0.0,0.123,-23.03,13.97,84.73,-24.52,-6.68,85.78,-19.16,29.71,75.23,25.22,-1.85,103.18,4.39,16.17,88.95,-22.41,-6.24,98.17,-17.12,4.51,87.03,-30.09,-10.74,75.93,-27.09,22.5,82.18,30.35,10.44,109.19,-2.66,25.07,85.54,-15.09,-12.42,88.19,1.0,-1.0,0.8996,-1.0,-1.0,-1.0,-1.0,0.6029,0.3591,1.0,1.0,1.0,-0.0761,1.0,-0.8955,1.0,-1.0,-1.0,0.006,0.0,0.006,0.0,0.0,0.006,0.019,0.039,0.026,0.0,0.123,0.084,0.026,0.019,0.0,0.006,0.033,0.006,-0.3881,-0.0706,0.089,-0.3958,-0.3682,0.1503,-0.3053,0.1825,-0.0767,0.405,-0.3206,0.3896,0.1058,-0.0828,0.1841,-0.3835,-0.385,0.3375,-0.2495,-0.2339,0.0865,-0.3067,-0.2673,-0.1899,-0.2987,0.119,-0.0899,0.3087,-0.1041,0.2841,-0.0505,0.1175,0.0221,-0.2381,-0.303,0.1642,0.4875,-0.6971,0.8438,-0.5017,-0.2098,1.0,-1.0,0.4024,-1.0,-1.0,-0.5718,-1.0,0.6973,1.0,1.0,1.0,1.0,-0.3637,1.0,-1.0,1.0,-1.0,-1.0,0.0,0.0,0.0,0.0,0.0,0.0,0.0,0.0,0.0,-0.0,0.0,-0.0,0.0,0
0.8,run,9.79,-9.08,-19.0,46.77,-24.84,0.0,-0.0,0.0,0.123,-23.2,12.48,84.64,-26.1,-8.0,84.2,-20.74,29.0,76.2,26.81,-1.05,104.41,2.9,17.49,87.8,-22.41,-8.09,97.03,-15.62,3.01,88.53,-31.59,-12.24,74.43,-28.59,24.0,80.68,31.85,11.94,110.69,-1.16,26.57,87.04,-13.59,-13.92,86.69,1.0,-1.0,1.0,-1.0,-1.0,-1.0,-1.0,1.0,-1.0,1.0,1.0,1.0,0.3955,1.0,0.5175,1.0,-1.0,-1.0,0.006,0.0,0.006,0.0,0.0,0.006,0.019,0.039,0.026,0.0,0.123,0.084,0.026,0.019,0.0,0.006,0.033,0.006,-0.3973,-0.0966,0.0859,-0.4264,-0.4004,0.1197,-0.3329,0.1779,-0.0767,0.4341,-0.3191,0.4188,0.0782,-0.0506,0.1641,-0.3896,-0.4157,0.3313,-0.2031,-0.2445,0.051,-0.3097,-0.2869,-0.228,-0.2946,0.069,-0.0629,0.3063,-0.0681,0.2891,-0.1208,0.182,-0.0463,-0.1857,-0.3071,0.0959,0.8179,-0.9098,1.3788,-0.8719,-0.2007,1.0,-1.0,0.8996,-1.0,-1.0,-1.0,-1.0,0.6029,0.3591,1.0,1.0,1.0,-0.0761,1.0,-0.8955,1.0,-1.0,-1.0,0.0,0.0,0.0,0.0,0.0,0.0,0.0,0.0,0.0,-0.0,0.0,-0.0,0.0,0
0.84,run,11.34,-8.82,28.72,11.92,-16.29,0.0,-0.0,0.0,0.247,-22.76,11.25,84.81,-27.51,-9.14,82.97,-22.15,28.12,77.26,27.77,0.26,105.47,1.67,18.72,86.84,-21.8,-8.88,96.86,-14.12,1.51,90.03,-33.09,-10.74,75.93,-30.09,22.5,82.18,33.35,10.44,109.19,-2.66,28.07,88.54,-12.09,-12.42,85.19,1.0,-1.0,1.0,-1.0,1.0,1.0,-1.0,-0.4145,1.0,1.0,-0.3267,0.0129,-1.0,1.0,0.5466,1.0,1.0,-1.0,0.013,0.006,0.019,0.0,0.0,0.0,0.019,0.195,0.0,0.026,0.214,0.247,0.019,0.019,0.006,0.0,0.019,0.058,-0.4004,-0.1227,0.0844,-0.4541,-0.4234,0.092,-0.3605,0.1657,-0.0598,0.4617,-0.3053,0.4403,0.0522,-0.0276,0.1442,-0.3896,-0.4479,0.3114,-0.1536,-0.2681,0.03,-0.3194,-0.2863,-0.2622,-0.3088,0.0027,0.0187,0.317,0.0036,0.2822,-0.1815,0.2129,-0.1065,-0.13,-0.3347,-0.007,0.7637,-0.7652,-0.3316,0.8162,-0.4336,1.0,-1.0,1.0,-1.0,-1.0,-1.0,-1.0,1.0,-1.0,1.0,1.0,1.0,0.3955,1.0,0.5175,1.0,-1.0,-1.0,0.0,0.0,0.0,0.0,0.0,0.0,0.0,0.0,0.0,-0.0,0.0,-0.0,0.0,0
0.88,run,12.54,-8.49,26.9,11.5,-12.49,0.0,-0.0,0.0,0.247,-21.97,9.67,85.69,-28.83,-10.46,81.39,-23.64,26.54,78.49,29.27,1.76,106.88,0.26,20.3,86.22,-20.57,-10.55,94.66,-12.62,0.01,91.53,-34.59,-12.24,74.43,-31.59,21.0,83.68,31.85,11.94,110.69,-4.16,29.57,87.04,-10.59,-10.92,83.69,1.0,-1.0,0.6367,-1.0,-1.0,-1.0,-1.0,-1.0,1.0,0.8036,1.0,0.6237,-1.0,1.0,-0.2194,1.0,1.0,-1.0,0.013,0.006,0.019,0.0,0.0,0.0,0.019,0.195,0.0,0.026,0.214,0.247,0.019,0.019,0.006,0.0,0.019,0.058,-0.3927,-0.1442,0.0874,-0.4786,-0.4433,0.0706,-0.385,0.1503,-0.0414,0.4786,-0.2823,0.4587,0.0307,-0.0061,0.1273,-0.3789,-0.4617,0.3083,-0.0788,-0.2682,0.0325,-0.3156,-0.2752,-0.264,-0.3082,-0.0556,0.0821,0.2852,0.0888,0.2665,-0.2076,0.2296,-0.1378,-0.0507,-0.286,-0.0164,0.899,-0.7429,0.5012,0.208,-0.2843,1.0,-1.0,1.0,-1.0,1.0,1.0,-1.0,-0.4145,1.0,1.0,-0.3267,0.0129,-1.0,1.0,0.5466,1.0,1.0,-1.0,0.0,0.0,0.0,0.0,0.0,0.0,0.0,0.0,0.0,-0.0,0.0,-0.0,0.0,0
0.92,run,13.32,-8.18,20.78,4.16,-6.68,0.0,-0.0,0.0,0.247,-20.92,8.26,86.75,-30.15,-11.34,79.89,-24.96,24.96,79.89,30.59,3.16,108.02,-0.88,21.71,86.04,-19.86,-11.51,93.87,-11.12,-1.49,93.03,-35.0,-13.74,75.93,-33.09,19.5,85.18,30.35,13.44,109.19,-5.66,30.0,88.54,-9.09,-9.42,82.19,1.0,-1.0,1.0,-1.0,-1.0,1.0,-1.0,0.2096,1.0,-0.2829,1.0,-0.5445,-1.0,1.0,0.406,1.0,1.0,-1.0,0.013,0.006,0.019,0.0,0.0,0.0,0.019,0.195,0.0,0.026,0.214,0.247,0.019,0.019,0.006,0.0,0.019,0.058,-0.3789,-0.1718,0.1028,-0.5016,-0.4663,0.043,-0.4111,0.1227,-0.0199,0.5047,-0.2562,0.4832,0.0061,0.0215,0.1166,-0.3574,-0.4909,0.27,-0.006,-0.2859,0.0773,-0.3027,-0.2745,-0.283,-0.3085,-0.1371,0.1338,0.2924,0.1549,0.2739,-0.2326,0.2589,-0.1347,0.0409,-0.3039,-0.1478,1.0039,-0.7138,0.4695,0.2007,-0.2181,1.0,-1.0,0.6367,-1.0,-1.0,-1.0,-1.0,-1.0,1.0,0.8036,1.0,0.6237,-1.0,1.0,-0.2194,1.0,1.0,-1.0,0.0,0.0,0.0,0.0,0.0,0.0,0.0,0.0,0.0,-0.0,0.0,-0.0,0.0,0
0.96,run,14.1,-7.95,19.89,5.49,-11.07,0.0,-0.0,0.0,0.247,-19.6,6.77,87.98,-31.29,-12.3,78.57,-26.37,23.47,81.39,31.55,4.57,108.81,-2.11,23.03,85.96,-18.11,-12.3,92.2,-9.62,-2.99,94.53,-35.0,-15.24,77.43,-34.59,18.0,86.68,28.85,14.94,107.69,-7.16,30.0,87.04,-7.59,-7.92,80.69,1.0,-1.0,1.0,-1.0,-1.0,1.0,-1.0,-0.6484,1.0,-0.1883,1.0,-0.5166,-1.0,1.0,-1.0,1.0,1.0,-1.0,0.026,0.0,0.026,0.006,0.0,0.0,0.026,0.104,0.0,0.026,0.227,0.104,0.026,0.065,0.033,0.0,0.013,0.013,-0.3605,-0.1963,0.1212,-0.5246,-0.4817,0.0169,-0.4341,0.0951,0.0046,0.5277,-0.2316,0.5031,-0.0138,0.046,0.1135,-0.3451,-0.5077,0.2562,0.064,-0.2911,0.1224,-0.2972,-0.249,-0.2948,-0.3013,-0.1984,0.1847,0.29,0.1994,0.2656,-0.2367,0.2722,-0.1056,0.0741,-0.2753,-0.1547,1.0723,-0.6868,0.3627,0.0727,-0.1165,1.0,-1.0,1.0,-1.0,-1.0,1.0,-1.0,0.2096,1.0,-0.2829,1.0,-0.5445,-1.0,1.0,0.406,1.0,1.0,-1.0,0.0,0.0,0.0,0.0,0.0,0.0,0.0,0.0,0.0,-0.0,0.0,-0.0,0.0,0
1.0,run,15.29,-7.65,27.96,9.97,-13.04,0.0,-0.0,0.0,0.247,-18.28,5.36,89.38,-32.61,-13.27,77.43,-27.77,22.24,82.71,32.34,5.89,109.34,-3.6,24.43,86.22,-16.79,-12.83,90.79,-8.12,-4.49,96.03,-35.0,-16.74,78.93,-35.0,16.5,88.18,27.35,16.44,106.19,-8.66,30.0,85.54,-6.09,-6.42,79.19,1.0,-1.0,1.0,-1.0,-1.0,1.0,-1.0,-0.0577,1.0,-1.0,1.0,-1.0,-1.0,1.0,-0.653,1.0,1.0,-1.0,0.026,0.0,0.026,0.006,0.0,0.0,0.026,0.104,0.0,0.026,0.227,0.104,0.026,0.065,0.033,0.0,0.013,0.013,-0.3375,-0.2224,0.1427,-0.5446,-0.4985,-0.0061,-0.4587,0.069,0.0307,0.5446,-0.2071,0.517,-0.0353,0.069,0.112,-0.3145,-0.5216,0.227,0.1312,-0.3017,0.1663,-0.2829,-0.2376,-0.2927,-0.303,-0.2367,0.2272,0.2663,0.2317,0.2378,-0.2463,0.2769,-0.0797,0.167,-0.2445,-0.2177,1.1406,-0.6669,0.3472,0.0959,-0.1933,1.0,-1.0,1.0,-1.0,-1.0,1.0,-1.0,-0.6484,1.0,-0.1883,1.0,-0.5166,-1.0,1.0,-1.0,1.0,1.0,-1.0,0.0,0.0,0.0,0.0,0.0,0.0,0.0,0.0,0.0,-0.0,0.0,-0.0,0.0,0
1.04,run,15.58,-7.16,10.47,11.71,-11.4,0.0,-0.002,0.0,0.247,-16.88,3.96,90.88,-33.49,-14.41,76.55,-29.0,20.83,84.02,32.78,7.29,109.42,-5.01,25.75,86.66,-15.38,-13.01,89.38,-6.62,-5.99,94.53,-33.5,-18.24,77.43,-35.0,15.0,89.68,25.85,14.94,104.69,-7.16,28.5,84.04,-4.59,-4.92,80.69,0.7656,-1.0,-0.5168,-0.8846,-1.0,-0.0312,-1.0,-1.0,1.0,-1.0,0.5985,-1.0,1.0,0.8204,-1.0,1.0,1.0,1.0,0.026,0.0,0.026,0.006,0.0,0.0,0.026,0.104,0.0,0.026,0.227,0.104,0.026,0.065,0.033,0.0,0.013,0.013,-0.3145,-0.247,0.1672,-0.5676,-0.5154,-0.0261,-0.4832,0.0476,0.0537,0.5584,-0.1841,0.5262,-0.0614,0.0936,0.1166,-0.2915,-0.5308,0.2025,0.1783,-0.3035,0.2087,-0.2846,-0.2298,-0.2799,-0.3044,-0.2465,0.2455,0.2383,0.2487,0.201,-0.2705,0.2861,-0.0385,0.2034,-0.2058,-0.2447,1.2438,-0.6406,0.488,0.1741,-0.2275,1.0,-1.0,1.0,-1.0,-1.0,1.0,-1.0,-0.0577,1.0,-1.0,1.0,-1.0,-1.0,1.0,-0.653,1.0,1.0,-1.0,0.0,0.0,0.0,0.0,0.0,0.0,0.0,0.0,0.0,-0.0133,0.0,-0.0133,0.0,3
1.08,run,16.47,-6.85,21.24,7.15,-0.94,0.0,-0.004,0.0,0.247,-15.56,2.64,92.2,-34.01,-15.47,76.2,-30.32,19.51,85.34,33.05,8.79,109.42,-6.33,27.07,86.22,-13.71,-13.01,88.15,-8.12,-7.49,93.03,-32.0,-19.74,75.93,-35.0,13.5,91.18,24.35,13.44,103.19,-5.66,30.0,82.54,-3.09,-3.42,82.19,-0.5376,-1.0,-1.0,-0.3791,-1.0,-0.1144,-1.0,-1.0,1.0,-1.0,-1.0,-1.0,1.0,1.0,-0.2033,1.0,0.5431,1.0,0.033,0.006,0.006,0.026,0.0,0.013,0.013,0.052,0.0,0.033,0.13,0.0,0.006,0.006,0.0,0.019,0.013,0.006,-0.2899,-0.2715,0.1933,-0.5829,-0.5354,-0.0414,-0.5047,0.023,0.0767,0.566,-0.1595,0.5277,-0.0859,0.1166,0.1243,-0.2669,-0.5338,0.1779,0.2175,-0.305,0.2445,-0.2571,-0.2361,-0.2538,-0.2941,-0.2652,0.2587,0.1958,0.2667,0.1465,-0.282,0.2871,0.002,0.235,-0.1556,-0.2639,1.2693,-0.5972,0.1828,0.2043,-0.199,0.7656,-1.0,-0.5168,-0.8846,-1.0,-0.0312,-1.0,-1.0,1.0,-1.0,0.5985,-1.0,1.0,0.8204,-1.0,1.0,1.0,1.0,0.0,0.0,0.0,0.0,0.0,0.0,0.0,0.0,0.0,-0.0267,0.0,-0.0267,0.0,3
1.12,run,17.59,-4.59,6.31,13.62,3.25,0.0,-0.006,0.0,0.247,-10.11,-3.43,95.27,-33.75,-19.69,75.67,-34.45,14.68,90.18,29.71,12.74,105.03,-8.35,29.79,82.97,-7.82,-8.53,83.06,-9.62,-8.99,91.53,-30.5,-21.24,74.43,-35.0,12.0,92.68,22.85,11.94,101.69,-4.16,30.0,84.04,-1.59,-4.92,83.69,-0.3289,-1.0,-1.0,-0.7331,-1.0,-0.3027,-1.0,-1.0,1.0,-1.0,-1.0,-1.0,1.0,1.0,1.0,1.0,-0.6605,1.0,0.026,0.006,0.0,0.019,0.006,0.0,0.006,0.039,0.0,0.045,0.071,0.0,0.006,0.006,0.006,0.0,0.013,0.0,-0.2669,-0.2945,0.2163,-0.5921,-0.5538,-0.0476,-0.5277,0.0,0.0997,0.5706,-0.1335,0.5277,-0.1089,0.1396,0.1166,-0.2378,-0.5338,0.1565,0.2382,-0.2995,0.2571,-0.2143,-0.234,-0.2006,-0.2918,-0.2716,0.2671,0.1542,0.2841,0.1026,-0.2833,0.2869,-0.0272,0.2734,-0.1089,-0.2649,1.3468,-0.5702,0.3708,0.1248,-0.0163,-0.5376,-1.0,-1.0,-0.3791,-1.0,-0.1144,-1.0,-1.0,1.0,-1.0,-1.0,-1.0,1.0,1.0,-0.2033,1.0,0.5431,1.0,0.0,0.0,0.0,0.0,0.0,0.0,0.0,0.0,0.0,-0.04,0.0,-0.04,0.0,3
1.16,run,17.81,-4.29,3.54,8.0,1.99,0.0,-0.008,0.0,0.247,-9.32,-4.66,95.27,-33.05,-19.95,75.67,-34.54,14.33,90.88,28.3,12.83,104.06,-8.0,29.79,82.62,-6.24,-7.12,82.53,-8.12,-10.49,90.03,-29.0,-22.74,72.93,-35.0,10.5,94.18,21.35,10.44,100.19,-2.66,30.0,85.54,-0.09,-6.42,85.19,0.9077,-1.0,-1.0,-0.2146,-1.0,-1.0,-1.0,-1.0,1.0,-1.0,-1.0,-1.0,1.0,1.0,1.0,1.0,-0.8619,1.0,0.026,0.006,0.0,0.019,0.006,0.0,0.006,0.039,0.0,0.045,0.071,0.0,0.006,0.006,0.006,0.0,0.013,0.0,-0.1718,-0.4004,0.27,-0.5875,-0.6274,-0.0568,-0.5998,-0.0844,0.1841,0.5123,-0.0644,0.451,-0.1442,0.1871,0.0598,-0.135,-0.4556,0.0675,0.2501,-0.3024,0.227,-0.146,-0.2283,-0.1485,-0.2675,-0.264,0.2609,0.0569,0.2594,0.0046,-0.2292,0.2425,-0.0688,0.2814,-0.0077,-0.2634,1.4451,-0.3731,0.1102,0.2378,0.0567,-0.3289,-1.0,-1.0,-0.7331,-1.0,-0.3027,-1.0,-1.0,1.0,-1.0,-1.0,-1.0,1.0,1.0,1.0,1.0,-0.6605,1.0,0.0,0.0,0.0,0.0,0.0,0.0,0.0,0.0,0.0,-0.0533,0.0,-0.0533,0.0,3
1.2,run,18.02,-3.61,4.45,17.73,6.71,0.0,-0.01,0.0,0.247,-8.79,-6.15,94.66,-32.34,-20.48,75.15,-34.54,13.62,91.58,27.07,12.83,102.83,-6.77,29.79,82.71,-5.27,-5.98,82.44,-6.62,-11.99,88.53,-27.5,-24.24,71.43,-35.0,9.0,95.68,19.85,8.94,98.69,-1.16,30.0,87.04,1.41,-7.92,86.69,1.0,-1.0,-0.9528,1.0,-1.0,-0.8077,-1.0,-1.0,1.0,-1.0,-1.0,-1.0,1.0,1.0,1.0,1.0,-1.0,1.0,0.026,0.006,0.0,0.019,0.006,0.0,0.006,0.039,0.0,0.045,0.071,0.0,0.006,0.006,0.006,0.0,0.013,0.0,-0.158,-0.4218,0.27,-0.5752,-0.632,-0.0568,-0.6013,-0.0905,0.1963,0.4878,-0.0629,0.4341,-0.1381,0.1871,0.0537,-0.1074,-0.431,0.0583,0.2258,-0.2906,0.1589,-0.0571,-0.1768,-0.1039,-0.1929,-0.2074,0.2277,-0.0504,0.1872,-0.0588,-0.1379,0.1698,-0.0707,0.2985,0.0849,-0.2182,1.4639,-0.3469,0.0618,0.1396,0.0348,0.9077,-1.0,-1.0,-0.2146,-1.0,-1.0,-1.0,-1.0,1.0,-1.0,-1.0,-1.0,1.0,1.0,1.0,1.0,-0.8619,1.0,0.0,0.0,0.0,0.0,0.0,0.0,0.0,0.0,0.0,-0.0667,0.0,-0.0667,0.0,3
1.24,run,18.16,-3.07,2.52,14.4,3.43,0.0,-0.012,0.0,0.247,-8.35,-7.56,94.22,-31.38,-21.18,74.36,-34.54,12.57,92.55,25.75,12.74,101.51,-5.98,29.79,83.06,-3.16,-4.92,82.53,-5.12,-13.49,87.03,-26.0,-25.74,69.93,-35.0,7.5,97.18,18.35,7.44,97.19,0.34,30.0,88.54,2.91,-9.42,88.19,1.0,-1.0,-0.0098,1.0,-1.0,-1.0,-1.0,-1.0,1.0,-1.0,-1.0,-1.0,1.0,1.0,1.0,1.0,-1.0,1.0,0.033,0.0,0.026,0.052,0.0,0.0,0.006,0.058,0.006,0.071,0.0,0.006,0.026,0.006,0.013,0.0,0.006,0.013,-0.1488,-0.4479,0.2592,-0.563,-0.6412,-0.066,-0.6013,-0.1028,0.2086,0.4663,-0.0629,0.4126,-0.1166,0.1871,0.0552,-0.0905,-0.4111,0.0568,0.1926,-0.3012,0.071,0.0061,-0.1582,-0.1073,-0.135,-0.1912,0.2054,-0.1158,0.131,-0.1217,-0.016,0.1188,-0.0438,0.2722,0.1342,-0.1585,1.4819,-0.2879,0.0777,0.3094,0.1172,1.0,-1.0,-0.9528,1.0,-1.0,-0.8077,-1.0,-1.0,1.0,-1.0,-1.0,-1.0,1.0,1.0,1.0,1.0,-1.0,1.0,0.0,0.0,0.0,0.0,0.0,0.0,0.0,0.0,0.0,-0.08,0.0,-0.08,0.0,3
1.28,run,18.31,-2.42,1.62,11.76,4.75,0.0,-0.014,0.0,0.247,-7.56,-9.32,92.55,-29.88,-22.41,72.95,-34.54,10.99,94.04,23.99,11.6,99.93,-4.13,29.79,84.02,-2.02,-4.22,83.58,-3.62,-14.99,85.53,-24.5,-27.24,68.43,-35.0,6.0,98.68,16.85,5.94,95.69,1.84,30.0,90.04,4.41,-10.92,89.69,1.0,-1.0,0.0796,1.0,-1.0,-1.0,-1.0,-1.0,1.0,-1.0,-0.6878,-1.0,1.0,1.0,1.0,1.0,-1.0,1.0,0.033,0.0,0.026,0.052,0.0,0.0,0.006,0.058,0.006,0.071,0.0,0.006,0.026,0.006,0.013,0.0,0.006,0.013,-0.1411,-0.4725,0.2516,-0.5461,-0.6535,-0.0798,-0.6013,-0.1212,0.2255,0.4433,-0.0644,0.3896,-0.1028,0.1871,0.0614,-0.0537,-0.3927,0.0583,0.1637,-0.3035,0.0207,0.0679,-0.1571,-0.1272,-0.0945,-0.2033,0.2075,-0.1679,0.0859,-0.172,0.0409,0.0832,-0.0075,0.3295,0.1634,-0.1052,1.4946,-0.2403,0.044,0.2513,0.0599,1.0,-1.0,-0.0098,1.0,-1.0,-1.0,-1.0,-1.0,1.0,-1.0,-1.0,-1.0,1.0,1.0,1.0,1.0,-1.0,1.0,0.0,0.0,0.0,0.0,0.0,0.0,0.0,0.0,0.0,-0.0933,0.0,-0.0933,0.0,3
1.32,run,18.4,-1.35,2.08,28.63,2.82,0.0,-0.016,0.0,0.247,-6.42,-10.72,90.18,-28.56,-23.64,71.72,-34.54,9.67,95.19,22.59,10.37,98.7,-2.72,29.79,85.17,0.09,-4.04,84.64,-2.12,-16.49,84.03,-23.0,-28.74,66.93,-35.0,4.5,100.18,15.35,4.44,94.19,3.34,30.0,91.54,5.91,-12.42,91.19,1.0,-1.0,0.0963,1.0,-1.0,-0.3848,-1.0,-1.0,1.0,-1.0,-0.1015,-1.0,1.0,1.0,1.0,1.0,-1.0,1.0,0.033,0.0,0.026,0.052,0.0,0.0,0.006,0.058,0.006,0.071,0.0,0.006,0.026,0.006,0.013,0.0,0.006,0.013,-0.1273,-0.5031,0.2224,-0.52,-0.675,-0.1043,-0.6013,-0.1488,0.2516,0.4126,-0.0844,0.362,-0.0706,0.1871,0.0782,-0.0337,-0.3804,0.0767,0.1567,-0.3059,-0.0742,0.127,-0.1754,-0.1638,-0.0662,-0.2264,0.2247,-0.211,-0.0006,-0.2045,0.1267,0.0582,0.0462,0.2914,0.1517,-0.0176,1.5074,-0.1842,0.0283,0.2052,0.0829,1.0,-1.0,0.0796,1.0,-1.0,-1.0,-1.0,-1.0,1.0,-1.0,-0.6878,-1.0,1.0,1.0,1.0,1.0,-1.0,1.0,0.0,0.0,0.0,0.0,0.0,0.0,0.0,0.0,0.0,-0.1067,0.0,-0.1067,0.0,3
1.36,run,18.04,-0.61,-10.37,18.32,-3.92,0.0,-0.018,0.0,0.247,-5.19,-12.13,89.47,-27.25,-24.87,70.31,-34.54,8.35,96.5,20.83,9.14,97.38,-1.05,29.62,86.66,1.05,-4.04,85.78,-0.62,-17.99,85.53,-21.5,-30.24,65.43,-35.0,3.0,101.68,13.85,2.94,92.69,4.84,28.5,90.04,7.41,-13.92,92.69,1.0,-1.0,0.6806,1.0,-1.0,-0.8477,-1.0,-1.0,1.0,-1.0,-1.0,-1.0,1.0,0.6661,-1.0,1.0,-0.2058,1.0,0.045,0.0,0.033,0.026,0.006,0.013,0.006,0.045,0.006,0.019,0.013,0.019,0.0,0.006,0.019,0.013,0.019,0.0,-0.1074,-0.5277,0.181,-0.497,-0.6964,-0.1258,-0.6013,-0.1718,0.2715,0.3881,-0.1058,0.3405,-0.046,0.1871,0.0982,0.0031,-0.3774,0.0951,0.1839,-0.3055,-0.2061,0.1745,-0.2027,-0.1946,-0.0463,-0.2441,0.2315,-0.239,-0.0803,-0.2231,0.1801,0.0408,0.1065,0.341,0.1176,0.0562,1.5156,-0.0909,0.0364,0.4997,0.0492,1.0,-1.0,0.0963,1.0,-1.0,-0.3848,-1.0,-1.0,1.0,-1.0,-0.1015,-1.0,1.0,1.0,1.0,1.0,-1.0,1.0,0.0,0.0,0.0,0.0,0.0,0.0,0.0,0.0,0.0,-0.12,0.0,-0.12,0.0,3
1.4,run,18.0,-0.33,-3.2,5.83,-0.19,0.0,-0.02,0.0,0.247,-4.13,-13.45,88.42,-25.75,-26.19,68.91,-34.54,6.86,97.91,19.25,7.91,96.15,-0.09,29.36,87.71,2.55,-4.39,87.45,-2.12,-19.49,87.03,-20.0,-31.74,66.93,-35.0,1.5,103.18,12.35,1.44,91.19,6.34,27.0,91.54,8.91,-15.42,94.19,-0.0844,-0.4477,0.6909,1.0,-1.0,0.0545,-1.0,-1.0,1.0,-1.0,0.3568,-1.0,1.0,0.6135,0.5392,1.0,-0.7733,1.0,0.045,0.0,0.033,0.026,0.006,0.013,0.006,0.045,0.006,0.019,0.013,0.019,0.0,0.006,0.019,0.013,0.019,0.0,-0.0859,-0.5522,0.1687,-0.474,-0.7179,-0.1503,-0.6013,-0.1948,0.2945,0.3574,-0.1273,0.3175,-0.0169,0.1841,0.1243,0.0199,-0.3774,0.115,0.2096,-0.3063,-0.1905,0.2089,-0.2228,-0.2287,-0.0324,-0.2576,0.2487,-0.2829,-0.1372,-0.2429,0.2359,0.017,0.1728,0.3023,0.0823,0.1145,1.4837,-0.0258,-0.1809,0.3198,-0.0684,1.0,-1.0,0.6806,1.0,-1.0,-0.8477,-1.0,-1.0,1.0,-1.0,-1.0,-1.0,1.0,0.6661,-1.0,1.0,-0.2058,1.0,0.0,0.0,0.0,0.0,0.0,0.0,0.0,0.0,0.0,-0.1333,0.0,-0.1333,0.0,3
1.44,run,17.93,0.94,-1.4,31.64,-4.26,0.0,-0.022,0.0,0.247,-2.72,-14.94,86.66,-24.26,-27.33,67.68,-34.54,5.45,99.23,17.75,7.12,94.57,1.49,28.56,88.86,3.78,-5.27,88.24,-0.62,-20.99,85.53,-18.5,-33.24,68.43,-35.0,0.0,104.68,10.85,1.66,89.69,7.84,28.5,93.04,10.41,-16.92,95.69,0.6497,-1.0,-0.264,1.0,-1.0,1.0,-1.0,-1.0,1.0,-1.0,0.4848,-1.0,1.0,1.0,1.0,1.0,-1.0,1.0,0.045,0.0,0.033,0.026,0.006,0.013,0.006,0.045,0.006,0.019,0.013,0.019,0.0,0.006,0.019,0.013,0.019,0.0,-0.0675,-0.5752,0.1503,-0.4479,-0.7409,-0.1749,-0.6013,-0.2209,0.3191,0.3298,-0.1488,0.2961,0.0,0.1795,0.1427,0.046,-0.3835,0.1442,0.2158,-0.3007,-0.2024,0.244,-0.2422,-0.2521,-0.0227,-0.2781,0.2661,-0.3016,-0.1765,-0.2505,0.2284,-0.0054,0.19,0.3094,0.0346,0.1894,1.4803,-0.0014,-0.0558,0.1017,-0.0033,-0.0844,-0.4477,0.6909,1.0,-1.0,0.0545,-1.0,-1.0,1.0,-1.0,0.3568,-1.0,1.0,0.6135,0.5392,1.0,-0.7733,1.0,0.0,0.0,0.0,0.0,0.0,0.0,0.0,0.0,0.0,-0.1467,0.0,-0.1467,0.0,3
1.48,run,17.94,1.61,-1.39,18.2,2.23,0.0,-0.024,0.0,0.247,-1.85,-16.44,86.22,-22.76,-28.56,66.8,-34.54,4.04,100.55,16.35,5.27,93.25,2.99,28.04,90.09,5.62,-6.24,90.53,0.88,-22.49,87.03,-17.0,-34.74,66.93,-35.0,-1.5,106.18,9.35,0.16,88.19,9.34,27.0,91.54,11.91,-15.42,97.19,1.0,-0.2895,1.0,1.0,-1.0,0.0029,-1.0,-1.0,1.0,-1.0,-1.0,-1.0,1.0,-0.0266,-1.0,1.0,1.0,1.0,0.039,0.006,0.0,0.013,0.013,0.013,0.006,0.039,0.013,0.019,0.006,0.013,0.013,0.0,0.039,0.0,0.039,0.006,-0.043,-0.6013,0.1197,-0.4218,-0.7609,-0.1963,-0.6013,-0.2454,0.3421,0.3037,-0.1626,0.2684,0.0276,0.1657,0.1626,0.0675,-0.3988,0.158,0.2426,-0.3078,-0.2561,0.2681,-0.244,-0.2566,-0.0159,-0.2862,0.2721,-0.3084,-0.1751,-0.2784,0.2629,-0.0553,0.2074,0.2967,-0.033,0.1841,1.4745,0.1094,-0.0245,0.5522,-0.0744,0.6497,-1.0,-0.264,1.0,-1.0,1.0,-1.0,-1.0,1.0,-1.0,0.4848,-1.0,1.0,1.0,1.0,1.0,-1.0,1.0,0.0,0.0,0.0,0.0,0.0,0.0,0.0,0.0,0.0,-0.16,0.0,-0.16,0.0,3
1.52,run,18.03,2.2,0.36,16.12,-3.33,0.0,-0.026,0.0,0.247,-1.23,-17.84,85.52,-21.27,-30.06,65.92,-34.54,2.55,101.95,14.85,3.96,91.85,4.31,27.42,90.97,6.59,-7.73,91.41,2.38,-23.99,85.53,-15.5,-36.24,68.43,-35.0,-3.0,107.68,7.85,1.66,86.69,10.84,28.5,93.04,13.41,-13.92,98.69,0.685,-0.4269,-0.0997,1.0,-1.0,0.1094,-1.0,-1.0,1.0,-1.0,0.7931,-1.0,1.0,1.0,1.0,1.0,0.2992,0.6493,0.039,0.006,0.0,0.013,0.013,0.013,0.006,0.039,0.013,0.019,0.006,0.013,0.013,0.0,0.039,0.0,0.039,0.006,-0.0276,-0.6274,0.112,-0.3958,-0.7823,-0.2117,-0.6013,-0.27,0.3651,0.2792,-0.1948,0.2454,0.0537,0.1565,0.1841,0.0997,-0.4157,0.1979,0.2273,-0.3132,-0.208,0.2854,-0.2513,-0.2371,-0.0111,-0.2923,0.2767,-0.3079,-0.2433,-0.2811,0.2817,-0.0732,0.2257,0.3284,-0.0863,0.2783,1.4755,0.1676,-0.0242,0.3177,0.0389,1.0,-0.2895,1.0,1.0,-1.0,0.0029,-1.0,-1.0,1.0,-1.0,-1.0,-1.0,1.0,-0.0266,-1.0,1.0,1.0,1.0,0.0,0.0,0.0,0.0,0.0,0.0,0.0,0.0,0.0,-0.1733,0.0,-0.1733,0.0,3
1.56,run,18.05,3.13,-0.77,23.6,0.35,0.0,-0.028,0.0,0.247,-0.26,-19.25,85.43,-19.78,-31.46,65.65,-34.54,1.14,103.18,13.36,2.81,90.44,5.71,26.81,91.85,8.44,-9.14,92.99,3.88,-25.49,84.03,-14.0,-37.74,69.93,-35.0,-4.5,109.18,6.35,0.16,85.19,12.34,27.0,91.54,14.91,-12.42,100.19,1.0,-0.7646,-0.0557,1.0,-1.0,0.7362,-1.0,-1.0,1.0,-1.0,0.2383,-1.0,1.0,0.4689,-0.0634,1.0,1.0,0.6352,0.039,0.006,0.0,0.013,0.013,0.013,0.006,0.039,0.013,0.019,0.006,0.013,0.013,0.0,0.039,0.0,0.039,0.006,-0.0169,-0.6519,0.0997,-0.3697,-0.8084,-0.227,-0.6013,-0.2961,0.3896,0.2531,-0.2178,0.2209,0.0767,0.1457,0.1994,0.1166,-0.4418,0.2132,0.1997,-0.312,-0.192,0.2983,-0.2744,-0.2239,-0.0078,-0.3032,0.2865,-0.314,-0.2572,-0.2895,0.2842,-0.0918,0.2159,0.2936,-0.159,0.2528,1.4828,0.2192,0.0063,0.2813,-0.058,0.685,-0.4269,-0.0997,1.0,-1.0,0.1094,-1.0,-1.0,1.0,-1.0,0.7931,-1.0,1.0,1.0,1.0,1.0,0.2992,0.6493,0.0,0.0,0.0,0.0,0.0,0.0,0.0,0.0,0.0,-0.1867,0.0,-0.1867,0.0,3
1.6,run,18.38,4.14,8.44,27.13,-3.31,0.0,-0.03,0.0,0.247,0.97,-20.74,85.43,-18.37,-32.87,65.57,-34.54,-0.35,104.15,12.04,1.76,89.03,7.12,26.63,92.37,9.58,-10.37,94.48,5.38,-26.99,82.53,-12.5,-39.24,68.43,-35.0,-6.0,110.68,4.85,-1.34,83.69,13.84,25.5,93.04,16.41,-10.92,101.69,1.0,-0.5326,0.0875,1.0,-1.0,-0.5734,-1.0,-1.0,1.0,-1.0,-0.0404,-1.0,1.0,0.2844,1.0,1.0,1.0,0.4979,0.045,0.0,0.006,0.019,0.026,0.006,0.006,0.039,0.019,0.013,0.013,0.013,0.019,0.006,0.019,0.052,0.026,0.019,0.0,-0.6765,0.0982,-0.3436,-0.833,-0.2316,-0.6013,-0.3206,0.4111,0.227,-0.2378,0.1963,0.1012,0.135,0.2148,0.1488,-0.4663,0.2408,0.2027,-0.3098,-0.1401,0.306,-0.2835,-0.1739,-0.0054,-0.3037,0.2805,-0.317,-0.2544,-0.2941,0.2904,-0.1043,0.2083,0.3256,-0.2027,0.2798,1.4844,0.3002,-0.0134,0.4119,0.0062,1.0,-0.7646,-0.0557,1.0,-1.0,0.7362,-1.0,-1.0,1.0,-1.0,0.2383,-1.0,1.0,0.4689,-0.0634,1.0,1.0,0.6352,0.0,0.0,0.0,0.0,0.0,0.0,0.0,0.0,0.0,-0.2,0.0,-0.2,0.0,3
1.64,run,18.76,4.91,7.8,18.18,2.48,0.0,-0.032,0.0,0.247,2.11,-22.15,84.9,-17.05,-34.19,65.83,-34.54,-1.76,105.91,10.55,0.97,87.54,8.53,26.28,92.46,11.07,-11.51,95.71,6.88,-28.49,81.03,-11.0,-40.74,66.93,-35.0,-7.5,112.18,3.35,0.16,82.19,15.34,24.0,94.54,17.91,-9.42,100.19,0.9821,-0.6572,-0.7951,1.0,-1.0,-0.7114,-1.0,-1.0,1.0,-1.0,0.5244,-1.0,1.0,0.5133,1.0,1.0,1.0,-0.4913,0.045,0.0,0.006,0.019,0.026,0.006,0.006,0.039,0.019,0.013,0.013,0.013,0.019,0.006,0.019,0.052,0.026,0.019,0.0215,-0.7026,0.0982,-0.3191,-0.8575,-0.2332,-0.6013,-0.3467,0.428,0.204,-0.2562,0.1718,0.1258,0.1319,0.224,0.1687,-0.4878,0.2669,0.2223,-0.3145,-0.0981,0.3061,-0.2904,-0.1275,-0.0038,-0.3102,0.2595,-0.308,-0.247,-0.2978,0.2951,-0.0845,0.1803,0.3026,-0.2223,0.2935,1.5135,0.3889,0.1472,0.4736,-0.0578,1.0,-0.5326,0.0875,1.0,-1.0,-0.5734,-1.0,-1.0,1.0,-1.0,-0.0404,-1.0,1.0,0.2844,1.0,1.0,1.0,0.4979,0.0,0.0,0.0,0.0,0.0,0.0,0.0,0.0,0.0,-0.2133,0.0,-0.2133,0.0,3
1.68,run,18.94,5.76,2.38,22.03,2.8,0.0,-0.034,0.0,0.247,3.25,-23.55,84.2,-15.64,-35.6,66.62,-34.54,-3.25,107.4,9.14,0.09,86.22,9.93,25.66,92.46,12.3,-12.39,96.86,8.38,-29.99,79.53,-9.5,-42.24,65.43,-35.0,-9.0,113.68,1.85,1.66,80.69,16.84,22.5,96.04,19.41,-7.92,98.69,1.0,-1.0,-0.5457,1.0,-1.0,-0.72,-1.0,-1.0,1.0,-1.0,0.6756,-1.0,1.0,0.563,1.0,1.0,1.0,-1.0,0.045,0.0,0.006,0.019,0.026,0.006,0.006,0.039,0.019,0.013,0.013,0.013,0.019,0.006,0.019,0.052,0.026,0.019,0.0414,-0.7271,0.089,-0.2961,-0.8805,-0.2286,-0.6013,-0.3712,0.4587,0.1779,-0.27,0.1457,0.1503,0.1258,0.2255,0.1948,-0.5077,0.2884,0.2309,-0.3128,-0.1034,0.3011,-0.2901,-0.0719,-0.0027,-0.3098,0.2975,-0.3141,-0.225,-0.3069,0.2993,-0.0823,0.132,0.3103,-0.2309,0.2866,1.5464,0.4559,0.1362,0.3173,0.0433,0.9821,-0.6572,-0.7951,1.0,-1.0,-0.7114,-1.0,-1.0,1.0,-1.0,0.5244,-1.0,1.0,0.5133,1.0,1.0,1.0,-0.4913,0.0,0.0,0.0,0.0,0.0,0.0,0.0,0.0,0.0,-0.2267,0.0,-0.2267,0.0,3
1.72,run,19.03,6.43,1.67,16.55,11.46,0.0,-0.036,0.0,0.247,4.66,-24.96,83.23,-14.24,-37.09,66.88,-34.54,-4.66,108.81,7.73,-0.62,84.73,11.34,24.79,93.16,13.8,-13.1,98.26,9.88,-31.49,80.24,-8.0,-43.74,63.93,-35.0,-10.5,115.18,0.35,3.16,79.19,18.34,21.0,97.54,20.91,-6.42,97.19,1.0,-1.0,0.1793,1.0,-1.0,-1.0,-1.0,-1.0,1.0,-1.0,0.6581,-1.0,1.0,0.2866,1.0,1.0,1.0,-1.0,0.045,0.0,0.006,0.013,0.026,0.0,0.006,0.033,0.019,0.013,0.006,0.019,0.013,0.013,0.039,0.013,0.0,0.013,0.0614,-0.7517,0.0767,-0.2715,-0.905,-0.2148,-0.6013,-0.3973,0.4847,0.1534,-0.2853,0.1227,0.1749,0.115,0.2255,0.2163,-0.5231,0.3083,0.2358,-0.3103,-0.118,0.3021,-0.2944,0.0011,-0.0019,-0.3139,0.3053,-0.3112,-0.2146,-0.3004,0.3008,-0.0976,0.0924,0.2971,-0.2187,0.2748,1.5628,0.5303,0.0416,0.3844,0.0488,1.0,-1.0,-0.5457,1.0,-1.0,-0.72,-1.0,-1.0,1.0,-1.0,0.6756,-1.0,1.0,0.563,1.0,1.0,1.0,-1.0,0.0,0.0,0.0,0.0,0.0,0.0,0.0,0.0,0.0,-0.24,0.0,-0.24,0.0,3
1.76,run,18.89,6.96,-5.03,13.52,10.55,0.0,-0.038,0.0,0.247,5.98,-26.37,82.18,-12.83,-38.5,66.88,-34.54,-6.06,110.13,6.24,-0.88,83.32,12.83,23.64,93.96,15.21,-13.97,99.23,11.38,-32.99,81.6,-6.5,-45.24,62.43,-35.0,-12.0,116.68,-1.15,4.66,77.69,19.84,19.5,99.04,22.41,-4.92,95.69,1.0,-1.0,0.1953,1.0,-1.0,-0.9056,-1.0,-1.0,1.0,-1.0,1.0,-1.0,1.0,0.3839,1.0,1.0,1.0,-1.0,0.045,0.0,0.006,0.013,0.026,0.0,0.006,0.033,0.019,0.013,0.006,0.019,0.013,0.013,0.039,0.013,0.0,0.013,0.0859,-0.7762,0.0598,-0.247,-0.9311,-0.2102,-0.6013,-0.4218,0.5093,0.1289,-0.2976,0.0966,0.1994,0.0997,0.2378,0.2424,-0.5354,0.3329,0.2573,-0.3095,-0.1461,0.3038,-0.3041,0.018,-0.0013,-0.312,0.306,-0.3101,-0.1963,-0.3084,0.3028,-0.126,0.1108,0.306,-0.1992,0.2846,1.5701,0.5883,0.0292,0.2888,0.2,1.0,-1.0,0.1793,1.0,-1.0,-1.0,-1.0,-1.0,1.0,-1.0,0.6581,-1.0,1.0,0.2866,1.0,1.0,1.0,-1.0,0.0,0.0,0.0,0.0,0.0,0.0,0.0,0.0,0.0,-0.2533,0.0,-0.2533,0.0,3
1.8,run,18.53,7.1,-9.08,3.36,8.69,0.0,-0.04,0.0,0.247,7.56,-27.6,81.21,-11.43,-39.9,66.53,-34.54,-7.56,111.53,4.83,-0.88,81.91,14.15,22.15,95.01,16.61,-13.54,99.93,12.88,-34.49,83.1,-5.0,-46.74,60.93,-35.0,-13.5,118.18,-2.65,6.16,76.19,21.34,18.0,100.54,23.91,-3.42,94.19,1.0,-1.0,0.5785,1.0,-1.0,-0.5228,-1.0,-1.0,1.0,-1.0,1.0,-1.0,1.0,0.3528,1.0,1.0,1.0,-1.0,0.045,0.0,0.006,0.013,0.026,0.0,0.006,0.033,0.019,0.013,0.006,0.019,0.013,0.013,0.039,0.013,0.0,0.013,0.1089,-0.8007,0.0414,-0.2224,-0.9557,-0.2102,-0.6013,-0.4464,0.5323,0.1028,-0.3022,0.0721,0.2255,0.0798,0.2516,0.2669,-0.5507,0.3497,0.2668,-0.309,-0.1716,0.305,-0.3053,0.0126,-0.0009,-0.3108,0.3008,-0.3153,-0.1548,-0.3083,0.3102,-0.1633,0.1295,0.3066,-0.1972,0.2628,1.5578,0.6342,-0.0878,0.236,0.1842,1.0,-1.0,0.1953,1.0,-1.0,-0.9056,-1.0,-1.0,1.0,-1.0,1.0,-1.0,1.0,0.3839,1.0,1.0,1.0,-1.0,0.0,0.0,0.0,0.0,0.0,0.0,0.0,0.0,0.0,-0.2667,0.0,-0.2667,0.0,3
1.84,run,18.17,7.04,-10.12,-1.85,3.39,0.0,-0.042,0.0,0.247,9.05,-28.92,80.6,-10.02,-41.31,65.48,-34.54,-8.96,112.85,3.52,-0.53,80.6,15.56,20.83,96.42,18.02,-12.92,100.37,14.38,-35.99,84.6,-3.5,-48.24,62.43,-35.0,-15.0,119.68,-4.15,7.66,74.69,19.84,16.5,102.04,25.41,-1.92,92.69,1.0,-1.0,0.949,1.0,-1.0,0.5906,-1.0,-1.0,1.0,-1.0,1.0,-1.0,0.474,0.5799,1.0,1.0,1.0,-1.0,0.026,0.013,0.0,0.019,0.026,0.013,0.013,0.026,0.026,0.006,0.006,0.013,0.019,0.0,0.052,0.026,0.033,0.006,0.1365,-0.8222,0.0245,-0.1979,-0.9802,-0.2163,-0.6013,-0.4725,0.5568,0.0782,-0.3022,0.0476,0.2485,0.0537,0.27,0.2915,-0.543,0.362,0.29,-0.2967,-0.1832,0.3053,-0.3055,-0.0141,-0.0006,-0.3151,0.3024,-0.3125,-0.1083,-0.3076,0.3032,-0.2118,0.1595,0.3064,-0.1094,0.2298,1.5264,0.6472,-0.1585,0.0587,0.1517,1.0,-1.0,0.5785,1.0,-1.0,-0.5228,-1.0,-1.0,1.0,-1.0,1.0,-1.0,1.0,0.3528,1.0,1.0,1.0,-1.0,0.0,0.0,0.0,0.0,0.0,0.0,0.0,0.0,0.0,-0.28,0.0,-0.28,0.0,3
1.88,run,17.79,6.84,-10.52,-4.4,1.91,0.0,-0.044,0.0,0.247,10.63,-30.15,80.33,-8.61,-42.71,64.42,-34.54,-10.46,114.35,2.02,0.35,79.1,16.88,19.51,97.82,19.34,-12.13,100.28,15.88,-37.49,86.1,-2.0,-49.74,63.93,-35.0,-16.5,121.18,-5.65,9.16,73.19,18.34,17.61,103.54,26.91,-0.42,91.19,1.0,-1.0,1.0,1.0,-1.0,1.0,-1.0,-1.0,1.0,-1.0,1.0,-1.0,-0.8832,0.7747,1.0,1.0,1.0,-1.0,0.026,0.013,0.0,0.019,0.026,0.013,0.013,0.026,0.026,0.006,0.006,0.013,0.019,0.0,0.052,0.026,0.033,0.006,0.1626,-0.8452,0.0138,-0.1733,-1.0048,-0.2347,-0.6013,-0.497,0.5798,0.0552,-0.2961,0.0245,0.273,0.0307,0.2945,0.316,-0.5323,0.3697,0.3017,-0.2947,-0.1689,0.3066,-0.3067,-0.0795,-0.0004,-0.3134,0.2987,-0.3058,-0.0526,-0.3024,0.3051,-0.2353,0.2045,0.3074,-0.0359,0.1899,1.4953,0.6412,-0.1767,-0.0323,0.0592,1.0,-1.0,0.949,1.0,-1.0,0.5906,-1.0,-1.0,1.0,-1.0,1.0,-1.0,0.474,0.5799,1.0,1.0,1.0,-1.0,0.0,0.0,0.0,0.0,0.0,0.0,0.0,0.0,0.0,-0.2933,0.0,-0.2933,0.0,3
1.92,run,17.58,6.52,-5.96,-6.54,8.22,0.0,-0.046,0.0,0.247,12.13,-31.29,80.33,-7.21,-44.12,63.54,-34.54,-11.87,115.66,0.62,1.49,77.7,18.02,18.28,99.32,20.65,-10.99,99.58,17.38,-38.99,87.6,-0.5,-48.24,65.43,-35.0,-18.0,122.68,-7.15,10.66,71.69,16.84,19.11,105.04,28.41,1.08,89.69,1.0,-1.0,1.0,1.0,-0.1673,1.0,-1.0,-1.0,1.0,-1.0,1.0,-0.554,-1.0,0.8048,0.7217,1.0,1.0,-1.0,0.026,0.013,0.0,0.019,0.026,0.013,0.013,0.026,0.026,0.006,0.006,0.013,0.019,0.0,0.052,0.026,0.033,0.006,0.1902,-0.8667,0.0092,-0.1488,-1.0293,-0.2531,-0.6013,-0.5231,0.6059,0.0291,-0.2807,-0.0015,0.2961,0.0077,0.3191,0.339,-0.5185,0.3682,0.3151,-0.2871,-0.1355,0.307,-0.3071,-0.1249,-0.0003,-0.3176,0.3073,-0.3122,0.0209,-0.3098,0.3002,-0.2513,0.2356,0.3018,0.0268,0.1272,1.4624,0.6242,-0.1836,-0.0768,0.0334,1.0,-1.0,1.0,1.0,-1.0,1.0,-1.0,-1.0,1.0,-1.0,1.0,-1.0,-0.8832,0.7747,1.0,1.0,1.0,-1.0,0.0,0.0,0.0,0.0,0.0,0.0,0.0,0.0,0.0,-0.3067,0.0,-0.3067,0.0,3
1.96,run,17.51,6.31,-2.17,-3.93,11.09,0.0,-0.048,0.0,0.247,13.62,-32.96,80.68,-5.8,-45.44,62.84,-34.54,-13.01,116.98,-0.88,2.81,76.29,18.81,17.49,100.81,22.15,-9.84,98.7,18.88,-40.49,89.1,1.0,-46.74,66.93,-35.0,-19.5,124.18,-8.65,12.16,70.19,15.34,20.61,103.54,29.91,2.58,88.19,1.0,-1.0,1.0,1.0,0.1142,1.0,-1.0,-1.0,1.0,-1.0,1.0,-0.1331,-1.0,1.0,0.3517,1.0,1.0,-1.0,0.006,0.026,0.006,0.019,0.019,0.006,0.006,0.091,0.033,0.013,0.006,0.019,0.006,0.006,0.026,0.033,0.058,0.019,0.2163,-0.8866,0.0092,-0.1243,-1.0538,-0.2684,-0.6013,-0.5476,0.6289,0.0046,-0.2608,-0.0261,0.316,-0.0138,0.3451,0.362,-0.4985,0.3559,0.3174,-0.2751,-0.0949,0.3061,-0.3061,-0.1444,-0.0002,-0.3135,0.3006,-0.3097,0.0887,-0.308,0.2842,-0.2557,0.2618,0.2967,0.0928,0.0434,1.4438,0.5961,-0.104,-0.1141,0.1434,1.0,-1.0,1.0,1.0,-0.1673,1.0,-1.0,-1.0,1.0,-1.0,1.0,-0.554,-1.0,0.8048,0.7217,1.0,1.0,-1.0,0.0,0.0,0.0,0.0,0.0,0.0,0.0,0.0,0.0,-0.32,0.0,-0.32,0.0,3
2.0,run,17.44,5.95,-0.93,-8.62,10.38,0.0,-0.05,0.0,0.247,14.94,-34.37,81.56,-4.39,-46.49,62.49,-34.54,-14.33,118.39,-2.29,4.22,74.88,19.42,16.79,102.22,23.55,-8.53,97.03,20.38,-41.99,90.6,2.5,-45.24,68.43,-35.0,-21.0,125.68,-10.15,11.67,71.69,13.84,22.11,102.04,31.41,4.08,86.69,1.0,-1.0,1.0,1.0,0.0579,1.0,-1.0,-1.0,1.0,-1.0,0.6667,0.3297,-1.0,1.0,-0.7207,1.0,1.0,-1.0,0.006,0.026,0.006,0.019,0.019,0.006,0.006,0.091,0.033,0.013,0.006,0.019,0.006,0.006,0.026,0.033,0.058,0.019,0.2424,-0.9158,0.0153,-0.0997,-1.0769,-0.2807,-0.6013,-0.5676,0.6519,-0.0215,-0.2378,-0.0506,0.3298,-0.0276,0.3712,0.3881,-0.4786,0.3405,0.3199,-0.3018,-0.0434,0.3062,-0.3005,-0.1471,-0.0002,-0.2942,0.2966,-0.3145,0.1483,-0.3076,0.2507,-0.2307,0.281,0.3054,0.1397,-0.0271,1.4379,0.578,-0.038,-0.0685,0.1936,1.0,-1.0,1.0,1.0,0.1142,1.0,-1.0,-1.0,1.0,-1.0,1.0,-0.1331,-1.0,1.0,0.3517,1.0,1.0,-1.0,0.0,0.0,0.0,0.0,0.0,0.0,0.0,0.0,0.0,-0.3333,0.0,-0.3333,0.0,3
2.04,run,17.24,6.18,-8.14,10.61,4.23,0.0,-0.05,0.0,0.247,16.44,-35.86,82.71,-2.9,-47.37,62.67,-34.63,-16.17,119.79,-3.78,5.71,73.56,19.69,16.35,103.27,24.96,-6.94,95.98,21.88,-43.49,92.1,4.0,-43.74,69.93,-35.0,-22.5,127.18,-11.65,13.17,73.19,12.34,23.61,100.54,32.91,5.58,85.19,1.0,-1.0,1.0,0.7606,0.29,1.0,-1.0,-1.0,1.0,-1.0,0.9496,0.778,-1.0,1.0,-1.0,1.0,1.0,-1.0,0.006,0.026,0.006,0.019,0.019,0.006,0.006,0.091,0.033,0.013,0.006,0.019,0.006,0.006,0.026,0.033,0.058,0.019,0.2654,-0.9403,0.0307,-0.0752,-1.0953,-0.2869,-0.6013,-0.5906,0.6765,-0.046,-0.2132,-0.0752,0.3405,-0.0399,0.3958,0.4126,-0.4556,0.3114,0.3099,-0.3029,0.0269,0.306,-0.2791,-0.1259,-0.0001,-0.2918,0.2993,-0.3118,0.1955,-0.307,0.2156,-0.2073,0.2883,0.3055,0.1837,-0.1278,1.4318,0.5468,-0.0162,-0.1505,0.1811,1.0,-1.0,1.0,1.0,0.0579,1.0,-1.0,-1.0,1.0,-1.0,0.6667,0.3297,-1.0,1.0,-0.7207,1.0,1.0,-1.0,0.0,0.0,0.0,0.0,0.0,0.0,0.0,0.0,0.0,-0.3333,0.0,-0.3333,0.0,3
2.08,run,17.32,5.82,2.06,-11.29,6.01,0.0,-0.05,0.0,0.247,17.84,-37.09,84.11,-1.58,-47.9,62.93,-34.63,-17.58,121.11,-4.83,7.03,72.42,19.6,16.26,103.97,26.28,-5.62,95.01,23.38,-44.99,93.6,2.5,-42.24,71.43,-35.0,-24.0,128.68,-13.15,11.67,74.69,10.84,22.11,99.04,34.41,7.08,83.69,1.0,-1.0,1.0,-0.3928,0.7161,0.7708,-1.0,-1.0,1.0,-0.8558,-0.9299,1.0,-1.0,0.7934,-1.0,1.0,1.0,-1.0,0.006,0.026,0.006,0.013,0.006,0.013,0.006,0.033,0.039,0.033,0.006,0.006,0.013,0.033,0.013,0.045,0.065,0.026,0.2915,-0.9664,0.0506,-0.0491,-1.1106,-0.2838,-0.6029,-0.6228,0.701,-0.0721,-0.1871,-0.0982,0.3451,-0.0476,0.4142,0.4372,-0.428,0.293,0.3147,-0.3098,0.0936,0.312,-0.2529,-0.0766,-0.0058,-0.3251,0.3015,-0.316,0.2346,-0.3012,0.1682,-0.1739,0.2708,0.3058,0.2321,-0.1585,1.414,0.5662,-0.142,0.1853,0.0739,1.0,-1.0,1.0,0.7606,0.29,1.0,-1.0,-1.0,1.0,-1.0,0.9496,0.778,-1.0,1.0,-1.0,1.0,1.0,-1.0,0.0,0.0,0.0,0.0,0.0,0.0,0.0,0.0,0.0,-0.3333,0.0,-0.3333,0.0,3
2.12,run,17.34,5.59,-0.75,-5.35,-0.5,0.0,-0.05,0.0,0.247,19.25,-38.41,85.43,-0.18,-48.08,64.07,-34.72,-18.98,122.52,-6.42,8.35,71.54,18.72,16.7,104.41,27.69,-4.39,93.52,24.88,-46.49,95.1,1.0,-40.74,72.93,-35.0,-25.5,130.18,-14.65,13.17,76.19,9.34,23.61,97.54,35.0,8.58,82.19,1.0,-1.0,1.0,-1.0,0.334,0.7172,-1.0,-1.0,1.0,-1.0,1.0,1.0,-1.0,1.0,-1.0,1.0,1.0,-1.0,0.006,0.026,0.006,0.013,0.006,0.013,0.006,0.033,0.039,0.033,0.006,0.006,0.013,0.033,0.013,0.045,0.065,0.026,0.316,-0.9879,0.0752,-0.0261,-1.1198,-0.2792,-0.6029,-0.6473,0.724,-0.0905,-0.1641,-0.1181,0.3436,-0.0491,0.4264,0.4602,-0.405,0.2761,0.3124,-0.2974,0.1576,0.3047,-0.2116,-0.0364,-0.0041,-0.3196,0.2974,-0.2903,0.2506,-0.2856,0.112,-0.1275,0.2356,0.3004,0.2488,-0.1743,1.4212,0.5348,0.036,-0.197,0.1049,1.0,-1.0,1.0,-0.3928,0.7161,0.7708,-1.0,-1.0,1.0,-0.8558,-0.9299,1.0,-1.0,0.7934,-1.0,1.0,1.0,-1.0,0.0,0.0,0.0,0.0,0.0,0.0,0.0,0.0,0.0,-0.3333,0.0,-0.3333,0.0,3
2.16,run,17.8,5.17,11.03,-8.52,5.06,0.0,-0.05,0.0,0.247,20.74,-39.81,86.84,0.97,-48.08,65.13,-34.72,-20.48,123.93,-7.73,9.14,71.1,17.84,17.4,104.41,29.0,-3.16,91.93,26.38,-47.99,96.6,-0.5,-39.24,71.43,-35.0,-27.0,131.68,-16.15,11.67,77.69,7.84,22.11,96.04,35.0,10.08,80.69,1.0,-1.0,1.0,-1.0,0.2956,-0.248,-1.0,-1.0,1.0,-1.0,-0.2667,1.0,-1.0,0.6048,-1.0,1.0,1.0,-1.0,0.006,0.026,0.006,0.013,0.006,0.013,0.006,0.033,0.039,0.033,0.006,0.006,0.013,0.033,0.013,0.045,0.065,0.026,0.3405,-1.0109,0.0982,-0.0015,-1.1229,-0.2592,-0.6044,-0.6719,0.7486,-0.1181,-0.1411,-0.1335,0.3283,-0.0414,0.4341,0.4847,-0.3835,0.25,0.3112,-0.2949,0.1971,0.3058,-0.1597,0.0497,-0.0086,-0.3163,0.3007,-0.3073,0.2621,-0.2578,0.0205,-0.0603,0.1939,0.3028,0.2551,-0.2203,1.423,0.5155,-0.013,-0.0933,-0.0087,1.0,-1.0,1.0,-1.0,0.334,0.7172,-1.0,-1.0,1.0,-1.0,1.0,1.0,-1.0,1.0,-1.0,1.0,1.0,-1.0,0.0,0.0,0.0,0.0,0.0,0.0,0.0,0.0,0.0,-0.3333,0.0,-0.3333,0.0,3
2.2,run,18.42,5.21,13.18,3.24,11.61,0.0,-0.05,0.0,0.247,22.15,-41.22,88.24,1.67,-47.64,66.62,-34.72,-21.88,125.24,-9.05,10.72,70.75,16.61,18.63,103.97,30.32,-2.11,90.62,27.88,-49.49,98.1,-2.0,-40.74,69.93,-35.0,-28.5,133.18,-17.65,13.17,79.19,6.34,23.61,94.54,35.0,11.58,79.19,1.0,-1.0,1.0,-1.0,-0.8421,-1.0,-1.0,-1.0,1.0,-1.0,0.9337,1.0,-1.0,1.0,-1.0,1.0,1.0,-1.0,0.013,0.033,0.013,0.006,0.006,0.006,0.006,0.019,0.052,0.019,0.006,0.013,0.013,0.052,0.006,0.065,0.227,0.013,0.3666,-1.0354,0.1227,0.0184,-1.1229,-0.2408,-0.6044,-0.698,0.7731,-0.1411,-0.1273,-0.1411,0.3129,-0.0291,0.4341,0.5077,-0.362,0.2224,0.3151,-0.298,0.2295,0.2885,-0.1118,0.1035,-0.006,-0.3187,0.3021,-0.301,0.235,-0.2091,-0.0429,0.0036,0.1357,0.2978,0.2587,-0.2572,1.4632,0.4783,0.1925,-0.1487,0.0884,1.0,-1.0,1.0,-1.0,0.2956,-0.248,-1.0,-1.0,1.0,-1.0,-0.2667,1.0,-1.0,0.6048,-1.0,1.0,1.0,-1.0,0.0,0.0,0.0,0.0,0.0,0.0,0.0,0.0,0.0,-0.3333,0.0,-0.3333,0.0,3
2.24,run,19.21,5.59,18.75,10.77,21.46,0.0,-0.05,0.0,0.247,23.55,-42.63,89.65,2.29,-46.67,67.94,-34.72,-23.29,126.65,-10.55,11.69,71.37,15.21,20.04,103.18,31.73,-1.14,89.12,29.38,-50.99,99.6,-3.5,-42.24,68.43,-35.0,-30.0,134.68,-19.15,11.67,80.69,4.84,25.11,93.04,35.0,13.08,77.69,1.0,-1.0,1.0,-1.0,-1.0,-1.0,-1.0,-1.0,1.0,-1.0,-0.8462,1.0,-1.0,1.0,-1.0,1.0,1.0,-1.0,0.013,0.033,0.013,0.006,0.006,0.006,0.006,0.019,0.052,0.019,0.006,0.013,0.013,0.052,0.006,0.065,0.227,0.013,0.3912,-1.06,0.1473,0.0307,-1.1152,-0.2148,-0.6044,-0.7225,0.7961,-0.1641,-0.0997,-0.1473,0.2915,-0.0077,0.4264,0.5308,-0.3436,0.1994,0.3123,-0.3003,0.2524,0.2478,-0.0496,0.1699,-0.0042,-0.3148,0.2974,-0.2966,0.2677,-0.1693,-0.1102,0.0827,0.0663,0.2944,0.2499,-0.266,1.5172,0.4817,0.23,0.0566,0.2026,1.0,-1.0,1.0,-1.0,-0.8421,-1.0,-1.0,-1.0,1.0,-1.0,0.9337,1.0,-1.0,1.0,-1.0,1.0,1.0,-1.0,0.0,0.0,0.0,0.0,0.0,0.0,0.0,0.0,0.0,-0.3333,0.0,-0.3333,0.0,3
2.28,run,19.98,5.83,17.56,6.67,23.95,0.0,-0.05,0.0,0.247,24.87,-44.03,91.05,2.37,-45.44,68.91,-34.72,-24.79,127.97,-11.95,12.39,72.07,13.8,21.53,102.22,32.87,0.88,87.36,30.88,-52.49,101.1,-5.0,-43.74,66.93,-35.0,-31.5,136.18,-20.65,10.17,82.19,3.34,26.61,91.54,35.0,14.58,76.19,1.0,-0.8377,1.0,-1.0,-1.0,-1.0,-1.0,-1.0,1.0,-1.0,-0.6191,1.0,-1.0,1.0,-1.0,1.0,1.0,-1.0,0.013,0.033,0.013,0.006,0.006,0.006,0.006,0.019,0.052,0.019,0.006,0.013,0.013,0.052,0.006,0.065,0.227,0.013,0.4157,-1.0845,0.1718,0.0414,-1.0983,-0.1917,-0.6044,-0.747,0.8207,-0.1902,-0.0828,-0.1365,0.2669,0.0169,0.4126,0.5553,-0.3267,0.1733,0.3108,-0.3025,0.2689,0.2138,0.0287,0.2054,-0.003,-0.3126,0.3004,-0.3057,0.2508,-0.0781,-0.1694,0.1502,-0.0055,0.2984,0.2383,-0.2842,1.5864,0.5153,0.3272,0.1879,0.3746,1.0,-1.0,1.0,-1.0,-1.0,-1.0,-1.0,-1.0,1.0,-1.0,-0.8462,1.0,-1.0,1.0,-1.0,1.0,1.0,-1.0,0.0,0.0,0.0,0.0,0.0,0.0,0.0,0.0,0.0,-0.3333,0.0,-0.3333,0.0,3
2.32,run,20.62,5.73,15.82,-2.26,19.5,0.0,-0.05,0.0,0.247,26.37,-45.44,92.46,2.37,-44.38,69.7,-34.72,-26.19,129.2,-13.27,12.74,73.04,12.48,23.12,100.81,33.75,2.46,86.13,32.38,-53.99,102.6,-6.5,-45.24,65.43,-35.0,-33.0,134.68,-22.15,8.67,83.69,1.84,28.06,90.04,35.0,16.08,74.69,1.0,-0.5811,1.0,-1.0,-1.0,-1.0,-1.0,-1.0,0.5078,-1.0,-0.2932,1.0,-1.0,0.9647,-1.0,1.0,1.0,-1.0,0.013,0.026,0.019,0.019,0.0,0.0,0.006,0.019,0.084,0.026,0.0,0.013,0.013,0.013,0.006,0.019,0.091,0.006,0.4387,-1.1091,0.1963,0.043,-1.0769,-0.1749,-0.6044,-0.7731,0.8437,-0.2148,-0.0706,-0.1243,0.2424,0.043,0.3958,0.5752,-0.2915,0.1427,0.304,-0.3039,0.2804,0.1554,0.1008,0.2071,-0.0021,-0.3168,0.2967,-0.3061,0.2216,-0.0086,-0.2108,0.2031,-0.0672,0.2837,0.2993,-0.3142,1.6531,0.536,0.3064,0.1164,0.418,1.0,-0.8377,1.0,-1.0,-1.0,-1.0,-1.0,-1.0,1.0,-1.0,-0.6191,1.0,-1.0,1.0,-1.0,1.0,1.0,-1.0,0.0,0.0,0.0,0.0,0.0,0.0,0.0,0.0,0.0,-0.3333,0.0,-0.3333,0.0,3
2.36,run,20.96,5.52,6.93,-2.41,9.83,0.0,-0.05,0.0,0.247,27.69,-46.85,93.96,2.2,-43.51,70.05,-34.72,-27.51,130.43,-14.77,12.74,74.18,10.9,24.52,99.49,34.28,4.04,84.73,33.88,-52.56,104.1,-8.0,-46.74,63.93,-33.5,-34.5,133.18,-23.65,7.17,85.19,0.34,26.56,88.54,35.0,17.58,73.19,1.0,-0.5012,1.0,-1.0,-1.0,-1.0,-0.5324,-1.0,-0.433,-1.0,0.4204,1.0,-1.0,0.624,-1.0,1.0,1.0,-1.0,0.013,0.026,0.019,0.019,0.0,0.0,0.006,0.019,0.084,0.026,0.0,0.013,0.013,0.013,0.006,0.019,0.091,0.006,0.4648,-1.1336,0.2209,0.043,-1.0584,-0.1611,-0.6044,-0.7977,0.8652,-0.2378,-0.0644,-0.1074,0.2194,0.0706,0.3712,0.5906,-0.2638,0.1212,0.3108,-0.305,0.2885,0.1088,0.1397,0.1969,-0.0015,-0.314,0.2884,-0.3008,0.1782,0.0574,-0.234,0.2459,-0.1393,0.2563,0.3133,-0.3007,1.7093,0.5271,0.2761,-0.0394,0.3403,1.0,-0.5811,1.0,-1.0,-1.0,-1.0,-1.0,-1.0,0.5078,-1.0,-0.2932,1.0,-1.0,0.9647,-1.0,1.0,1.0,-1.0,0.0,0.0,0.0,0.0,0.0,0.0,0.0,0.0,0.0,-0.3333,0.0,-0.3333,0.0,3
2.4,run,21.38,5.19,10.05,-4.86,-4.46,0.0,-0.05,0.0,0.247,29.18,-48.25,95.36,0.97,-42.89,70.05,-34.72,-28.92,131.4,-16.0,12.48,75.59,9.49,25.75,98.0,34.54,5.45,83.32,35.0,-51.06,105.6,-9.5,-48.24,62.43,-32.0,-36.0,131.68,-25.15,5.67,86.69,-1.16,25.06,87.04,35.0,19.08,71.69,1.0,0.0305,1.0,-1.0,-1.0,-1.0,1.0,-1.0,-1.0,-1.0,0.3976,1.0,-1.0,-0.1536,-1.0,1.0,1.0,-1.0,0.013,0.026,0.019,0.019,0.0,0.0,0.006,0.019,0.084,0.026,0.0,0.013,0.013,0.013,0.006,0.019,0.091,0.006,0.4878,-1.1582,0.247,0.0399,-1.0431,-0.1549,-0.6044,-0.8207,0.8866,-0.2638,-0.0644,-0.0874,0.1917,0.0951,0.3482,0.5998,-0.2362,0.0966,0.3035,-0.3051,0.2994,0.0647,0.1551,0.1607,-0.001,-0.3057,0.2821,-0.3079,0.1247,0.1146,-0.2669,0.2638,-0.1834,0.2138,0.3224,-0.3021,1.7386,0.5093,0.121,-0.042,0.1716,1.0,-0.5012,1.0,-1.0,-1.0,-1.0,-0.5324,-1.0,-0.433,-1.0,0.4204,1.0,-1.0,0.624,-1.0,1.0,1.0,-1.0,0.0,0.0,0.0,0.0,0.0,0.0,0.0,0.0,0.0,-0.3333,0.0,-0.3333,0.0,3
2.44,run,21.85,4.9,10.28,-6.03,-1.67,0.0,-0.05,0.0,0.247,30.59,-49.57,96.68,-0.26,-42.54,69.87,-34.63,-30.32,132.19,-17.49,11.6,76.99,8.09,26.81,96.68,34.54,6.77,81.91,35.0,-51.46,107.1,-11.0,-49.74,60.93,-30.5,-37.5,130.18,-26.65,4.17,88.19,-2.66,23.56,85.54,35.0,20.58,70.19,1.0,-0.4811,1.0,-1.0,-1.0,-1.0,1.0,-1.0,-1.0,-1.0,0.4836,1.0,-1.0,-0.1625,-1.0,1.0,1.0,-1.0,0.013,0.019,0.013,0.019,0.0,0.026,0.013,0.026,0.071,0.026,0.013,0.019,0.013,0.006,0.013,0.019,0.104,0.0,0.5139,-1.1827,0.2715,0.0184,-1.0324,-0.1549,-0.6044,-0.8452,0.9035,-0.2853,-0.069,-0.0629,0.1672,0.1166,0.3221,0.6044,-0.2117,0.0721,0.3108,-0.3062,0.3021,-0.0357,0.1491,0.1125,-0.0007,-0.3066,0.2611,-0.2966,0.07,0.1728,-0.2794,0.2657,-0.2268,0.167,0.3183,-0.3041,1.7755,0.4805,0.1753,-0.0848,-0.0779,1.0,0.0305,1.0,-1.0,-1.0,-1.0,1.0,-1.0,-1.0,-1.0,0.3976,1.0,-1.0,-0.1536,-1.0,1.0,1.0,-1.0,0.0,0.0,0.0,0.0,0.0,0.0,0.0,0.0,0.0,-0.3333,0.0,-0.3333,0.0,3
2.48,run,22.25,4.65,8.34,-4.46,-1.52,0.0,-0.05,0.0,0.247,31.99,-50.62,98.17,-1.67,-42.54,68.73,-34.45,-31.64,132.63,-18.9,10.55,78.49,6.77,27.6,95.1,34.54,8.26,80.6,35.0,-52.96,108.6,-12.5,-51.24,59.43,-29.0,-39.0,128.68,-28.15,5.67,89.69,-4.16,22.06,84.04,35.0,22.08,68.69,1.0,-0.753,1.0,-1.0,-1.0,-1.0,1.0,-1.0,-1.0,-1.0,1.0,1.0,-1.0,-0.0807,-1.0,1.0,1.0,-1.0,0.013,0.019,0.013,0.019,0.0,0.026,0.013,0.026,0.071,0.026,0.013,0.019,0.013,0.006,0.013,0.019,0.104,0.0,0.5384,-1.2057,0.2945,-0.0031,-1.0262,-0.158,-0.6029,-0.8698,0.9173,-0.3114,-0.0844,-0.0383,0.1427,0.135,0.2991,0.6044,-0.1887,0.0476,0.3097,-0.3007,0.2978,-0.1056,0.1274,0.0673,0.0053,-0.3067,0.2346,-0.3054,-0.0086,0.2131,-0.2877,0.255,-0.2451,0.1169,0.3091,-0.3049,1.8161,0.4548,0.1793,-0.1053,-0.0291,1.0,-0.4811,1.0,-1.0,-1.0,-1.0,1.0,-1.0,-1.0,-1.0,0.4836,1.0,-1.0,-0.1625,-1.0,1.0,1.0,-1.0,0.0,0.0,0.0,0.0,0.0,0.0,0.0,0.0,0.0,-0.3333,0.0,-0.3333,0.0,3
2.52,run,22.86,4.29,13.63,-6.93,2.54,0.0,-0.05,0.0,0.247,33.13,-51.5,99.58,-3.08,-42.89,67.76,-33.13,-33.13,132.8,-20.39,9.32,79.89,5.36,27.95,93.69,34.54,9.76,79.1,35.0,-54.38,110.1,-14.0,-52.74,57.93,-27.5,-40.5,127.18,-29.65,7.17,91.19,-5.66,20.56,82.54,35.0,23.58,67.19,1.0,-0.5342,1.0,-1.0,-1.0,-1.0,1.0,-1.0,-1.0,-1.0,1.0,1.0,-1.0,0.1735,-1.0,1.0,1.0,-1.0,0.013,0.019,0.013,0.019,0.0,0.026,0.013,0.026,0.071,0.026,0.013,0.019,0.013,0.006,0.013,0.019,0.104,0.0,0.563,-1.2241,0.3206,-0.0276,-1.0262,-0.1779,-0.5998,-0.8928,0.925,-0.3359,-0.1028,-0.0123,0.1197,0.1488,0.2715,0.6044,-0.1626,0.0245,0.3089,-0.2796,0.3064,-0.166,0.0892,-0.0278,0.0152,-0.3011,0.193,-0.3059,-0.0751,0.247,-0.2877,0.2303,-0.2752,0.0818,0.3143,-0.2998,1.8513,0.4327,0.1455,-0.0779,-0.0266,1.0,-0.753,1.0,-1.0,-1.0,-1.0,1.0,-1.0,-1.0,-1.0,1.0,1.0,-1.0,-0.0807,-1.0,1.0,1.0,-1.0,0.0,0.0,0.0,0.0,0.0,0.0,0.0,0.0,0.0,-0.3333,0.0,-0.3333,0.0,3
2.56,run,23.19,4.04,6.78,-5.3,3.29,0.0,-0.05,0.0,0.247,34.01,-52.38,100.99,-4.57,-43.68,66.36,-31.9,-34.54,132.8,-21.8,8.17,81.39,3.96,27.86,92.37,34.54,11.16,77.7,35.0,-52.88,111.6,-15.5,-54.24,56.43,-26.0,-42.0,125.68,-31.15,8.67,92.69,-7.16,22.06,81.04,35.0,25.08,65.69,1.0,-0.4873,1.0,-1.0,-1.0,-1.0,1.0,-1.0,-1.0,-1.0,1.0,1.0,-1.0,0.862,-1.0,1.0,1.0,-1.0,0.0,0.013,0.013,0.013,0.026,0.019,0.013,0.026,0.006,0.026,0.006,0.019,0.013,0.013,0.013,0.019,0.078,0.013,0.5829,-1.2395,0.3451,-0.0522,-1.0324,-0.1948,-0.5768,-0.9189,0.9281,-0.362,-0.1243,0.0123,0.0951,0.1549,0.247,0.6044,-0.1365,-0.0015,0.2906,-0.2529,0.306,-0.2077,0.0395,-0.0824,0.0964,-0.308,0.1465,-0.3114,-0.1327,0.2645,-0.293,0.1841,-0.2842,0.0573,0.3172,-0.3071,1.9048,0.402,0.2378,-0.121,0.0443,1.0,-0.5342,1.0,-1.0,-1.0,-1.0,1.0,-1.0,-1.0,-1.0,1.0,1.0,-1.0,0.1735,-1.0,1.0,1.0,-1.0,0.0,0.0,0.0,0.0,0.0,0.0,0.0,0.0,0.0,-0.3333,0.0,-0.3333,0.0,3
2.6,run,23.41,3.59,4.2,-10.01,0.54,0.0,-0.05,0.0,0.247,34.54,-53.17,102.48,-5.98,-44.74,64.95,-30.5,-35.95,132.71,-23.12,6.94,82.79,2.55,27.33,90.88,34.54,12.57,76.29,35.0,-51.38,113.1,-17.0,-55.74,54.93,-24.5,-43.5,124.18,-32.65,10.17,94.19,-8.66,23.56,79.54,35.0,26.58,64.19,1.0,0.061,1.0,-1.0,-1.0,-1.0,1.0,-1.0,-1.0,-1.0,1.0,1.0,-1.0,1.0,-1.0,1.0,1.0,-1.0,0.0,0.013,0.013,0.013,0.026,0.019,0.013,0.026,0.006,0.026,0.006,0.019,0.013,0.013,0.013,0.019,0.078,0.013,0.5983,-1.2548,0.3697,-0.0782,-1.0462,-0.2194,-0.5553,-0.9434,0.9281,-0.3866,-0.1442,0.0383,0.0706,0.1534,0.224,0.6044,-0.112,-0.0261,0.2609,-0.2346,0.3062,-0.2432,-0.0241,-0.1497,0.148,-0.3076,0.1026,-0.31,-0.1676,0.2829,-0.2971,0.1231,-0.2852,0.0401,0.3141,-0.307,1.9338,0.3797,0.1183,-0.0925,0.0573,1.0,-0.4873,1.0,-1.0,-1.0,-1.0,1.0,-1.0,-1.0,-1.0,1.0,1.0,-1.0,0.862,-1.0,1.0,1.0,-1.0,0.0,0.0,0.0,0.0,0.0,0.0,0.0,0.0,0.0,-0.3333,0.0,-0.3333,0.0,3
2.64,run,23.59,3.16,3.97,-9.24,-4.7,0.0,-0.05,0.0,0.247,34.8,-53.7,103.8,-7.38,-46.14,63.54,-29.09,-37.35,132.1,-24.52,6.33,84.11,1.05,26.63,89.47,34.54,13.97,74.88,35.0,-49.88,114.6,-18.5,-57.24,56.43,-23.0,-45.0,122.68,-34.15,11.67,95.69,-10.16,25.06,78.04,35.0,28.08,62.69,1.0,0.2066,1.0,-1.0,-1.0,0.0684,1.0,-1.0,-1.0,-1.0,1.0,1.0,-1.0,1.0,-1.0,1.0,1.0,-1.0,0.0,0.013,0.013,0.013,0.026,0.019,0.013,0.026,0.006,0.026,0.006,0.019,0.013,0.013,0.013,0.019,0.078,0.013,0.6075,-1.2686,0.3958,-0.1028,-1.0646,-0.2439,-0.5308,-0.9679,0.9265,-0.4096,-0.1657,0.0629,0.046,0.1442,0.1979,0.6044,-0.0874,-0.0506,0.2173,-0.2161,0.3125,-0.2626,-0.0861,-0.1971,0.196,-0.3077,0.066,-0.3036,-0.1981,0.2904,-0.3003,0.0516,-0.2977,0.0281,0.3122,-0.3072,1.9528,0.3408,0.0733,-0.1747,0.0095,1.0,0.061,1.0,-1.0,-1.0,-1.0,1.0,-1.0,-1.0,-1.0,1.0,1.0,-1.0,1.0,-1.0,1.0,1.0,-1.0,0.0,0.0,0.0,0.0,0.0,0.0,0.0,0.0,0.0,-0.3333,0.0,-0.3333,0.0,3
2.68,run,23.91,2.69,7.5,-10.42,-7.28,0.0,-0.05,0.0,0.247,34.89,-53.96,105.21,-8.79,-47.64,62.05,-27.69,-38.76,131.31,-25.84,5.8,85.43,-0.35,25.66,87.98,34.54,15.47,73.48,35.0,-48.38,116.1,-20.0,-58.74,57.93,-21.5,-46.5,121.18,-35.0,13.17,97.19,-11.66,26.56,76.54,35.0,26.58,61.19,1.0,0.5674,1.0,-1.0,-1.0,0.8292,1.0,-1.0,-1.0,-1.0,1.0,1.0,-1.0,1.0,-1.0,1.0,0.8888,-0.7311,0.006,0.0,0.013,0.019,0.026,0.013,0.019,0.033,0.006,0.039,0.0,0.026,0.013,0.006,0.019,0.019,0.071,0.006,0.6121,-1.2778,0.4188,-0.1273,-1.0891,-0.2684,-0.5062,-0.9925,0.9158,-0.4341,-0.1764,0.0859,0.0199,0.1319,0.1733,0.6044,-0.0629,-0.0752,0.1694,-0.1859,0.3052,-0.276,-0.1525,-0.2302,0.2294,-0.3076,0.0059,-0.3047,-0.179,0.2897,-0.3082,-0.01,-0.3007,0.0196,0.3108,-0.3073,1.9687,0.303,0.0693,-0.1613,-0.082,1.0,0.2066,1.0,-1.0,-1.0,0.0684,1.0,-1.0,-1.0,-1.0,1.0,1.0,-1.0,1.0,-1.0,1.0,1.0,-1.0,0.0,0.0,0.0,0.0,0.0,0.0,0.0,0.0,0.0,-0.3333,0.0,-0.3333,0.0,3
2.72,run,24.47,2.4,14.06,-5.83,-5.4,0.0,-0.05,0.0,0.247,34.8,-53.96,106.61,-10.2,-49.04,60.73,-26.28,-40.17,130.17,-27.16,5.8,86.84,-1.67,25.14,86.57,34.54,16.88,72.16,35.0,-46.88,117.6,-21.5,-60.24,59.43,-20.0,-48.0,119.68,-35.0,14.67,98.69,-13.16,28.06,75.04,35.0,25.08,62.69,1.0,0.8064,1.0,-1.0,-1.0,1.0,1.0,-1.0,-1.0,-1.0,1.0,1.0,-1.0,1.0,-1.0,1.0,0.0612,0.2064,0.006,0.0,0.013,0.019,0.026,0.013,0.019,0.033,0.006,0.039,0.0,0.026,0.013,0.006,0.019,0.019,0.071,0.006,0.6136,-1.2824,0.4433,-0.1519,-1.1152,-0.2945,-0.4817,-1.017,0.902,-0.4571,-0.1856,0.1089,-0.0046,0.115,0.1473,0.6044,-0.0368,-0.0997,0.1243,-0.1473,0.3052,-0.2848,-0.204,-0.2584,0.2521,-0.3069,-0.0474,-0.2991,-0.1597,0.2886,-0.3073,-0.0699,-0.3077,0.0138,0.3148,-0.3066,1.9959,0.2618,0.131,-0.1819,-0.1271,1.0,0.5674,1.0,-1.0,-1.0,0.8292,1.0,-1.0,-1.0,-1.0,1.0,1.0,-1.0,1.0,-1.0,1.0,0.8888,-0.7311,0.0,0.0,0.0,0.0,0.0,0.0,0.0,0.0,0.0,-0.3333,0.0,-0.3333,0.0,3
2.76,run,27.14,1.79,20.93,-4.86,0.66,0.0,-0.05,0.0,0.247,34.89,-51.77,110.83,-14.68,-53.35,58.1,-21.88,-44.47,126.39,-31.55,7.47,91.05,-6.15,25.93,82.18,34.54,21.01,67.68,35.0,-45.38,119.1,-23.0,-61.74,60.93,-18.5,-49.5,118.18,-35.0,16.17,100.19,-14.66,29.56,73.54,35.0,23.58,64.19,1.0,1.0,1.0,-1.0,-1.0,0.8028,1.0,-1.0,-1.0,-1.0,1.0,1.0,-1.0,1.0,-1.0,1.0,0.3329,1.0,0.0,0.052,0.019,0.013,0.033,0.0,0.013,0.078,0.045,0.026,0.052,0.045,0.013,0.006,0.006,0.013,0.045,0.0,0.6121,-1.2824,0.4679,-0.1764,-1.1397,-0.3175,-0.4571,-1.0416,0.882,-0.4801,-0.1856,0.1335,-0.0276,0.1058,0.1227,0.6044,-0.0123,-0.1227,0.0812,-0.1031,0.3061,-0.2918,-0.2353,-0.2676,0.269,-0.3073,-0.1083,-0.2961,-0.1118,0.2945,-0.3018,-0.0836,-0.3079,0.0096,0.3128,-0.3014,2.0452,0.2363,0.2454,-0.1017,-0.0943,1.0,0.8064,1.0,-1.0,-1.0,1.0,1.0,-1.0,-1.0,-1.0,1.0,1.0,-1.0,1.0,-1.0,1.0,0.0612,0.2064,0.0,0.0,0.0,0.0,0.0,0.0,0.0,0.0,0.0,-0.3333,0.0,-0.3333,0.0,3
2.9,tail,26.25,2.26,-7.21,3.84,4.84,,0.0,0.0,0.247,34.45,-51.86,112.41,-16.61,-55.11,58.01,-20.39,-45.18,125.51,-31.46,7.12,90.97,-8.96,29.09,78.66,33.49,21.71,65.3,,,,,,,,,,,,,,,,,,,,,,,,,,,,,,,,,,,,,0.0,0.0,0.0,0.0,0.0,0.0,0.0,0.0,0.0,0.0,0.0,0.0,0.0,0.0,0.0,0.0,0.0,0.0,,,,,,,,,,,,,,,,,,,,,,,,,,,,,,,,,,,,,,,,,,,,,,,,,,,,,,,,,,,,,,,,,,,,,,,,,
3.0,tail,23.91,2.44,-19.58,1.84,-13.8,,0.0,0.0,0.247,33.13,-53.26,112.41,-16.61,-55.11,58.01,-20.39,-43.15,126.12,-29.44,5.8,87.8,-8.96,31.64,78.49,30.06,21.71,65.21,,,,,,,,,,,,,,,,,,,,,,,,,,,,,,,,,,,,,0.0,0.0,0.0,0.0,0.0,0.0,0.0,0.0,0.0,0.0,0.0,0.0,0.0,0.0,0.0,0.0,0.0,0.0,,,,,,,,,,,,,,,,,,,,,,,,,,,,,,,,,,,,,,,,,,,,,,,,,,,,,,,,,,,,,,,,,,,,,,,,,
3.1,tail,23.79,3.33,-0.48,7.61,-4.1,,0.0,0.0,0.247,32.17,-53.26,112.41,-16.61,-55.11,58.01,-20.39,-42.63,126.12,-29.0,5.8,86.22,-8.96,32.7,78.13,24.7,21.62,65.13,,,,,,,,,,,,,,,,,,,,,,,,,,,,,,,,,,,,,0.0,0.0,0.0,0.0,0.0,0.0,0.0,0.0,0.0,0.0,0.0,0.0,0.0,0.0,0.0,0.0,0.0,0.0,,,,,,,,,,,,,,,,,,,,,,,,,,,,,,,,,,,,,,,,,,,,,,,,,,,,,,,,,,,,,,,,,,,,,,,,,
3.2,tail,23.74,3.93,-0.65,5.26,-1.1,,0.0,0.0,0.247,31.55,-53.26,112.41,-16.61,-55.11,58.01,-20.39,-42.63,126.12,-29.0,5.8,85.96,-8.96,32.34,78.13,20.3,19.95,65.13,,,,,,,,,,,,,,,,,,,,,,,,,,,,,,,,,,,,,0.0,0.0,0.0,0.0,0.0,0.0,0.0,0.0,0.0,0.0,0.0,0.0,0.0,0.0,0.0,0.0,0.0,0.0,,,,,,,,,,,,,,,,,,,,,,,,,,,,,,,,,,,,,,,,,,,,,,,,,,,,,,,,,,,,,,,,,,,,,,,,,
3.3,tail,23.77,4.04,0.15,1.08,-0.34,,0.0,0.0,0.247,30.94,-53.35,112.41,-16.61,-55.11,58.01,-20.39,-42.63,126.12,-29.0,5.89,85.96,-8.96,32.34,78.22,18.81,17.67,65.13,,,,,,,,,,,,,,,,,,,,,,,,,,,,,,,,,,,,,0.0,0.0,0.0,0.0,0.0,0.0,0.0,0.0,0.0,0.0,0.0,0.0,0.0,0.0,0.0,0.0,0.0,0.0,,,,,,,,,,,,,,,,,,,,,,,,,,,,,,,,,,,,,,,,,,,,,,,,,,,,,,,,,,,,,,,,,,,,,,,,,
3.4,tail,23.8,4.05,0.05,0.23,-0.85,,0.0,0.0,0.247,30.94,-53.35,112.41,-16.61,-55.11,58.01,-20.39,-42.63,126.12,-29.0,5.89,85.96,-8.96,32.26,78.22,18.81,17.58,65.13,,,,,,,,,,,,,,,,,,,,,,,,,,,,,,,,,,,,,0.0,0.0,0.0,0.0,0.0,0.0,0.0,0.0,0.0,0.0,0.0,0.0,0.0,0.0,0.0,0.0,0.0,0.0,,,,,,,,,,,,,,,,,,,,,,,,,,,,,,,,,,,,,,,,,,,,,,,,,,,,,,,,,,,,,,,,,,,,,,,,,
3.5,tail,23.82,3.99,0.02,-0.3,-0.91,,0.0,0.0,0.247,30.94,-53.35,112.41,-16.61,-55.11,58.01,-20.39,-42.63,126.12,-29.0,5.8,85.96,-8.96,32.26,78.22,18.81,17.58,65.13,,,,,,,,,,,,,,,,,,,,,,,,,,,,,,,,,,,,,0.0,0.0,0.0,0.0,0.0,0.0,0.0,0.0,0.0,0.0,0.0,0.0,0.0,0.0,0.0,0.0,0.0,0.0,,,,,,,,,,,,,,,,,,,,,,,,,,,,,,,,,,,,,,,,,,,,,,,,,,,,,,,,,,,,,,,,,,,,,,,,,
3.6,tail,23.83,3.95,0.03,-0.13,-0.55,,0.0,0.0,0.247,30.94,-53.35,112.41,-16.61,-55.11,58.01,-20.39,-42.63,126.12,-29.0,5.8,85.96,-8.96,32.26,78.22,18.81,17.58,65.13,,,,,,,,,,,,,,,,,,,,,,,,,,,,,,,,,,,,,0.0,0.0,0.0,0.0,0.0,0.0,0.0,0.0,0.0,0.0,0.0,0.0,0.0,0.0,0.0,0.0,0.0,0.0,,,,,,,,,,,,,,,,,,,,,,,,,,,,,,,,,,,,,,,,,,,,,,,,,,,,,,,,,,,,,,,,,,,,,,,,,
3.7,tail,23.83,3.94,-0.05,0.08,-0.07,,0.0,0.0,0.247,30.94,-53.35,112.41,-16.61,-55.11,58.01,-20.39,-42.63,126.12,-29.0,5.8,85.96,-8.96,32.26,78.22,18.81,17.58,65.13,,,,,,,,,,,,,,,,,,,,,,,,,,,,,,,,,,,,,0.0,0.0,0.0,0.0,0.0,0.0,0.0,0.0,0.0,0.0,0.0,0.0,0.0,0.0,0.0,0.0,0.0,0.0,,,,,,,,,,,,,,,,,,,,,,,,,,,,,,,,,,,,,,,,,,,,,,,,,,,,,,,,,,,,,,,,,,,,,,,,,
3.8,tail,23.85,3.94,0.08,0.22,0.33,,0.0,0.0,0.247,30.94,-53.35,112.41,-16.61,-55.11,58.01,-20.39,-42.63,126.12,-29.0,5.8,85.96,-8.96,32.26,78.22,18.81,17.58,65.13,,,,,,,,,,,,,,,,,,,,,,,,,,,,,,,,,,,,,0.0,0.0,0.0,0.0,0.0,0.0,0.0,0.0,0.0,0.0,0.0,0.0,0.0,0.0,0.0,0.0,0.0,0.0,,,,,,,,,,,,,,,,,,,,,,,,,,,,,,,,,,,,,,,,,,,,,,,,,,,,,,,,,,,,,,,,,,,,,,,,,
3.9,tail,23.85,3.92,-0.05,0.02,-0.05,,0.0,0.0,0.247,30.94,-53.35,112.41,-16.61,-55.11,58.01,-20.39,-42.63,126.12,-29.0,5.8,85.96,-8.96,32.26,78.22,18.81,17.58,65.13,,,,,,,,,,,,,,,,,,,,,,,,,,,,,,,,,,,,,0.0,0.0,0.0,0.0,0.0,0.0,0.0,0.0,0.0,0.0,0.0,0.0,0.0,0.0,0.0,0.0,0.0,0.0,,,,,,,,,,,,,,,,,,,,,,,,,,,,,,,,,,,,,,,,,,,,,,,,,,,,,,,,,,,,,,,,,,,,,,,,,
4.0,tail,23.85,3.9,-0.09,0.02,-0.02,,0.0,0.0,0.247,30.94,-53.35,112.41,-16.61,-55.11,58.01,-20.39,-42.63,126.12,-29.0,5.8,85.96,-8.96,32.26,78.22,18.81,17.58,65.13,,,,,,,,,,,,,,,,,,,,,,,,,,,,,,,,,,,,,0.0,0.0,0.0,0.0,0.0,0.0,0.0,0.0,0.0,0.0,0.0,0.0,0.0,0.0,0.0,0.0,0.0,0.0,,,,,,,,,,,,,,,,,,,,,,,,,,,,,,,,,,,,,,,,,,,,,,,,,,,,,,,,,,,,,,,,,,,,,,,,,
4.1,tail,23.87,3.89,0.0,0.1,0.16,,0.0,0.0,0.247,30.94,-53.35,112.41,-16.61,-55.11,58.01,-20.39,-42.63,126.12,-29.0,5.8,85.96,-8.96,32.26,78.22,18.81,17.58,65.13,,,,,,,,,,,,,,,,,,,,,,,,,,,,,,,,,,,,,0.0,0.0,0.0,0.0,0.0,0.0,0.0,0.0,0.0,0.0,0.0,0.0,0.0,0.0,0.0,0.0,0.0,0.0,,,,,,,,,,,,,,,,,,,,,,,,,,,,,,,,,,,,,,,,,,,,,,,,,,,,,,,,,,,,,,,,,,,,,,,,,
4.2,tail,23.88,3.88,-0.01,0.0,0.12,,0.0,0.0,0.247,30.94,-53.35,112.41,-16.61,-55.11,58.01,-20.39,-42.63,126.12,-29.0,5.8,85.96,-8.96,32.26,78.22,18.81,17.58,65.13,,,,,,,,,,,,,,,,,,,,,,,,,,,,,,,,,,,,,0.0,0.0,0.0,0.0,0.0,0.0,0.0,0.0,0.0,0.0,0.0,0.0,0.0,0.0,0.0,0.0,0.0,0.0,,,,,,,,,,,,,,,,,,,,,,,,,,,,,,,,,,,,,,,,,,,,,,,,,,,,,,,,,,,,,,,,,,,,,,,,,
4.3,tail,23.89,3.86,-0.04,0.02,0.09,,0.0,0.0,0.247,30.94,-53.35,112.41,-16.61,-55.11,58.01,-20.39,-42.63,126.12,-29.0,5.8,85.96,-8.96,32.26,78.22,18.81,17.58,65.13,,,,,,,,,,,,,,,,,,,,,,,,,,,,,,,,,,,,,0.0,0.0,0.0,0.0,0.0,0.0,0.0,0.0,0.0,0.0,0.0,0.0,0.0,0.0,0.0,0.0,0.0,0.0,,,,,,,,,,,,,,,,,,,,,,,,,,,,,,,,,,,,,,,,,,,,,,,,,,,,,,,,,,,,,,,,,,,,,,,,,
4.4,tail,23.9,3.84,0.02,0.02,0.01,,0.0,0.0,0.247,30.94,-53.35,112.41,-16.61,-55.11,58.01,-20.39,-42.63,126.12,-29.0,5.8,85.96,-8.96,32.26,78.22,18.81,17.58,65.13,,,,,,,,,,,,,,,,,,,,,,,,,,,,,,,,,,,,,0.0,0.0,0.0,0.0,0.0,0.0,0.0,0.0,0.0,0.0,0.0,0.0,0.0,0.0,0.0,0.0,0.0,0.0,,,,,,,,,,,,,,,,,,,,,,,,,,,,,,,,,,,,,,,,,,,,,,,,,,,,,,,,,,,,,,,,,,,,,,,,,
4.5,tail,23.92,3.82,-0.01,-0.01,0.07,,0.0,0.0,0.247,30.94,-53.35,112.41,-16.61,-55.11,58.01,-20.39,-42.63,126.12,-29.0,5.8,85.96,-8.96,32.26,78.22,18.81,17.58,65.13,,,,,,,,,,,,,,,,,,,,,,,,,,,,,,,,,,,,,0.0,0.0,0.0,0.0,0.0,0.0,0.0,0.0,0.0,0.0,0.0,0.0,0.0,0.0,0.0,0.0,0.0,0.0,,,,,,,,,,,,,,,,,,,,,,,,,,,,,,,,,,,,,,,,,,,,,,,,,,,,,,,,,,,,,,,,,,,,,,,,,
4.6,tail,23.93,3.8,0.01,0.0,0.04,,0.0,0.0,0.247,30.94,-53.35,112.41,-16.61,-55.11,58.01,-20.39,-42.63,126.12,-29.0,5.8,85.96,-8.96,32.26,78.22,18.81,17.58,65.13,,,,,,,,,,,,,,,,,,,,,,,,,,,,,,,,,,,,,0.0,0.0,0.0,0.0,0.0,0.0,0.0,0.0,0.0,0.0,0.0,0.0,0.0,0.0,0.0,0.0,0.0,0.0,,,,,,,,,,,,,,,,,,,,,,,,,,,,,,,,,,,,,,,,,,,,,,,,,,,,,,,,,,,,,,,,,,,,,,,,,
4.7,tail,23.94,3.79,-0.01,0.02,0.04,,0.0,0.0,0.247,30.94,-53.35,112.41,-16.61,-55.11,58.01,-20.39,-42.63,126.12,-29.0,5.8,85.96,-8.96,32.26,78.22,18.81,17.58,65.13,,,,,,,,,,,,,,,,,,,,,,,,,,,,,,,,,,,,,0.0,0.0,0.0,0.0,0.0,0.0,0.0,0.0,0.0,0.0,0.0,0.0,0.0,0.0,0.0,0.0,0.0,0.0,,,,,,,,,,,,,,,,,,,,,,,,,,,,,,,,,,,,,,,,,,,,,,,,,,,,,,,,,,,,,,,,,,,,,,,,,
4.8,tail,23.95,3.78,-0.01,0.03,-0.01,,0.0,0.0,0.247,30.94,-53.35,112.41,-16.61,-55.11,58.01,-20.39,-42.63,126.12,-29.0,5.8,85.96,-8.96,32.26,78.22,18.81,17.58,65.13,,,,,,,,,,,,,,,,,,,,,,,,,,,,,,,,,,,,,0.0,0.0,0.0,0.0,0.0,0.0,0.0,0.0,0.0,0.0,0.0,0.0,0.0,0.0,0.0,0.0,0.0,0.0,,,,,,,,,,,,,,,,,,,,,,,,,,,,,,,,,,,,,,,,,,,,,,,,,,,,,,,,,,,,,,,,,,,,,,,,,
4.9,tail,23.96,3.76,0.01,0.0,0.06,,0.0,0.0,0.247,30.94,-53.35,112.41,-16.61,-55.11,58.01,-20.39,-42.63,126.12,-29.0,5.8,85.96,-8.96,32.26,78.22,18.81,17.58,65.13,,,,,,,,,,,,,,,,,,,,,,,,,,,,,,,,,,,,,0.0,0.0,0.0,0.0,0.0,0.0,0.0,0.0,0.0,0.0,0.0,0.0,0.0,0.0,0.0,0.0,0.0,0.0,,,,,,,,,,,,,,,,,,,,,,,,,,,,,,,,,,,,,,,,,,,,,,,,,,,,,,,,,,,,,,,,,,,,,,,,,
5.0,tail,23.98,3.75,0.05,0.03,0.0,,0.0,0.0,0.247,30.94,-53.35,112.41,-16.61,-55.11,58.01,-20.39,-42.63,126.12,-29.0,5.8,85.96,-8.96,32.26,78.22,18.81,17.58,65.13,,,,,,,,,,,,,,,,,,,,,,,,,,,,,,,,,,,,,0.0,0.0,0.0,0.0,0.0,0.0,0.0,0.0,0.0,0.0,0.0,0.0,0.0,0.0,0.0,0.0,0.0,0.0,,,,,,,,,,,,,,,,,,,,,,,,,,,,,,,,,,,,,,,,,,,,,,,,,,,,,,,,,,,,,,,,,,,,,,,,,
5.1,tail,23.98,3.73,-0.05,0.03,-0.01,,0.0,0.0,0.247,30.94,-53.35,112.41,-16.61,-55.11,58.01,-20.39,-42.63,126.12,-29.0,5.8,85.96,-8.96,32.26,78.22,18.81,17.58,65.13,,,,,,,,,,,,,,,,,,,,,,,,,,,,,,,,,,,,,0.0,0.0,0.0,0.0,0.0,0.0,0.0,0.0,0.0,0.0,0.0,0.0,0.006,0.0,0.0,0.0,0.0,0.0,,,,,,,,,,,,,,,,,,,,,,,,,,,,,,,,,,,,,,,,,,,,,,,,,,,,,,,,,,,,,,,,,,,,,,,,,
5.2,tail,23.99,3.71,-0.02,-0.05,0.05,,0.0,0.0,0.247,30.94,-53.35,112.41,-16.61,-55.11,58.01,-20.39,-42.63,126.12,-29.0,5.8,85.96,-8.96,32.26,78.22,18.81,17.58,65.13,,,,,,,,,,,,,,,,,,,,,,,,,,,,,,,,,,,,,0.0,0.0,0.0,0.0,0.0,0.0,0.0,0.0,0.0,0.0,0.0,0.0,0.0,0.0,0.0,0.0,0.0,0.0,,,,,,,,,,,,,,,,,,,,,,,,,,,,,,,,,,,,,,,,,,,,,,,,,,,,,,,,,,,,,,,,,,,,,,,,,
5.3,tail,24.0,3.7,0.03,0.07,0.09,,0.0,0.0,0.247,30.94,-53.35,112.41,-16.61,-55.11,58.01,-20.39,-42.63,126.12,-29.0,5.8,85.96,-8.96,32.26,78.22,18.81,17.58,65.13,,,,,,,,,,,,,,,,,,,,,,,,,,,,,,,,,,,,,0.0,0.0,0.0,0.0,0.0,0.0,0.0,0.0,0.0,0.0,0.0,0.0,0.0,0.0,0.0,0.0,0.0,0.0,,,,,,,,,,,,,,,,,,,,,,,,,,,,,,,,,,,,,,,,,,,,,,,,,,,,,,,,,,,,,,,,,,,,,,,,,
5.4,tail,24.01,3.68,-0.05,-0.05,0.01,,0.0,0.0,0.247,30.94,-53.35,112.41,-16.61,-55.11,58.01,-20.39,-42.63,126.12,-29.0,5.8,85.96,-8.96,32.26,78.22,18.81,17.58,65.13,,,,,,,,,,,,,,,,,,,,,,,,,,,,,,,,,,,,,0.0,0.0,0.0,0.0,0.0,0.0,0.0,0.0,0.0,0.0,0.0,0.0,0.0,0.0,0.0,0.0,0.0,0.0,,,,,,,,,,,,,,,,,,,,,,,,,,,,,,,,,,,,,,,,,,,,,,,,,,,,,,,,,,,,,,,,,,,,,,,,,
5.5,tail,24.01,3.67,-0.05,0.03,0.07,,0.0,0.0,0.247,30.94,-53.35,112.41,-16.61,-55.11,58.01,-20.39,-42.63,126.12,-29.0,5.8,85.96,-8.96,32.26,78.22,18.81,17.58,65.13,,,,,,,,,,,,,,,,,,,,,,,,,,,,,,,,,,,,,0.0,0.0,0.0,0.0,0.0,0.0,0.0,0.0,0.0,0.0,0.0,0.0,0.0,0.0,0.0,0.0,0.0,0.0,,,,,,,,,,,,,,,,,,,,,,,,,,,,,,,,,,,,,,,,,,,,,,,,,,,,,,,,,,,,,,,,,,,,,,,,,
5.6,tail,24.02,3.65,-0.05,-0.01,0.03,,0.0,0.0,0.247,30.94,-53.35,112.41,-16.61,-55.11,58.01,-20.39,-42.63,126.12,-29.0,5.8,85.96,-8.96,32.26,78.22,18.81,17.58,65.13,,,,,,,,,,,,,,,,,,,,,,,,,,,,,,,,,,,,,0.0,0.0,0.0,0.0,0.0,0.0,0.0,0.0,0.0,0.0,0.0,0.0,0.0,0.0,0.0,0.0,0.0,0.0,,,,,,,,,,,,,,,,,,,,,,,,,,,,,,,,,,,,,,,,,,,,,,,,,,,,,,,,,,,,,,,,,,,,,,,,,
5.7,tail,24.03,3.64,-0.01,0.06,0.04,,0.0,0.0,0.247,30.94,-53.35,112.41,-16.61,-55.11,58.01,-20.39,-42.63,126.12,-29.0,5.8,85.96,-8.96,32.26,78.22,18.81,17.58,65.13,,,,,,,,,,,,,,,,,,,,,,,,,,,,,,,,,,,,,0.0,0.0,0.0,0.0,0.0,0.0,0.0,0.0,0.0,0.0,0.0,0.0,0.0,0.0,0.0,0.0,0.0,0.0,,,,,,,,,,,,,,,,,,,,,,,,,,,,,,,,,,,,,,,,,,,,,,,,,,,,,,,,,,,,,,,,,,,,,,,,,
5.8,tail,24.04,3.63,0.02,-0.02,0.02,,0.0,0.0,0.247,30.94,-53.35,112.41,-16.61,-55.11,58.01,-20.39,-42.63,126.12,-29.0,5.8,85.96,-8.96,32.26,78.22,18.81,17.58,65.13,,,,,,,,,,,,,,,,,,,,,,,,,,,,,,,,,,,,,0.0,0.0,0.0,0.0,0.0,0.0,0.0,0.0,0.0,0.0,0.0,0.0,0.0,0.0,0.0,0.0,0.0,0.0,,,,,,,,,,,,,,,,,,,,,,,,,,,,,,,,,,,,,,,,,,,,,,,,,,,,,,,,,,,,,,,,,,,,,,,,,
