t_s,phase,roll_deg,pitch_deg,gyro_x_dps,gyro_y_dps,gyro_z_dps,height_ref_mm,vx_ref_mps,vy_ref_mps,max_cur_a,q0_deg,q1_deg,q2_deg,q3_deg,q4_deg,q5_deg,q6_deg,q7_deg,q8_deg,q9_deg,q10_deg,q11_deg,q12_deg,q13_deg,q14_deg,q15_deg,q16_deg,q17_deg,cmd0_deg,cmd1_deg,cmd2_deg,cmd3_deg,cmd4_deg,cmd5_deg,cmd6_deg,cmd7_deg,cmd8_deg,cmd9_deg,cmd10_deg,cmd11_deg,cmd12_deg,cmd13_deg,cmd14_deg,cmd15_deg,cmd16_deg,cmd17_deg,act0,act1,act2,act3,act4,act5,act6,act7,act8,act9,act10,act11,act12,act13,act14,act15,act16,act17,cur0_a,cur1_a,cur2_a,cur3_a,cur4_a,cur5_a,cur6_a,cur7_a,cur8_a,cur9_a,cur10_a,cur11_a,cur12_a,cur13_a,cur14_a,cur15_a,cur16_a,cur17_a,obs0,obs1,obs2,obs3,obs4,obs5,obs6,obs7,obs8,obs9,obs10,obs11,obs12,obs13,obs14,obs15,obs16,obs17,obs18,obs19,obs20,obs21,obs22,obs23,obs24,obs25,obs26,obs27,obs28,obs29,obs30,obs31,obs32,obs33,obs34,obs35,obs36,obs37,obs38,obs39,obs40,obs41,obs42,obs43,obs44,obs45,obs46,obs47,obs48,obs49,obs50,obs51,obs52,obs53,obs54,obs55,obs56,obs57,obs58,obs59,obs60,obs61,obs62,obs63,obs64,obs65,obs66,obs67,rot60_k
0.0,run,7.98,4.25,0.33,1.63,-0.65,0.0,0.0,0.0,0.026,-0.18,17.75,65.04,1.67,16.44,72.33,2.81,19.25,82.88,1.05,18.98,74.18,0.18,19.25,82.09,0.7,16.35,77.43,-0.04,16.52,63.8,3.08,15.38,71.27,4.31,18.8,81.73,-0.45,17.57,72.94,1.68,18.45,80.94,2.2,15.55,76.28,-0.0012,0.5902,-0.2555,0.2406,0.6944,-0.427,0.1909,0.3772,0.1026,-0.1119,0.647,-0.3194,0.1065,0.2917,0.0686,0.2924,0.6533,-0.3591,0.0,0.006,0.0,0.0,0.0,0.006,0.006,0.026,0.0,0.013,0.006,0.0,0.013,0.006,0.0,0.006,0.013,0.0,0.0015,-0.0046,-0.0031,0.0015,-0.0031,-0.0077,0.0,-0.0123,-0.0061,0.0,0.0,-0.0015,0.0,-0.0031,-0.0061,0.0,0.0,0.0,0.0034,-0.0103,-0.0069,0.0034,-0.0069,-0.0172,0.0,-0.0275,-0.0132,0.0,0.0,-0.0034,0.0,-0.0069,-0.013,0.0,0.0,0.0,0.0,0.0,0.0085,-0.035,0.0234,0.0,0.0,0.0,0.0,0.0,0.0,0.0,0.0,0.0,0.0,0.0,0.0,0.0,0.0,0.0,0.0,0.0,0.0,0.0,0.0,0.0,0.0,0.0,0.0,0.0,0.0,0.0,
0.04,run,8.09,4.28,2.75,1.58,2.35,0.0,0.0,0.0,0.026,-0.18,17.4,64.86,1.67,16.0,71.98,2.9,19.16,82.53,0.79,18.9,74.09,0.35,19.07,81.65,0.79,16.0,77.08,0.76,15.02,62.3,4.58,13.88,69.77,5.81,17.3,80.23,-1.57,16.07,71.44,3.18,16.95,79.44,3.7,14.05,74.78,0.0218,0.6336,-0.2516,0.2164,0.7052,-0.3656,0.1955,0.4451,0.081,-0.0448,0.6812,-0.3252,0.1355,0.4233,0.1083,0.1813,0.6248,-0.2154,0.0,0.006,0.0,0.0,0.0,0.006,0.006,0.026,0.0,0.013,0.006,0.0,0.013,0.006,0.0,0.006,0.013,0.0,0.0015,-0.0046,-0.0046,0.0015,-0.0077,-0.0077,0.0,-0.0184,-0.0061,0.0,-0.0015,-0.0046,0.0,-0.0123,-0.0061,0.0,-0.0123,-0.0061,0.0024,-0.0072,-0.0071,0.0024,-0.0116,-0.012,0.0,-0.0283,-0.0093,0.0,-0.0023,-0.007,0.0,-0.0185,-0.0091,0.0,-0.0183,-0.0091,0.0044,0.0115,0.0057,0.0285,-0.0113,-0.0012,0.5902,-0.2555,0.2406,0.6944,-0.427,0.1909,0.3772,0.1026,-0.1119,0.647,-0.3194,0.1065,0.2917,0.0686,0.2924,0.6533,-0.3591,0.0,0.0,0.0,0.0,0.0,0.0,0.0,0.0,0.0,
0.08,run,8.16,4.27,1.75,-0.06,7.87,0.0,0.0,0.0,0.026,0.18,16.88,64.34,2.2,15.47,71.46,2.99,18.54,82.09,0.0,18.28,73.65,0.97,18.11,81.21,1.58,15.29,76.64,0.2,13.52,60.8,5.84,12.45,68.27,5.1,15.8,78.73,-0.89,14.57,69.94,3.13,15.45,79.38,4.35,12.55,73.28,0.0058,0.6237,-0.1106,0.1667,0.6808,-0.209,0.1457,0.5246,0.1475,-0.0253,0.6617,-0.1745,0.0895,0.5096,0.1691,0.1243,0.6183,-0.0776,0.0,0.006,0.0,0.0,0.0,0.006,0.006,0.026,0.0,0.013,0.006,0.0,0.013,0.006,0.0,0.006,0.013,0.0,0.0015,-0.0107,-0.0077,0.0015,-0.0153,-0.0138,0.0015,-0.0199,-0.0123,-0.0046,-0.0031,-0.0061,0.0031,-0.0153,-0.0138,0.0015,-0.0184,-0.0123,0.0017,-0.0302,-0.0175,0.0017,-0.0396,-0.0336,0.0063,-0.0261,-0.0316,-0.0189,-0.0079,-0.0112,0.0126,-0.0255,-0.0378,0.0063,-0.0379,-0.0315,0.0131,0.0136,0.048,0.0277,0.0409,0.0218,0.6336,-0.2516,0.2164,0.7052,-0.3656,0.1955,0.4451,0.081,-0.0448,0.6812,-0.3252,0.1355,0.4233,0.1083,0.1813,0.6248,-0.2154,0.0,0.0,0.0,0.0,0.0,0.0,0.0,0.0,0.0,
0.12,run,8.47,4.27,8.87,-0.42,6.54,0.0,0.0,0.0,0.026,0.35,16.08,63.54,2.81,14.68,70.49,3.78,17.58,81.21,-0.7,17.49,72.51,1.85,17.4,80.24,2.46,14.59,75.76,-0.46,12.02,62.3,4.34,10.95,68.12,3.6,14.3,80.23,-0.49,13.07,70.03,1.63,13.95,80.88,2.85,11.05,73.0,-0.013,0.606,0.1026,0.1018,0.6254,0.0367,0.0727,0.5892,0.2548,-0.0141,0.6132,0.0592,0.0326,0.5886,0.2557,0.0521,0.6091,0.0942,0.013,0.0,0.006,0.026,0.0,0.0,0.013,0.0,0.0,0.006,0.019,0.013,0.013,0.0,0.013,0.019,0.0,0.0,0.0077,-0.0199,-0.0169,0.0107,-0.0245,-0.023,0.0031,-0.0307,-0.0199,-0.0184,-0.0138,-0.0138,0.0138,-0.0322,-0.0215,0.0153,-0.0307,-0.0199,0.0243,-0.0558,-0.0469,0.0358,-0.0624,-0.0581,0.0102,-0.0587,-0.051,-0.0652,-0.0459,-0.0367,0.0492,-0.0814,-0.0553,0.0564,-0.0728,-0.051,0.0199,0.0133,0.0305,-0.0011,0.1373,0.0058,0.6237,-0.1106,0.1667,0.6808,-0.209,0.1457,0.5246,0.1475,-0.0253,0.6617,-0.1745,0.0895,0.5096,0.1691,0.1243,0.6183,-0.0776,0.0,0.0,0.0,0.0,0.0,0.0,0.0,0.0,0.0,
0.16,run,8.46,4.09,-0.19,-6.39,10.45,0.0,0.0,0.0,0.026,0.35,15.03,62.67,3.6,13.71,69.35,4.39,16.26,80.42,-0.97,16.7,71.46,2.46,16.17,79.8,3.34,13.45,74.88,-0.21,10.52,63.8,2.84,9.45,69.62,2.1,12.8,81.73,-0.35,11.57,71.53,0.41,12.45,82.38,1.35,9.55,74.5,-0.0059,0.6133,0.2268,0.0659,0.6003,0.1933,0.0355,0.6083,0.3018,-0.0099,0.5998,0.1931,0.0118,0.6151,0.2877,0.0054,0.6157,0.1767,0.013,0.0,0.006,0.026,0.0,0.0,0.013,0.0,0.0,0.006,0.019,0.013,0.013,0.0,0.013,0.019,0.0,0.0,0.0107,-0.0337,-0.0307,0.0215,-0.0383,-0.0399,0.0169,-0.0476,-0.0353,-0.0307,-0.0276,-0.0337,0.0291,-0.0445,-0.0383,0.0307,-0.043,-0.0353,0.0285,-0.0907,-0.0844,0.0652,-0.0953,-0.1038,0.0587,-0.1042,-0.093,-0.0915,-0.0838,-0.1002,0.0918,-0.1028,-0.1018,0.0968,-0.0968,-0.093,0.0464,0.0135,0.1548,-0.0073,0.1141,-0.013,0.606,0.1026,0.1018,0.6254,0.0367,0.0727,0.5892,0.2548,-0.0141,0.6132,0.0592,0.0326,0.5886,0.2557,0.0521,0.6091,0.0942,0.0,0.0,0.0,0.0,0.0,0.0,0.0,0.0,0.0,
0.2,run,8.83,4.57,9.8,12.85,12.4,0.0,0.0,0.0,0.026,-0.26,13.71,61.96,4.57,12.57,68.64,4.57,15.12,79.8,-0.79,15.21,70.66,2.72,14.94,79.63,3.87,12.3,74.18,0.09,9.02,65.3,2.14,8.0,71.12,0.67,11.3,83.23,-0.25,10.07,73.03,0.19,10.95,83.88,-0.15,9.13,76.0,0.0027,0.6161,0.2389,0.061,0.6001,0.2298,0.0192,0.6193,0.3003,-0.0071,0.6019,0.2156,0.0053,0.622,0.2916,-0.0211,0.6205,0.1811,0.013,0.0,0.006,0.026,0.0,0.0,0.013,0.0,0.0,0.006,0.019,0.013,0.013,0.0,0.013,0.019,0.0,0.0,0.0107,-0.0522,-0.046,0.0353,-0.0552,-0.0598,0.0276,-0.0706,-0.0491,-0.0353,-0.0414,-0.0522,0.0399,-0.066,-0.046,0.046,-0.0629,-0.0506,0.0199,-0.1324,-0.1166,0.0974,-0.1299,-0.1473,0.0813,-0.1591,-0.1169,-0.0813,-0.1104,-0.1391,0.1045,-0.1524,-0.1,0.1252,-0.1425,-0.1226,0.0459,-0.0027,-0.0033,-0.1114,0.1824,-0.0059,0.6133,0.2268,0.0659,0.6003,0.1933,0.0355,0.6083,0.3018,-0.0099,0.5998,0.1931,0.0118,0.6151,0.2877,0.0054,0.6157,0.1767,0.0,0.0,0.0,0.0,0.0,0.0,0.0,0.0,0.0,
0.24,run,9.07,5.01,6.49,11.76,4.1,0.0,0.0,0.0,0.026,0.0,12.48,61.44,5.1,11.25,68.2,4.57,13.71,79.45,-0.35,13.8,70.22,2.72,13.62,79.54,4.04,11.16,73.48,0.09,8.75,66.8,3.02,8.2,72.62,1.18,9.8,84.73,-0.33,8.57,74.53,0.63,9.45,85.38,-0.67,9.58,77.5,0.0026,0.6136,0.2176,0.0863,0.6037,0.2342,0.0337,0.6169,0.2921,-0.0095,0.6,0.2007,0.0179,0.6246,0.2932,-0.0191,0.6288,0.1747,0.0,0.0,0.006,0.006,0.0,0.0,0.019,0.0,0.0,0.0,0.019,0.0,0.0,0.0,0.013,0.0,0.0,0.0,0.0,-0.0752,-0.0583,0.0522,-0.0752,-0.0721,0.0307,-0.0905,-0.0598,-0.0322,-0.0675,-0.066,0.0445,-0.0874,-0.0491,0.0552,-0.0828,-0.0629,-0.0264,-0.1792,-0.1278,0.1316,-0.1659,-0.1493,0.0685,-0.1864,-0.1222,-0.0454,-0.1753,-0.1493,0.0904,-0.1875,-0.0815,0.1223,-0.1747,-0.1319,0.0777,0.0396,0.1711,0.2243,0.2164,0.0027,0.6161,0.2389,0.061,0.6001,0.2298,0.0192,0.6193,0.3003,-0.0071,0.6019,0.2156,0.0053,0.622,0.2916,-0.0211,0.6205,0.1811,0.0,0.0,0.0,0.0,0.0,0.0,0.0,0.0,0.0,
0.28,run,9.17,5.18,3.13,4.71,-4.75,0.0,0.0,0.0,0.026,0.0,11.16,61.44,5.19,10.02,68.12,4.39,12.39,79.45,-0.35,12.48,70.22,2.37,12.3,80.16,3.78,10.11,73.21,0.19,9.0,68.3,3.38,8.38,74.12,1.3,9.4,86.23,-0.39,7.93,76.03,0.87,9.85,86.88,-0.97,9.94,79.0,0.0054,0.6182,0.1931,0.0965,0.607,0.2262,0.0372,0.6255,0.288,-0.011,0.5987,0.1857,0.0248,0.6337,0.305,-0.0276,0.6354,0.1654,0.0,0.0,0.006,0.006,0.0,0.0,0.019,0.0,0.0,0.0,0.019,0.0,0.0,0.0,0.013,0.0,0.0,0.0,0.0046,-0.0966,-0.0675,0.0614,-0.0982,-0.0798,0.0307,-0.115,-0.066,-0.0245,-0.092,-0.0736,0.0445,-0.1104,-0.0506,0.0583,-0.1028,-0.0752,-0.0013,-0.2058,-0.1239,0.1266,-0.2023,-0.1332,0.0479,-0.2223,-0.1085,-0.003,-0.2146,-0.1332,0.0633,-0.2174,-0.0628,0.0971,-0.1969,-0.1383,0.0993,0.0781,0.1133,0.2052,0.0716,0.0026,0.6136,0.2176,0.0863,0.6037,0.2342,0.0337,0.6169,0.2921,-0.0095,0.6,0.2007,0.0179,0.6246,0.2932,-0.0191,0.6288,0.1747,0.0,0.0,0.0,0.0,0.0,0.0,0.0,0.0,0.0,
0.32,run,9.54,5.28,7.14,3.47,-0.3,0.0,0.0,0.0,0.026,-0.09,10.11,61.52,5.19,9.05,68.29,3.43,11.16,79.54,-0.35,11.16,70.49,1.49,11.07,81.12,3.08,9.4,73.12,0.32,9.18,69.8,3.42,8.42,75.62,1.38,9.56,87.73,-0.46,7.86,77.53,1.08,10.03,88.38,-1.2,10.14,78.25,0.0091,0.6214,0.1742,0.0976,0.6077,0.2165,0.0395,0.6284,0.2834,-0.0132,0.5975,0.1741,0.0309,0.6368,0.3106,-0.0344,0.6389,0.1558,0.0,0.0,0.006,0.006,0.0,0.0,0.019,0.0,0.0,0.0,0.019,0.0,0.0,0.0,0.013,0.0,0.0,0.0,0.0046,-0.1197,-0.0675,0.0629,-0.1197,-0.0813,0.0276,-0.1381,-0.066,-0.0245,-0.115,-0.0736,0.0383,-0.1335,-0.0399,0.0537,-0.1212,-0.0798,-0.0009,-0.2303,-0.0867,0.0944,-0.2221,-0.099,0.0221,-0.2419,-0.0759,-0.0021,-0.2365,-0.0933,0.0213,-0.2384,-0.0037,0.0507,-0.2069,-0.1141,0.1082,0.0926,0.0546,0.0821,-0.0828,0.0054,0.6182,0.1931,0.0965,0.607,0.2262,0.0372,0.6255,0.288,-0.011,0.5987,0.1857,0.0248,0.6337,0.305,-0.0276,0.6354,0.1654,0.0,0.0,0.0,0.0,0.0,0.0,0.0,0.0,0.0,
0.36,run,9.7,4.86,4.44,-12.91,-3.42,0.0,0.0,0.0,0.045,0.26,9.4,62.14,5.19,8.26,68.91,2.72,10.02,80.16,-0.53,9.93,71.28,0.97,10.2,82.0,2.11,9.14,73.48,0.42,9.0,71.3,3.51,8.42,77.12,1.49,9.22,88.52,-0.53,7.84,78.91,1.3,9.98,89.88,-1.13,10.44,77.58,0.0121,0.6182,0.1685,0.1002,0.6076,0.2151,0.0425,0.6222,0.2767,-0.0152,0.5971,0.1637,0.0372,0.6361,0.3062,-0.0322,0.6444,0.148,0.006,0.0,0.026,0.019,0.0,0.045,0.026,0.019,0.033,0.0,0.0,0.006,0.0,0.006,0.013,0.013,0.013,0.019,0.0031,-0.1381,-0.066,0.0629,-0.1365,-0.0782,0.0107,-0.1595,-0.0644,-0.0245,-0.1381,-0.069,0.023,-0.1549,-0.023,0.0414,-0.1335,-0.0813,-0.0064,-0.2305,-0.0549,0.066,-0.219,-0.0578,-0.0481,-0.2501,-0.0474,-0.0015,-0.2521,-0.048,-0.0428,-0.2477,0.0609,-0.0107,-0.191,-0.0856,0.1401,0.1018,0.1246,0.0606,-0.0052,0.0091,0.6214,0.1742,0.0976,0.6077,0.2165,0.0395,0.6284,0.2834,-0.0132,0.5975,0.1741,0.0309,0.6368,0.3106,-0.0344,0.6389,0.1558,0.0,0.0,0.0,0.0,0.0,0.0,0.0,0.0,0.0,
0.4,run,9.45,4.54,-4.4,-6.39,-14.02,0.0,0.0,0.0,0.045,0.26,8.79,63.63,4.04,7.91,70.14,2.2,9.05,81.39,-0.44,8.61,72.77,0.88,9.32,84.11,0.44,8.88,74.71,0.62,8.94,72.8,3.1,8.1,78.62,1.42,8.8,87.87,-0.55,7.87,77.89,1.34,9.47,90.59,-1.18,10.29,76.61,0.0176,0.6171,0.1651,0.0885,0.6018,0.2013,0.0405,0.6146,0.2691,-0.0157,0.5977,0.1517,0.0382,0.6268,0.3011,-0.0337,0.6417,0.1365,0.006,0.0,0.026,0.019,0.0,0.045,0.026,0.019,0.033,0.0,0.0,0.006,0.0,0.006,0.013,0.013,0.013,0.019,0.0092,-0.1503,-0.0552,0.0629,-0.1503,-0.0675,-0.0015,-0.1795,-0.0537,-0.0276,-0.1595,-0.0552,0.0138,-0.1703,-0.0077,0.0245,-0.1381,-0.0752,0.0184,-0.2072,0.0017,0.0462,-0.2048,-0.0003,-0.0795,-0.2496,0.0069,-0.0125,-0.2567,0.018,-0.0643,-0.2307,0.0999,-0.0705,-0.1509,-0.037,0.1544,0.0651,0.0774,-0.2254,-0.0598,0.0121,0.6182,0.1685,0.1002,0.6076,0.2151,0.0425,0.6222,0.2767,-0.0152,0.5971,0.1637,0.0372,0.6361,0.3062,-0.0322,0.6444,0.148,0.0,0.0,0.0,0.0,0.0,0.0,0.0,0.0,0.0,
0.44,run,9.44,4.63,-1.63,1.98,1.5,0.0,0.0,0.0,0.045,0.18,8.79,64.86,3.87,7.91,71.46,2.2,8.53,82.62,-0.44,8.0,74.09,1.14,9.23,85.34,-0.44,8.88,75.5,0.6,8.32,74.3,2.93,7.81,79.96,1.59,7.74,87.2,-0.57,7.62,76.42,1.5,8.77,89.83,-0.95,10.0,75.19,0.017,0.6059,0.1435,0.0837,0.5965,0.176,0.0453,0.5952,0.2612,-0.0163,0.5932,0.1343,0.043,0.6139,0.2921,-0.0273,0.6363,0.1199,0.006,0.0,0.026,0.019,0.0,0.045,0.026,0.019,0.033,0.0,0.0,0.006,0.0,0.006,0.013,0.013,0.013,0.019,0.0092,-0.1611,-0.0291,0.043,-0.1565,-0.046,-0.0107,-0.1963,-0.0322,-0.0261,-0.1825,-0.0291,0.0123,-0.1856,0.0291,-0.0046,-0.1427,-0.0537,0.0129,-0.1727,0.0684,-0.0191,-0.1592,0.0552,-0.0794,-0.2182,0.0603,-0.0048,-0.239,0.0799,-0.049,-0.201,0.1649,-0.1245,-0.1175,0.0295,0.1321,0.0372,-0.0767,-0.1116,-0.2447,0.0176,0.6171,0.1651,0.0885,0.6018,0.2013,0.0405,0.6146,0.2691,-0.0157,0.5977,0.1517,0.0382,0.6268,0.3011,-0.0337,0.6417,0.1365,0.0,0.0,0.0,0.0,0.0,0.0,0.0,0.0,0.0,
0.48,run,9.29,4.42,-5.5,-5.59,0.29,0.0,0.0,0.0,0.071,0.44,8.53,66.18,3.69,7.73,72.77,2.2,8.0,83.85,-0.44,7.82,75.5,1.14,8.7,86.57,-0.79,8.88,76.11,0.63,7.5,75.8,3.14,7.51,78.82,1.58,6.8,86.56,-0.74,7.32,75.02,1.71,7.89,88.33,-0.56,9.75,73.87,0.018,0.591,0.1413,0.0896,0.5911,0.1626,0.0453,0.5782,0.2537,-0.0211,0.5875,0.1179,0.0489,0.5981,0.2725,-0.0161,0.6319,0.1044,0.0,0.0,0.045,0.019,0.006,0.071,0.013,0.013,0.045,0.013,0.006,0.0,0.019,0.0,0.033,0.0,0.033,0.033,0.0077,-0.1611,-0.0077,0.0399,-0.1565,-0.023,-0.0107,-0.2056,-0.0107,-0.0261,-0.1933,-0.0061,0.0169,-0.1871,0.0506,-0.0199,-0.1427,-0.0399,0.0033,-0.1209,0.1277,-0.0248,-0.1114,0.1242,-0.0556,-0.187,0.122,-0.0034,-0.2072,0.1414,-0.0172,-0.1464,0.1953,-0.1442,-0.0822,0.072,0.131,0.0444,-0.0285,0.0346,0.0262,0.017,0.6059,0.1435,0.0837,0.5965,0.176,0.0453,0.5952,0.2612,-0.0163,0.5932,0.1343,0.043,0.6139,0.2921,-0.0273,0.6363,0.1199,0.0,0.0,0.0,0.0,0.0,0.0,0.0,0.0,0.0,
0.52,run,9.3,4.28,0.18,-2.65,-7.33,0.0,0.0,0.0,0.071,0.44,7.91,67.76,3.52,7.12,74.36,2.2,6.86,85.08,-0.79,7.56,76.55,1.23,7.91,87.89,-1.14,8.88,76.64,0.75,6.98,76.41,2.91,7.33,77.32,1.52,6.05,86.29,-0.68,7.21,73.79,1.74,6.99,87.83,-0.44,9.3,72.84,0.0213,0.5815,0.1343,0.0833,0.5878,0.1386,0.0434,0.5646,0.2505,-0.0194,0.5856,0.1034,0.0498,0.5816,0.2686,-0.0125,0.6237,0.0923,0.0,0.0,0.045,0.019,0.006,0.071,0.013,0.013,0.045,0.013,0.006,0.0,0.019,0.0,0.033,0.0,0.033,0.033,0.0123,-0.1657,0.0153,0.0368,-0.1595,0.0,-0.0107,-0.2148,0.0107,-0.0261,-0.1963,0.0184,0.0169,-0.1963,0.0721,-0.0261,-0.1427,-0.0291,0.0196,-0.1019,0.1756,-0.0288,-0.0895,0.1731,-0.0389,-0.1653,0.1658,-0.0023,-0.1566,0.1909,-0.012,-0.137,0.2171,-0.1239,-0.0576,0.0906,0.1182,0.0259,-0.0959,-0.0976,0.005,0.018,0.591,0.1413,0.0896,0.5911,0.1626,0.0453,0.5782,0.2537,-0.0211,0.5875,0.1179,0.0489,0.5981,0.2725,-0.0161,0.6319,0.1044,0.0,0.0,0.0,0.0,0.0,0.0,0.0,0.0,0.0,
0.56,run,9.18,4.11,-2.45,-4.93,3.52,0.0,0.0,0.0,0.071,0.44,7.38,69.17,3.43,6.94,75.67,2.2,6.33,85.78,-0.79,7.29,77.34,1.41,7.56,88.68,-0.79,8.79,76.64,0.78,6.31,75.04,2.96,7.16,75.82,1.87,5.02,85.8,-0.52,7.03,72.29,2.0,5.89,87.47,0.01,8.96,71.76,0.0223,0.5694,0.1181,0.0847,0.5847,0.1091,0.0533,0.5459,0.2447,-0.015,0.5824,0.0795,0.0571,0.5617,0.2643,0.0002,0.6174,0.0796,0.0,0.0,0.045,0.019,0.006,0.071,0.013,0.013,0.045,0.013,0.006,0.0,0.019,0.0,0.033,0.0,0.033,0.033,0.0123,-0.1764,0.043,0.0337,-0.1703,0.0276,-0.0107,-0.2347,0.0322,-0.0322,-0.201,0.0368,0.0184,-0.2102,0.0951,-0.0322,-0.1427,-0.0199,0.0137,-0.105,0.2096,-0.0298,-0.0964,0.2079,-0.0272,-0.1784,0.1835,-0.0209,-0.124,0.1915,-0.0036,-0.1392,0.2242,-0.106,-0.0403,0.0923,0.1191,0.0144,0.0031,-0.0463,-0.1279,0.0213,0.5815,0.1343,0.0833,0.5878,0.1386,0.0434,0.5646,0.2505,-0.0194,0.5856,0.1034,0.0498,0.5816,0.2686,-0.0125,0.6237,0.0923,0.0,0.0,0.0,0.0,0.0,0.0,0.0,0.0,0.0,
0.6,run,8.76,3.79,-9.94,-9.51,7.99,0.0,0.0,0.0,0.091,0.44,6.86,70.58,3.43,6.77,76.55,2.2,5.36,86.22,-0.62,7.21,77.61,1.58,6.59,89.12,-0.35,8.79,76.46,0.89,5.81,74.71,3.15,7.19,74.32,1.79,4.59,85.45,-0.69,6.89,71.0,2.05,5.23,87.06,0.2,8.65,70.96,0.0256,0.5603,0.1143,0.0901,0.5853,0.0929,0.051,0.5379,0.2406,-0.0196,0.5799,0.0706,0.0587,0.5497,0.2596,0.0058,0.6119,0.0701,0.013,0.0,0.045,0.006,0.013,0.091,0.006,0.026,0.026,0.006,0.006,0.0,0.013,0.013,0.026,0.006,0.0,0.006,0.0123,-0.1856,0.0675,0.0322,-0.1733,0.0506,-0.0107,-0.2439,0.0445,-0.0322,-0.2056,0.0506,0.0215,-0.2163,0.1089,-0.0261,-0.1442,-0.0199,0.0096,-0.1068,0.2354,-0.0264,-0.0785,0.2286,-0.0191,-0.1581,0.1728,-0.0146,-0.1035,0.1839,0.0086,-0.1196,0.2068,-0.0521,-0.0337,0.0646,0.1083,-0.0005,-0.0428,-0.086,0.0615,0.0223,0.5694,0.1181,0.0847,0.5847,0.1091,0.0533,0.5459,0.2447,-0.015,0.5824,0.0795,0.0571,0.5617,0.2643,0.0002,0.6174,0.0796,0.0,0.0,0.0,0.0,0.0,0.0,0.0,0.0,0.0,
0.64,run,8.84,3.83,1.81,0.03,-1.23,0.0,0.0,0.0,0.091,0.7,6.15,71.89,3.43,6.68,77.34,2.2,4.66,86.22,-0.44,7.03,77.7,1.67,5.8,89.21,-0.09,8.35,75.85,1.01,5.36,74.24,3.14,7.5,72.82,1.57,4.48,85.27,-0.73,6.78,70.91,2.0,4.79,87.5,0.1,8.44,70.56,0.0289,0.5519,0.1087,0.0898,0.5909,0.0767,0.0449,0.536,0.2384,-0.0208,0.5779,0.0695,0.0571,0.5417,0.2648,0.0028,0.608,0.0655,0.013,0.0,0.045,0.006,0.013,0.091,0.006,0.026,0.026,0.006,0.006,0.0,0.013,0.013,0.026,0.006,0.0,0.006,0.0123,-0.1948,0.092,0.0322,-0.1764,0.066,-0.0107,-0.2608,0.0522,-0.0291,-0.2071,0.0552,0.0245,-0.2332,0.1166,-0.0184,-0.1442,-0.023,0.0067,-0.1104,0.2599,-0.0185,-0.0669,0.2195,-0.0133,-0.1761,0.1507,0.0016,-0.0784,0.1466,0.0179,-0.1492,0.1745,-0.0067,-0.0236,0.0333,0.0723,-0.0289,-0.1735,-0.1661,0.1395,0.0256,0.5603,0.1143,0.0901,0.5853,0.0929,0.051,0.5379,0.2406,-0.0196,0.5799,0.0706,0.0587,0.5497,0.2596,0.0058,0.6119,0.0701,0.0,0.0,0.0,0.0,0.0,0.0,0.0,0.0,0.0,
0.68,run,8.78,3.86,-0.59,1.62,-0.34,0.0,0.0,0.0,0.091,0.79,5.62,72.86,3.43,6.68,77.61,2.11,4.31,86.22,-0.62,6.86,77.08,1.76,5.1,89.12,-0.09,8.09,74.88,0.93,5.2,73.68,3.4,7.48,71.32,2.15,4.07,84.83,-0.53,6.73,69.92,2.18,4.38,87.35,0.39,8.46,70.38,0.0266,0.549,0.1021,0.097,0.5905,0.0664,0.0613,0.5286,0.2333,-0.0151,0.5769,0.0578,0.0622,0.5342,0.2629,0.0111,0.6084,0.0633,0.013,0.0,0.045,0.006,0.013,0.091,0.006,0.026,0.026,0.006,0.006,0.0,0.013,0.013,0.026,0.006,0.0,0.006,0.0169,-0.2071,0.115,0.0322,-0.1779,0.0798,-0.0107,-0.273,0.0522,-0.0261,-0.2102,0.0568,0.0261,-0.247,0.1181,-0.0138,-0.1519,-0.0337,0.022,-0.1236,0.2687,-0.0129,-0.0526,0.2057,-0.0093,-0.1695,0.1055,0.0127,-0.0664,0.1084,0.0183,-0.1565,0.1279,0.0127,-0.0455,-0.0172,0.0792,-0.0252,0.0316,0.0005,-0.0215,0.0289,0.5519,0.1087,0.0898,0.5909,0.0767,0.0449,0.536,0.2384,-0.0208,0.5779,0.0695,0.0571,0.5417,0.2648,0.0028,0.608,0.0655,0.0,0.0,0.0,0.0,0.0,0.0,0.0,0.0,0.0,
0.72,run,8.35,3.37,-12.49,-13.51,5.07,0.0,0.0,0.0,0.091,0.79,5.27,73.56,3.43,6.68,77.7,2.11,3.87,85.87,-0.44,6.86,75.85,1.85,4.48,88.42,-0.09,8.09,73.65,0.91,5.66,74.01,3.56,8.02,71.37,2.2,4.86,85.39,-0.71,7.0,71.05,2.08,5.1,88.73,0.29,8.83,71.2,0.0259,0.5574,0.106,0.1016,0.6003,0.0749,0.0629,0.5429,0.2399,-0.0203,0.5817,0.0711,0.0594,0.5474,0.2792,0.0084,0.6152,0.073,0.0,0.0,0.026,0.0,0.026,0.019,0.006,0.013,0.0,0.013,0.006,0.039,0.006,0.006,0.013,0.013,0.013,0.006,0.0184,-0.2163,0.1319,0.0322,-0.1779,0.0844,-0.0123,-0.2792,0.0522,-0.0291,-0.2132,0.046,0.0276,-0.2592,0.1166,-0.0138,-0.1565,-0.0506,0.0212,-0.1209,0.2511,-0.0091,-0.0368,0.1612,-0.0123,-0.1416,0.0738,-0.0026,-0.058,0.0357,0.0185,-0.1554,0.0838,0.0089,-0.049,-0.0751,0.0739,-0.0224,-0.0104,0.0283,-0.006,0.0266,0.549,0.1021,0.097,0.5905,0.0664,0.0613,0.5286,0.2333,-0.0151,0.5769,0.0578,0.0622,0.5342,0.2629,0.0111,0.6084,0.0633,0.0,0.0,0.0,0.0,0.0,0.0,0.0,0.0,0.0,
0.76,run,8.36,3.32,0.79,-2.94,0.93,0.0,0.0,0.0,0.091,0.7,5.27,74.0,3.43,6.68,77.7,2.2,3.6,85.25,-0.62,6.77,75.32,1.85,4.13,87.89,0.0,8.0,72.42,1.07,6.5,75.11,3.42,8.83,72.6,1.77,6.22,86.02,-0.89,7.35,72.55,1.79,5.86,90.23,-0.29,9.07,72.7,0.0305,0.5727,0.1189,0.0977,0.6152,0.0894,0.0507,0.5677,0.2473,-0.0254,0.5882,0.0993,0.0511,0.561,0.3006,-0.0083,0.6195,0.0907,0.0,0.0,0.026,0.0,0.026,0.019,0.006,0.013,0.0,0.013,0.006,0.039,0.006,0.006,0.013,0.013,0.013,0.006,0.0184,-0.2224,0.1442,0.0322,-0.1779,0.0859,-0.0123,-0.2869,0.046,-0.0261,-0.2132,0.0245,0.0291,-0.27,0.1043,-0.0138,-0.1565,-0.0721,0.0148,-0.1076,0.2218,-0.0063,-0.0258,0.1186,-0.0086,-0.1279,0.0287,0.0097,-0.0406,-0.0555,0.0187,-0.149,0.0127,0.0062,-0.0343,-0.133,0.0358,-0.0655,-0.218,-0.2357,0.0885,0.0259,0.5574,0.106,0.1016,0.6003,0.0749,0.0629,0.5429,0.2399,-0.0203,0.5817,0.0711,0.0594,0.5474,0.2792,0.0084,0.6152,0.073,0.0,0.0,0.0,0.0,0.0,0.0,0.0,0.0,0.0,
0.8,run,8.36,3.27,-0.92,-0.59,0.7,0.0,0.0,0.0,0.091,0.7,5.27,74.09,3.43,6.68,76.9,2.2,3.6,84.99,-0.79,7.21,73.65,1.67,4.13,87.54,-0.18,8.0,71.54,0.98,6.56,75.02,3.61,8.54,73.16,2.16,6.03,85.11,-0.68,7.07,73.27,1.86,5.64,89.18,-0.22,8.99,72.95,0.028,0.5739,0.1178,0.1032,0.6099,0.096,0.0617,0.5642,0.2366,-0.0194,0.583,0.0973,0.0531,0.557,0.2844,-0.0062,0.618,0.0936,0.0,0.0,0.026,0.0,0.026,0.019,0.006,0.013,0.0,0.013,0.006,0.039,0.006,0.006,0.013,0.013,0.013,0.006,0.0169,-0.2224,0.1519,0.0322,-0.1779,0.0859,-0.0107,-0.2915,0.0353,-0.0291,-0.2148,0.0153,0.0291,-0.2761,0.0951,-0.0123,-0.158,-0.0936,0.0046,-0.0753,0.184,-0.0044,-0.018,0.083,-0.0003,-0.1068,-0.0202,-0.0047,-0.0342,-0.0734,0.0131,-0.1273,-0.0256,0.0101,-0.0298,-0.1737,0.0369,-0.0694,0.0139,-0.0514,0.0163,0.0305,0.5727,0.1189,0.0977,0.6152,0.0894,0.0507,0.5677,0.2473,-0.0254,0.5882,0.0993,0.0511,0.561,0.3006,-0.0083,0.6195,0.0907,0.0,0.0,0.0,0.0,0.0,0.0,0.0,0.0,0.0,
0.84,run,8.42,3.5,0.99,5.4,-1.64,0.0,0.0,0.0,0.201,0.79,5.27,74.27,3.43,6.68,75.85,2.2,3.87,84.99,-0.79,7.12,72.77,1.58,4.13,87.45,-0.26,8.0,70.93,0.91,6.95,75.1,3.72,8.81,74.02,2.24,6.58,85.67,-0.77,7.1,74.31,1.82,6.13,90.21,-0.28,9.09,73.61,0.026,0.5808,0.1188,0.1064,0.6146,0.1061,0.0641,0.5742,0.2432,-0.0219,0.5836,0.1096,0.0519,0.566,0.2966,-0.0079,0.6198,0.1013,0.0,0.045,0.019,0.0,0.065,0.0,0.006,0.201,0.006,0.0,0.0,0.006,0.013,0.156,0.019,0.0,0.033,0.006,0.0169,-0.2224,0.1534,0.0322,-0.1779,0.0721,-0.0107,-0.2915,0.0307,-0.0322,-0.2071,-0.0138,0.0261,-0.2761,0.089,-0.0153,-0.158,-0.1089,0.0032,-0.0527,0.1346,-0.0031,-0.0126,0.0063,-0.0002,-0.0747,-0.0314,-0.0148,0.0049,-0.1607,-0.0023,-0.0891,-0.041,-0.0044,-0.0208,-0.1791,0.037,-0.0745,-0.0161,-0.0103,0.0123,0.028,0.5739,0.1178,0.1032,0.6099,0.096,0.0617,0.5642,0.2366,-0.0194,0.583,0.0973,0.0531,0.557,0.2844,-0.0062,0.618,0.0936,0.0,0.0,0.0,0.0,0.0,0.0,0.0,0.0,0.0,
0.88,run,8.47,3.4,-0.13,-1.7,-6.26,0.0,0.0,0.0,0.201,0.7,5.45,74.27,3.43,7.03,74.71,2.2,4.39,84.99,-0.79,7.29,71.98,1.67,4.57,87.89,-0.26,8.0,70.58,0.87,7.13,75.15,3.75,8.83,74.91,2.38,6.74,85.78,-0.82,7.05,74.94,1.87,6.54,90.32,-0.3,9.23,74.14,0.0247,0.5842,0.1194,0.1071,0.615,0.1166,0.0679,0.5771,0.2445,-0.0234,0.5827,0.1169,0.0534,0.5735,0.2979,-0.0086,0.6223,0.1076,0.0,0.045,0.019,0.0,0.065,0.0,0.006,0.201,0.006,0.0,0.0,0.006,0.013,0.156,0.019,0.0,0.033,0.006,0.0184,-0.2224,0.1565,0.0322,-0.1779,0.0537,-0.0107,-0.2869,0.0307,-0.0322,-0.2086,-0.0291,0.0245,-0.2761,0.0874,-0.0169,-0.158,-0.1197,0.008,-0.0369,0.1057,-0.0022,-0.0088,-0.0646,-0.0001,-0.0351,-0.022,-0.0104,-0.0023,-0.17,-0.0074,-0.0624,-0.0344,-0.0089,-0.0146,-0.1656,0.0422,-0.054,0.0172,0.0943,-0.0286,0.026,0.5808,0.1188,0.1064,0.6146,0.1061,0.0641,0.5742,0.2432,-0.0219,0.5836,0.1096,0.0519,0.566,0.2966,-0.0079,0.6198,0.1013,0.0,0.0,0.0,0.0,0.0,0.0,0.0,0.0,0.0,
0.92,run,8.65,3.26,4.02,-3.1,0.49,0.0,0.0,0.0,0.201,0.7,5.71,74.27,3.34,7.21,73.92,2.2,4.83,84.99,-0.79,7.21,71.63,1.67,5.1,88.68,-0.26,8.0,70.49,0.93,7.42,75.39,3.53,8.82,75.14,2.47,6.82,86.11,-0.84,7.23,75.17,1.94,6.57,90.69,-0.3,9.19,74.53,0.0266,0.5894,0.1222,0.1009,0.6149,0.1193,0.0705,0.5785,0.2483,-0.0241,0.586,0.1197,0.0554,0.574,0.3022,-0.0086,0.6216,0.1121,0.0,0.045,0.019,0.0,0.065,0.0,0.006,0.201,0.006,0.0,0.0,0.006,0.013,0.156,0.019,0.0,0.033,0.006,0.0169,-0.2194,0.1565,0.0322,-0.1718,0.0337,-0.0107,-0.2777,0.0307,-0.0322,-0.2056,-0.043,0.0261,-0.2684,0.0951,-0.0169,-0.158,-0.1258,-0.0001,-0.0143,0.074,-0.0015,0.0168,-0.12,-0.0001,0.01,-0.0154,-0.0073,0.0099,-0.1708,0.0006,-0.0149,0.0047,-0.0062,-0.0102,-0.139,0.0468,-0.0626,-0.0023,-0.0296,-0.1092,0.0247,0.5842,0.1194,0.1071,0.615,0.1166,0.0679,0.5771,0.2445,-0.0234,0.5827,0.1169,0.0534,0.5735,0.2979,-0.0086,0.6223,0.1076,0.0,0.0,0.0,0.0,0.0,0.0,0.0,0.0,0.0,
0.96,run,8.76,3.2,3.5,-2.81,-0.3,0.0,0.0,0.0,0.201,0.79,5.98,74.44,3.34,7.21,73.48,2.37,5.01,85.25,-0.97,6.94,71.72,1.67,5.19,89.47,-0.26,8.0,70.93,1.0,7.3,75.94,3.53,8.47,75.57,2.53,6.42,85.71,-0.89,7.21,74.91,2.05,6.36,89.51,-0.16,9.18,74.35,0.0287,0.5873,0.1287,0.1009,0.6085,0.1244,0.0723,0.5713,0.2437,-0.0253,0.5856,0.1166,0.0585,0.5701,0.2883,-0.0046,0.6214,0.1099,0.0,0.039,0.019,0.0,0.045,0.0,0.006,0.163,0.013,0.0,0.006,0.006,0.013,0.091,0.019,0.0,0.033,0.019,0.0169,-0.2148,0.1565,0.0307,-0.1687,0.0199,-0.0107,-0.27,0.0307,-0.0322,-0.2071,-0.0491,0.0261,-0.2592,0.1089,-0.0169,-0.158,-0.1273,-0.0001,0.0072,0.0518,-0.0068,0.0233,-0.1357,-0.0001,0.0357,-0.0108,-0.0051,0.0012,-0.1425,0.0004,0.0241,0.055,-0.0043,-0.0071,-0.103,0.0627,-0.0752,0.0702,-0.0542,0.0086,0.0266,0.5894,0.1222,0.1009,0.6149,0.1193,0.0705,0.5785,0.2483,-0.0241,0.586,0.1197,0.0554,0.574,0.3022,-0.0086,0.6216,0.1121,0.0,0.0,0.0,0.0,0.0,0.0,0.0,0.0,0.0,
1.0,run,8.7,3.16,-0.01,-1.75,-1.67,-0.0,0.0,0.0,0.201,0.88,5.98,74.71,3.34,7.21,73.21,2.46,5.01,85.25,-1.05,6.94,71.98,1.67,5.19,90.09,-0.26,8.0,71.54,1.03,7.09,75.77,3.5,8.27,75.22,2.57,6.06,85.69,-0.87,7.19,74.4,2.12,6.14,89.23,-0.03,9.1,73.83,0.0295,0.5835,0.1267,0.1,0.6049,0.1202,0.0736,0.5647,0.2434,-0.0249,0.5852,0.1106,0.0605,0.5662,0.285,-0.0009,0.6201,0.1038,0.0,0.039,0.019,0.0,0.045,0.0,0.006,0.163,0.013,0.0,0.006,0.006,0.013,0.091,0.019,0.0,0.033,0.019,0.0184,-0.2102,0.1595,0.0307,-0.1687,0.0123,-0.0077,-0.2669,0.0353,-0.0353,-0.2117,-0.0476,0.0261,-0.2577,0.1227,-0.0169,-0.158,-0.1197,0.0057,0.0223,0.0478,-0.0048,0.0163,-0.1238,0.0115,0.0365,0.0097,-0.0151,-0.0165,-0.094,0.0003,0.0226,0.0903,-0.003,-0.005,-0.0433,0.0721,-0.0804,0.0612,-0.049,-0.0052,0.0287,0.5873,0.1287,0.1009,0.6085,0.1244,0.0723,0.5713,0.2437,-0.0253,0.5856,0.1166,0.0585,0.5701,0.2883,-0.0046,0.6214,0.1099,0.0,0.0,-0.0,0.0,0.0,0.0,0.0,0.0,0.0,
1.04,run,8.68,3.18,-0.23,-0.41,0.96,-0.4,0.0,0.0,0.201,0.88,5.98,74.97,3.34,7.21,73.21,2.46,5.01,85.25,-0.97,6.94,72.86,1.67,5.19,90.26,-0.26,8.0,72.42,1.07,6.85,75.66,3.42,8.1,75.2,2.57,5.86,86.02,-0.8,7.0,74.5,2.21,6.03,89.73,-0.05,8.91,73.83,0.0305,0.579,0.1254,0.0978,0.6019,0.12,0.0735,0.5611,0.2473,-0.0227,0.5818,0.1118,0.063,0.5642,0.2909,-0.0015,0.6166,0.1038,0.0,0.039,0.019,0.0,0.045,0.0,0.006,0.163,0.013,0.0,0.006,0.006,0.013,0.091,0.019,0.0,0.033,0.019,0.0199,-0.2102,0.1641,0.0307,-0.1687,0.0077,-0.0061,-0.2669,0.0353,-0.0368,-0.2117,-0.043,0.0261,-0.2577,0.1335,-0.0169,-0.158,-0.1089,0.0097,0.0156,0.0507,-0.0033,0.0114,-0.1039,0.0138,0.0256,0.0068,-0.0163,-0.0115,-0.0486,0.0002,0.0158,0.1035,-0.0021,-0.0035,0.0099,0.0667,-0.0835,-0.0003,-0.0306,-0.0291,0.0295,0.5835,0.1267,0.1,0.6049,0.1202,0.0736,0.5647,0.2434,-0.0249,0.5852,0.1106,0.0605,0.5662,0.285,-0.0009,0.6201,0.1038,0.0,0.0,-0.0072,0.0,0.0,0.0,0.0,0.0,0.0,
1.08,run,8.63,3.19,-1.15,-0.03,-0.52,-0.7,0.0,0.0,0.201,0.97,5.98,74.97,3.43,7.21,73.74,2.46,5.01,85.25,-0.88,6.86,73.65,1.93,5.19,90.18,-0.26,8.0,72.95,1.12,6.48,75.78,3.33,7.78,75.34,2.51,5.48,86.0,-0.67,6.69,74.44,2.26,5.8,89.44,-0.08,8.69,73.75,0.0321,0.5723,0.1268,0.095,0.596,0.1216,0.0716,0.5541,0.2471,-0.0192,0.5762,0.1111,0.0647,0.56,0.2875,-0.0022,0.6126,0.103,0.0,0.013,0.019,0.0,0.013,0.039,0.0,0.033,0.026,0.0,0.0,0.006,0.006,0.026,0.006,0.006,0.019,0.026,0.0199,-0.2102,0.1687,0.0307,-0.1687,0.0077,-0.0061,-0.2669,0.0353,-0.0353,-0.2117,-0.0276,0.0261,-0.2577,0.1365,-0.0169,-0.158,-0.0936,0.0068,0.0109,0.0527,-0.0023,0.008,-0.0727,0.0096,0.0179,0.0048,-0.0057,-0.0081,0.0236,0.0001,0.0111,0.0839,-0.0015,-0.0025,0.0645,0.0653,-0.0822,-0.004,-0.0071,0.0167,0.0305,0.579,0.1254,0.0978,0.6019,0.12,0.0735,0.5611,0.2473,-0.0227,0.5818,0.1118,0.063,0.5642,0.2909,-0.0015,0.6166,0.1038,0.0,0.0,-0.0144,0.0,0.0,0.0,0.0,0.0,0.0,
1.12,run,8.65,3.19,0.73,-0.1,0.79,-1.1,0.0,0.0,0.201,1.05,5.98,75.06,3.43,7.21,74.27,2.46,4.92,85.25,-0.79,6.86,74.18,1.93,5.19,89.65,-0.26,8.0,73.3,1.14,6.32,75.81,3.24,7.67,75.31,2.53,5.41,86.26,-0.55,6.56,74.43,2.31,5.7,90.03,-0.07,8.52,73.98,0.0324,0.5694,0.1272,0.0926,0.594,0.1213,0.0722,0.553,0.2501,-0.0157,0.5738,0.111,0.0659,0.5581,0.2945,-0.0021,0.6094,0.1056,0.0,0.013,0.019,0.0,0.013,0.039,0.0,0.033,0.026,0.0,0.0,0.006,0.006,0.026,0.006,0.006,0.019,0.026,0.0215,-0.2102,0.1687,0.0322,-0.1687,0.0169,-0.0061,-0.2669,0.0353,-0.0337,-0.2132,-0.0138,0.0307,-0.2577,0.135,-0.0169,-0.158,-0.0844,0.0105,0.0077,0.0369,0.0041,0.0056,-0.0164,0.0068,0.0125,0.0033,0.0018,-0.0114,0.0683,0.0174,0.0078,0.053,-0.001,-0.0017,0.0797,0.0606,-0.0812,-0.0201,-0.0006,-0.0091,0.0321,0.5723,0.1268,0.095,0.596,0.1216,0.0716,0.5541,0.2471,-0.0192,0.5762,0.1111,0.0647,0.56,0.2875,-0.0022,0.6126,0.103,0.0,0.0,-0.0216,0.0,0.0,0.0,0.0,0.0,0.0,
1.16,run,8.58,3.17,-1.66,-0.71,1.44,-1.4,0.0,0.0,0.201,1.05,5.98,75.06,3.6,7.21,74.44,2.46,4.75,85.25,-0.7,6.77,74.27,1.93,5.19,89.38,-0.26,8.0,73.3,1.18,6.34,76.23,3.23,7.58,75.78,2.53,5.47,86.42,-0.45,6.44,74.74,2.32,5.67,90.4,-0.13,8.4,74.5,0.0336,0.5698,0.1321,0.0923,0.5924,0.1268,0.0724,0.5539,0.252,-0.013,0.5716,0.1146,0.0664,0.5577,0.2988,-0.0038,0.6073,0.1117,0.0,0.013,0.019,0.0,0.013,0.039,0.0,0.033,0.026,0.0,0.0,0.006,0.006,0.026,0.006,0.006,0.019,0.026,0.023,-0.2102,0.1703,0.0322,-0.1687,0.0261,-0.0061,-0.2684,0.0353,-0.0322,-0.2132,-0.0046,0.0307,-0.2577,0.1258,-0.0169,-0.158,-0.0782,0.0131,0.0054,0.0316,0.0029,0.0039,0.023,0.0047,0.003,0.0023,0.007,-0.008,0.0823,0.0121,0.0054,0.0026,-0.0007,-0.0012,0.0788,0.0623,-0.0813,0.0127,-0.0018,0.0138,0.0324,0.5694,0.1272,0.0926,0.594,0.1213,0.0722,0.553,0.2501,-0.0157,0.5738,0.111,0.0659,0.5581,0.2945,-0.0021,0.6094,0.1056,0.0,0.0,-0.0288,0.0,0.0,0.0,0.0,0.0,0.0,
1.2,run,8.63,3.23,0.89,0.71,-2.15,-1.8,0.0,0.0,0.201,1.05,5.98,75.15,3.6,7.21,74.71,2.46,4.75,85.52,-0.44,6.68,74.44,1.93,5.19,89.38,-0.35,8.0,73.39,1.21,6.43,76.71,3.17,7.63,76.56,2.48,5.82,86.83,-0.44,6.4,75.55,2.31,5.91,91.4,-0.28,8.34,75.19,0.0345,0.5715,0.1378,0.0904,0.5932,0.136,0.0709,0.5604,0.2568,-0.0125,0.5709,0.1241,0.0659,0.5621,0.3106,-0.0079,0.6062,0.1199,0.006,0.006,0.026,0.006,0.006,0.071,0.0,0.065,0.026,0.0,0.0,0.006,0.013,0.033,0.033,0.0,0.006,0.039,0.023,-0.2102,0.1703,0.0353,-0.1687,0.0291,-0.0061,-0.2715,0.0353,-0.0307,-0.2148,-0.0031,0.0307,-0.2577,0.1212,-0.0169,-0.158,-0.0782,0.0092,0.0038,0.0221,0.0135,0.0027,0.0276,0.0033,-0.0094,0.0016,0.0106,-0.0113,0.0633,0.0085,0.0038,-0.0154,-0.0005,-0.0008,0.0551,0.056,-0.0826,-0.029,-0.0125,0.0251,0.0336,0.5698,0.1321,0.0923,0.5924,0.1268,0.0724,0.5539,0.252,-0.013,0.5716,0.1146,0.0664,0.5577,0.2988,-0.0038,0.6073,0.1117,0.0,0.0,-0.036,0.0,0.0,0.0,0.0,0.0,0.0,
1.24,run,8.63,3.23,-0.66,-0.22,-0.55,-2.2,0.0,0.0,0.201,1.14,5.98,75.5,3.43,7.21,75.15,2.46,4.75,85.69,-0.44,6.5,74.88,1.93,5.19,90.18,-0.35,8.0,73.65,1.24,6.5,77.11,3.07,7.54,77.16,2.61,5.84,87.08,-0.35,6.32,75.95,2.39,5.94,91.96,-0.29,8.25,75.94,0.0355,0.5727,0.1424,0.0877,0.5916,0.1431,0.0745,0.5607,0.2598,-0.0099,0.5695,0.1289,0.0682,0.5625,0.3172,-0.0082,0.6046,0.1287,0.006,0.006,0.026,0.006,0.006,0.071,0.0,0.065,0.026,0.0,0.0,0.006,0.013,0.033,0.033,0.0,0.006,0.039,0.023,-0.2102,0.1718,0.0353,-0.1687,0.0337,-0.0061,-0.2715,0.0399,-0.0261,-0.2163,0.0,0.0307,-0.2577,0.1212,-0.0184,-0.158,-0.0767,0.0064,0.0026,0.0212,0.0095,0.0019,0.0365,0.0023,-0.0066,0.0184,0.0247,-0.0137,0.0558,0.006,0.0027,-0.0108,-0.0061,-0.0006,0.0443,0.0607,-0.0775,0.0155,0.0123,-0.0375,0.0345,0.5715,0.1378,0.0904,0.5932,0.136,0.0709,0.5604,0.2568,-0.0125,0.5709,0.1241,0.0659,0.5621,0.3106,-0.0079,0.6062,0.1199,0.0,0.0,-0.0432,0.0,0.0,0.0,0.0,0.0,0.0,
1.28,run,8.66,3.18,0.53,-1.0,-0.52,-2.5,0.0,0.0,0.201,1.14,5.98,75.85,3.34,7.21,75.59,2.46,4.75,85.96,-0.44,6.5,75.32,1.93,5.19,90.7,-0.35,8.0,74.09,1.34,6.37,77.64,2.93,7.39,77.65,2.57,5.74,87.33,-0.31,6.27,76.36,2.46,5.86,92.24,-0.32,8.11,76.26,0.0383,0.5704,0.1486,0.0837,0.589,0.1488,0.0735,0.559,0.2628,-0.0088,0.5685,0.1336,0.0703,0.5611,0.3204,-0.0092,0.6021,0.1325,0.006,0.006,0.026,0.006,0.006,0.071,0.0,0.065,0.026,0.0,0.0,0.006,0.013,0.033,0.033,0.0,0.006,0.039,0.0245,-0.2102,0.1779,0.0322,-0.1687,0.0414,-0.0061,-0.2715,0.043,-0.0261,-0.2194,0.0077,0.0307,-0.2577,0.135,-0.0184,-0.158,-0.0721,0.0102,0.0018,0.0378,-0.0049,0.0013,0.0543,0.0016,-0.0046,0.0243,0.0173,-0.0211,0.0678,0.0042,0.0019,0.0441,-0.0043,-0.0004,0.0483,0.0607,-0.0775,-0.0116,-0.0038,-0.0095,0.0355,0.5727,0.1424,0.0877,0.5916,0.1431,0.0745,0.5607,0.2598,-0.0099,0.5695,0.1289,0.0682,0.5625,0.3172,-0.0082,0.6046,0.1287,0.0,0.0,-0.0504,0.0,0.0,0.0,0.0,0.0,0.0,
1.32,run,8.65,3.1,-0.14,-1.66,-0.17,-2.9,0.0,0.0,0.201,1.14,5.98,76.2,3.34,7.03,76.11,2.46,4.75,86.22,-0.35,6.33,75.85,2.02,5.19,91.32,-0.35,7.73,74.71,1.41,6.23,78.06,2.81,7.2,77.96,2.62,5.57,87.57,-0.21,6.16,76.53,2.54,5.67,92.48,-0.3,7.94,76.59,0.0404,0.5679,0.1537,0.0802,0.5854,0.1525,0.0748,0.5558,0.2655,-0.0061,0.5666,0.1356,0.0726,0.5577,0.3233,-0.0085,0.5989,0.1363,0.006,0.006,0.039,0.013,0.006,0.104,0.006,0.039,0.039,0.006,0.0,0.006,0.019,0.019,0.026,0.0,0.006,0.033,0.0245,-0.2102,0.1841,0.0307,-0.1687,0.0491,-0.0061,-0.2715,0.0476,-0.0261,-0.2194,0.0153,0.0307,-0.2577,0.1442,-0.0184,-0.158,-0.0644,0.0072,0.0013,0.0496,-0.0092,0.0009,0.0669,0.0011,-0.0032,0.0344,0.0121,-0.0147,0.0763,0.0029,0.0013,0.0655,-0.003,-0.0003,0.0627,0.0636,-0.0816,0.0092,-0.0175,-0.0091,0.0383,0.5704,0.1486,0.0837,0.589,0.1488,0.0735,0.559,0.2628,-0.0088,0.5685,0.1336,0.0703,0.5611,0.3204,-0.0092,0.6021,0.1325,0.0,0.0,-0.0576,0.0,0.0,0.0,0.0,0.0,0.0,
1.36,run,8.62,3.03,-0.91,-2.54,-0.29,-3.2,0.0,0.0,0.201,1.23,5.98,76.64,3.25,6.86,76.73,2.46,4.75,86.31,-0.26,6.24,76.29,2.2,5.19,91.76,-0.35,7.65,75.15,1.49,6.08,78.3,2.71,7.02,78.14,2.62,5.44,87.78,-0.16,6.07,76.61,2.63,5.56,92.87,-0.31,7.81,76.78,0.0425,0.5652,0.1565,0.0775,0.5822,0.1546,0.0748,0.5535,0.268,-0.0046,0.5648,0.1366,0.075,0.5556,0.3279,-0.009,0.5966,0.1385,0.006,0.006,0.039,0.013,0.006,0.104,0.006,0.039,0.039,0.006,0.0,0.006,0.019,0.019,0.026,0.0,0.006,0.033,0.0245,-0.2102,0.1902,0.0307,-0.1718,0.0583,-0.0061,-0.2715,0.0522,-0.0245,-0.2224,0.0245,0.0322,-0.2577,0.1549,-0.0184,-0.1626,-0.0537,0.005,0.0009,0.0576,-0.0064,-0.0108,0.0812,0.0008,-0.0023,0.0412,0.0142,-0.0218,0.0878,0.0078,0.0009,0.086,-0.0021,-0.0174,0.084,0.0628,-0.0885,-0.0025,-0.029,-0.003,0.0404,0.5679,0.1537,0.0802,0.5854,0.1525,0.0748,0.5558,0.2655,-0.0061,0.5666,0.1356,0.0726,0.5577,0.3233,-0.0085,0.5989,0.1363,0.0,0.0,-0.0648,0.0,0.0,0.0,0.0,0.0,0.0,
1.4,run,8.65,3.1,1.47,0.53,-0.39,-3.6,0.0,0.0,0.201,1.41,5.8,76.99,3.16,6.77,76.99,2.46,4.75,86.4,-0.26,6.24,76.46,2.29,5.19,92.11,-0.35,7.56,75.5,1.56,6.0,78.58,2.62,6.91,78.32,2.62,5.36,88.04,-0.11,5.96,76.83,2.68,5.45,93.38,-0.34,7.66,77.15,0.0445,0.5637,0.1597,0.0749,0.5803,0.1567,0.0748,0.5521,0.2711,-0.0031,0.5629,0.1392,0.0767,0.5535,0.3339,-0.0097,0.5938,0.1429,0.006,0.006,0.039,0.013,0.006,0.104,0.006,0.039,0.039,0.006,0.0,0.006,0.019,0.019,0.026,0.0,0.006,0.033,0.0261,-0.2102,0.1979,0.0291,-0.1749,0.069,-0.0061,-0.2715,0.0537,-0.023,-0.224,0.0322,0.0353,-0.2577,0.1626,-0.0184,-0.1641,-0.046,0.0092,0.0006,0.069,-0.0102,-0.019,0.0969,0.0006,-0.0016,0.0346,0.0157,-0.021,0.0901,0.0169,0.0006,0.0888,-0.0015,-0.0179,0.0874,0.0595,-0.095,-0.0158,-0.0443,-0.005,0.0425,0.5652,0.1565,0.0775,0.5822,0.1546,0.0748,0.5535,0.268,-0.0046,0.5648,0.1366,0.075,0.5556,0.3279,-0.009,0.5966,0.1385,0.0,0.0,-0.072,0.0,0.0,0.0,0.0,0.0,0.0,
1.44,run,8.59,3.11,-0.85,-0.15,-0.9,-4.0,0.0,0.0,0.201,1.41,5.71,77.34,3.08,6.59,77.26,2.46,4.75,86.66,-0.26,6.06,76.46,2.29,5.1,92.55,-0.35,7.29,75.85,1.56,5.92,78.9,2.61,6.75,78.87,2.71,5.28,88.32,-0.05,5.78,77.19,2.77,5.44,93.76,-0.33,7.58,77.65,0.0447,0.5621,0.1635,0.0746,0.5773,0.1632,0.0773,0.5505,0.2744,-0.0014,0.5596,0.1434,0.0791,0.5535,0.3384,-0.0094,0.5924,0.1488,0.006,0.006,0.033,0.006,0.006,0.117,0.006,0.019,0.039,0.006,0.006,0.019,0.019,0.013,0.033,0.0,0.006,0.039,0.0291,-0.2132,0.204,0.0276,-0.1764,0.0736,-0.0061,-0.2715,0.0552,-0.023,-0.224,0.0353,0.0368,-0.2577,0.1687,-0.0184,-0.1657,-0.0399,0.018,-0.0111,0.0714,-0.0129,-0.0191,0.0852,0.0004,-0.0011,0.03,0.011,-0.0147,0.0746,0.0176,0.0004,0.0853,-0.001,-0.0183,0.0843,0.0627,-0.0889,0.0256,0.0093,-0.0069,0.0445,0.5637,0.1597,0.0749,0.5803,0.1567,0.0748,0.5521,0.2711,-0.0031,0.5629,0.1392,0.0767,0.5535,0.3339,-0.0097,0.5938,0.1429,0.0,0.0,-0.0792,0.0,0.0,0.0,0.0,0.0,0.0,
1.48,run,8.54,3.1,-1.23,-0.51,-0.42,-4.3,0.0,0.0,0.201,1.41,5.62,77.61,3.08,6.42,77.43,2.46,4.75,86.84,-0.18,5.98,76.82,2.29,5.1,92.9,-0.35,7.29,76.2,1.6,5.96,79.33,2.52,6.73,79.56,2.66,5.44,88.82,-0.08,5.7,77.94,2.78,5.62,94.65,-0.43,7.51,78.24,0.0456,0.563,0.1686,0.0719,0.5769,0.1713,0.0759,0.5535,0.2802,-0.0024,0.5583,0.1523,0.0794,0.5567,0.3488,-0.0123,0.5911,0.1558,0.006,0.006,0.033,0.006,0.006,0.117,0.006,0.019,0.039,0.006,0.006,0.019,0.019,0.013,0.033,0.0,0.006,0.039,0.0291,-0.2148,0.2102,0.0261,-0.1795,0.0782,-0.0061,-0.2715,0.0598,-0.023,-0.227,0.0353,0.0368,-0.2592,0.1764,-0.0184,-0.1703,-0.0337,0.0126,-0.0135,0.073,-0.0148,-0.0249,0.0769,0.0003,-0.0008,0.0382,0.0077,-0.0218,0.0522,0.0123,-0.0054,0.0884,-0.0007,-0.03,0.082,0.0575,-0.0876,-0.0148,-0.0026,-0.0157,0.0447,0.5621,0.1635,0.0746,0.5773,0.1632,0.0773,0.5505,0.2744,-0.0014,0.5596,0.1434,0.0791,0.5535,0.3384,-0.0094,0.5924,0.1488,0.0,0.0,-0.0864,0.0,0.0,0.0,0.0,0.0,0.0,
1.52,run,8.59,3.11,1.11,0.07,-1.46,-4.7,0.0,0.0,0.201,1.41,5.62,77.87,3.08,6.33,77.78,2.46,4.75,87.1,-0.18,5.89,77.08,2.29,5.1,93.25,-0.35,7.21,76.55,1.65,5.82,79.74,2.38,6.58,80.09,2.63,5.37,89.04,-0.04,5.54,78.43,2.81,5.57,94.96,-0.49,7.35,78.74,0.0472,0.5604,0.1734,0.0679,0.5741,0.1775,0.075,0.5521,0.2828,-0.0011,0.5552,0.158,0.0802,0.5557,0.3525,-0.014,0.5881,0.1617,0.006,0.006,0.033,0.006,0.006,0.117,0.006,0.019,0.039,0.006,0.006,0.019,0.019,0.013,0.033,0.0,0.006,0.039,0.0291,-0.2163,0.2148,0.0261,-0.1825,0.0813,-0.0061,-0.2715,0.0629,-0.0215,-0.2286,0.0414,0.0368,-0.2592,0.1825,-0.0184,-0.1703,-0.0276,0.0088,-0.0153,0.0684,-0.0104,-0.029,0.0654,0.0002,-0.0005,0.0383,0.0112,-0.021,0.0597,0.0086,-0.0038,0.0851,-0.0005,-0.021,0.0806,0.0533,-0.0891,-0.0214,-0.009,-0.0074,0.0456,0.563,0.1686,0.0719,0.5769,0.1713,0.0759,0.5535,0.2802,-0.0024,0.5583,0.1523,0.0794,0.5567,0.3488,-0.0123,0.5911,0.1558,0.0,0.0,-0.0936,0.0,0.0,0.0,0.0,0.0,0.0,
1.56,run,8.51,3.03,-2.76,-1.83,-0.13,-5.0,0.0,0.0,0.201,1.49,5.62,78.31,2.99,6.33,78.4,2.46,4.75,87.36,-0.18,5.62,77.61,2.29,5.1,93.78,-0.53,6.94,77.08,1.68,5.73,80.16,2.3,6.38,80.54,2.71,5.26,89.35,0.03,5.39,78.69,2.87,5.47,95.38,-0.47,7.21,79.25,0.048,0.5587,0.1783,0.0656,0.5706,0.1828,0.0774,0.5503,0.2864,0.0009,0.5525,0.1611,0.0819,0.554,0.3574,-0.0134,0.5856,0.1677,0.0,0.0,0.052,0.013,0.0,0.084,0.006,0.019,0.065,0.006,0.0,0.013,0.033,0.013,0.026,0.0,0.0,0.065,0.0291,-0.2163,0.2194,0.0261,-0.1841,0.0874,-0.0061,-0.2715,0.0675,-0.0215,-0.2301,0.046,0.0368,-0.2592,0.1887,-0.0184,-0.1718,-0.0215,0.0062,-0.0107,0.0651,-0.0073,-0.026,0.0686,0.0001,-0.0004,0.044,0.0078,-0.0204,0.059,0.006,-0.0027,0.0824,-0.0004,-0.0204,0.0793,0.0576,-0.0884,0.0193,0.0011,-0.0255,0.0472,0.5604,0.1734,0.0679,0.5741,0.1775,0.075,0.5521,0.2828,-0.0011,0.5552,0.158,0.0802,0.5557,0.3525,-0.014,0.5881,0.1617,0.0,0.0,-0.1008,0.0,0.0,0.0,0.0,0.0,0.0,
1.6,run,8.53,2.93,0.74,-3.24,-2.89,-5.4,0.0,0.0,0.201,1.49,5.45,78.66,2.81,5.98,79.01,2.55,4.75,87.71,0.0,5.54,78.22,2.29,5.1,94.31,-0.53,6.94,77.61,1.75,5.6,80.65,2.11,6.27,80.9,2.6,5.22,89.64,0.04,5.3,79.15,2.88,5.44,95.87,-0.54,7.05,79.53,0.0499,0.5563,0.1841,0.0602,0.5685,0.1871,0.0742,0.5494,0.2899,0.001,0.5509,0.1664,0.0822,0.5535,0.3631,-0.0154,0.5828,0.1709,0.0,0.0,0.052,0.013,0.0,0.084,0.006,0.019,0.065,0.006,0.0,0.013,0.033,0.013,0.026,0.0,0.0,0.065,0.0307,-0.2163,0.227,0.0245,-0.1841,0.0982,-0.0061,-0.2715,0.0721,-0.0215,-0.2347,0.0552,0.0368,-0.2592,0.1979,-0.0215,-0.1764,-0.0123,0.0101,-0.0075,0.0743,-0.0108,-0.0182,0.0883,0.0001,-0.0003,0.0481,0.0055,-0.0316,0.0758,0.0042,-0.0019,0.0922,-0.0118,-0.0316,0.09,0.0506,-0.0948,-0.0482,-0.0319,-0.0022,0.048,0.5587,0.1783,0.0656,0.5706,0.1828,0.0774,0.5503,0.2864,0.0009,0.5525,0.1611,0.0819,0.554,0.3574,-0.0134,0.5856,0.1677,0.0,0.0,-0.108,0.0,0.0,0.0,0.0,0.0,0.0,
1.64,run,8.6,2.97,2.31,0.87,1.85,-5.8,0.0,0.0,0.201,1.49,5.36,79.01,2.72,5.8,79.45,2.55,4.75,87.89,0.0,5.36,78.57,2.37,5.1,94.66,-0.53,6.77,78.05,1.83,5.53,80.88,2.02,6.09,80.95,2.71,4.96,89.84,0.13,5.21,79.03,2.99,5.1,96.22,-0.47,6.87,80.01,0.0522,0.5551,0.1868,0.0577,0.5653,0.1876,0.0775,0.5448,0.2922,0.0037,0.5492,0.1651,0.0854,0.5472,0.3673,-0.0136,0.5795,0.1766,0.0,0.0,0.052,0.013,0.0,0.084,0.006,0.019,0.065,0.006,0.0,0.013,0.033,0.013,0.026,0.0,0.0,0.065,0.0307,-0.2194,0.2332,0.0215,-0.1902,0.1089,-0.0046,-0.2715,0.0782,-0.0184,-0.2362,0.066,0.0368,-0.2592,0.2071,-0.0215,-0.1764,-0.0031,0.0071,-0.0167,0.0749,-0.019,-0.0356,0.1019,0.0058,-0.0002,0.0565,0.0153,-0.0278,0.0931,0.003,-0.0013,0.0989,-0.0082,-0.0221,0.0973,0.0522,-0.1038,0.0129,-0.0566,-0.0504,0.0499,0.5563,0.1841,0.0602,0.5685,0.1871,0.0742,0.5494,0.2899,0.001,0.5509,0.1664,0.0822,0.5535,0.3631,-0.0154,0.5828,0.1709,0.0,0.0,-0.1152,0.0,0.0,0.0,0.0,0.0,0.0,
1.68,run,8.47,2.88,-3.06,-3.27,2.84,-6.1,0.0,0.0,0.201,1.85,5.19,79.45,2.55,5.62,79.54,2.55,4.31,88.15,0.0,5.27,78.93,2.46,4.48,95.19,-0.53,6.5,78.49,1.86,5.29,81.28,2.07,5.86,81.5,2.72,4.82,89.97,0.13,4.95,79.34,3.06,5.07,96.28,-0.45,6.78,80.3,0.053,0.5507,0.1916,0.0591,0.5611,0.1941,0.0776,0.5422,0.2937,0.0036,0.5445,0.1687,0.0875,0.5467,0.368,-0.0128,0.5779,0.18,0.0,0.0,0.045,0.006,0.006,0.149,0.0,0.033,0.111,0.0,0.0,0.013,0.033,0.078,0.039,0.0,0.0,0.039,0.0307,-0.2209,0.2393,0.0199,-0.1933,0.1166,-0.0046,-0.2715,0.0813,-0.0184,-0.2393,0.0721,0.0383,-0.2592,0.2132,-0.0215,-0.1795,0.0046,0.0049,-0.0175,0.0756,-0.0191,-0.0365,0.1002,0.0041,-0.0001,0.0511,0.0107,-0.031,0.0883,0.0079,-0.0009,0.0924,-0.0058,-0.027,0.0971,0.0583,-0.1,0.0404,0.0151,0.0323,0.0522,0.5551,0.1868,0.0577,0.5653,0.1876,0.0775,0.5448,0.2922,0.0037,0.5492,0.1651,0.0854,0.5472,0.3673,-0.0136,0.5795,0.1766,0.0,0.0,-0.1224,0.0,0.0,0.0,0.0,0.0,0.0,
1.72,run,8.54,2.88,2.31,-0.46,-3.51,-6.5,0.0,0.0,0.201,1.85,5.1,79.8,2.55,5.45,79.8,2.55,4.22,88.24,0.18,5.01,79.19,2.46,4.22,95.54,-0.53,6.42,78.93,1.91,5.17,81.92,1.9,5.82,82.09,2.51,4.94,90.46,0.15,4.89,80.14,2.98,5.13,97.23,-0.63,6.62,80.6,0.0546,0.5486,0.1991,0.0544,0.5604,0.201,0.0718,0.5444,0.2995,0.0043,0.5435,0.1781,0.0851,0.5479,0.3792,-0.0181,0.5749,0.1836,0.0,0.0,0.045,0.006,0.006,0.149,0.0,0.033,0.111,0.0,0.0,0.013,0.033,0.078,0.039,0.0,0.0,0.039,0.0368,-0.224,0.247,0.0169,-0.1963,0.1181,-0.0046,-0.2792,0.0859,-0.0184,-0.2408,0.0782,0.0399,-0.27,0.2224,-0.0215,-0.1841,0.0123,0.0265,-0.0237,0.0817,-0.0249,-0.0371,0.0759,0.0028,-0.0288,0.053,0.0075,-0.0275,0.0848,0.0112,-0.0409,0.0991,-0.004,-0.0362,0.0967,0.0471,-0.1083,-0.0534,-0.0571,0.0496,0.053,0.5507,0.1916,0.0591,0.5611,0.1941,0.0776,0.5422,0.2937,0.0036,0.5445,0.1687,0.0875,0.5467,0.368,-0.0128,0.5779,0.18,0.0,0.0,-0.1296,0.0,0.0,0.0,0.0,0.0,0.0,
1.76,run,8.47,2.89,-1.47,-0.03,0.29,-6.8,0.0,0.0,0.201,1.85,4.83,80.07,2.37,5.45,80.42,2.55,4.22,88.51,0.09,5.01,79.28,2.46,4.22,95.62,-0.53,6.42,79.19,1.89,5.06,82.0,1.82,5.57,82.24,2.73,4.62,90.67,0.27,4.67,80.1,3.06,4.89,97.59,-0.55,6.46,81.19,0.0539,0.5466,0.2,0.052,0.5558,0.2028,0.0779,0.5386,0.302,0.0078,0.5395,0.1776,0.0875,0.5434,0.3834,-0.0158,0.5719,0.1905,0.0,0.0,0.045,0.006,0.006,0.149,0.0,0.033,0.111,0.0,0.0,0.013,0.033,0.078,0.039,0.0,0.0,0.039,0.0368,-0.2255,0.2531,0.0169,-0.1994,0.1227,-0.0046,-0.2807,0.0874,-0.0153,-0.2454,0.0828,0.0399,-0.2746,0.2286,-0.0215,-0.1856,0.0199,0.0185,-0.0224,0.0802,-0.0174,-0.0374,0.0704,0.002,-0.0259,0.0429,0.0167,-0.0365,0.0766,0.0079,-0.0459,0.0924,-0.0028,-0.0311,0.0964,0.0526,-0.1082,0.0402,-0.0081,-0.0612,0.0546,0.5486,0.1991,0.0544,0.5604,0.201,0.0718,0.5444,0.2995,0.0043,0.5435,0.1781,0.0851,0.5479,0.3792,-0.0181,0.5749,0.1836,0.0,0.0,-0.1368,0.0,0.0,0.0,0.0,0.0,0.0,
1.8,run,8.47,2.93,-1.08,0.75,0.5,-7.2,0.0,0.0,0.201,1.85,4.75,80.51,2.37,5.19,80.95,2.55,4.13,88.86,0.09,4.83,79.72,2.46,4.22,96.15,-0.53,5.98,79.45,1.91,4.93,82.66,1.74,5.49,82.92,2.62,4.72,91.11,0.21,4.45,81.03,3.03,4.9,98.16,-0.58,6.23,81.73,0.0546,0.5442,0.2078,0.0497,0.5544,0.2108,0.0748,0.5404,0.3072,0.0061,0.5355,0.1886,0.0865,0.5437,0.3901,-0.0164,0.5678,0.1968,0.0,0.006,0.039,0.013,0.013,0.111,0.006,0.039,0.071,0.006,0.006,0.006,0.026,0.026,0.065,0.0,0.013,0.058,0.0368,-0.2301,0.2577,0.0138,-0.1994,0.1335,-0.0046,-0.2807,0.092,-0.0169,-0.2454,0.0844,0.0399,-0.2746,0.2301,-0.0215,-0.1856,0.0245,0.013,-0.0329,0.0734,-0.0237,-0.0262,0.0896,0.0014,-0.0182,0.0473,0.006,-0.0255,0.0594,0.0055,-0.0321,0.0704,-0.002,-0.0218,0.0848,0.0469,-0.1072,-0.0257,-0.0006,0.005,0.0539,0.5466,0.2,0.052,0.5558,0.2028,0.0779,0.5386,0.302,0.0078,0.5395,0.1776,0.0875,0.5434,0.3834,-0.0158,0.5719,0.1905,0.0,0.0,-0.144,0.0,0.0,0.0,0.0,0.0,0.0,
1.84,run,8.57,2.93,2.31,0.17,-3.26,-7.6,0.0,0.0,0.201,1.85,4.66,80.95,2.2,5.01,81.3,2.55,4.04,89.21,0.18,4.57,80.07,2.46,4.22,96.77,-0.53,5.89,79.98,1.94,4.74,82.98,1.64,5.28,83.32,2.61,4.59,91.37,0.24,4.25,81.3,3.06,4.82,98.47,-0.61,6.05,82.12,0.0554,0.5408,0.2116,0.0468,0.5505,0.2155,0.0746,0.538,0.3102,0.0068,0.5318,0.1918,0.0874,0.5422,0.3938,-0.0174,0.5645,0.2014,0.0,0.006,0.039,0.013,0.013,0.111,0.006,0.039,0.071,0.006,0.006,0.006,0.026,0.026,0.065,0.0,0.013,0.058,0.0368,-0.2316,0.2654,0.0138,-0.204,0.1427,-0.0046,-0.2823,0.0982,-0.0169,-0.2485,0.092,0.0399,-0.2746,0.2393,-0.0215,-0.1933,0.0291,0.0091,-0.0288,0.0801,-0.0166,-0.0356,0.0972,0.001,-0.0185,0.0561,0.0042,-0.0294,0.0703,0.0039,-0.0225,0.0838,-0.0014,-0.044,0.0766,0.0465,-0.1034,-0.0188,0.0131,0.0087,0.0546,0.5442,0.2078,0.0497,0.5544,0.2108,0.0748,0.5404,0.3072,0.0061,0.5355,0.1886,0.0865,0.5437,0.3901,-0.0164,0.5678,0.1968,0.0,0.0,-0.1512,0.0,0.0,0.0,0.0,0.0,0.0,
1.88,run,8.49,2.84,-1.61,-2.17,-0.33,-7.9,0.0,0.0,0.201,1.85,4.48,81.3,2.2,5.01,81.56,2.55,4.04,89.47,0.09,4.39,80.6,2.46,4.22,97.21,-0.53,5.71,80.33,1.98,4.71,83.35,1.54,5.06,83.52,2.74,4.36,91.77,0.28,4.14,81.36,3.15,4.57,98.92,-0.54,5.9,82.64,0.0566,0.5401,0.2158,0.044,0.5465,0.2179,0.0783,0.5339,0.3149,0.008,0.5299,0.1925,0.09,0.5377,0.399,-0.0154,0.5618,0.2075,0.0,0.006,0.039,0.013,0.013,0.111,0.006,0.039,0.071,0.006,0.006,0.006,0.026,0.026,0.065,0.0,0.013,0.058,0.0368,-0.2332,0.273,0.0107,-0.2071,0.1488,-0.0046,-0.2838,0.1043,-0.0153,-0.2531,0.0982,0.0399,-0.2746,0.25,-0.0215,-0.1948,0.0383,0.0064,-0.0259,0.0848,-0.0231,-0.0364,0.091,0.0007,-0.0187,0.0623,0.0087,-0.0378,0.0722,0.0027,-0.0157,0.0989,-0.001,-0.0365,0.0881,0.0551,-0.1035,0.0402,0.003,-0.057,0.0554,0.5408,0.2116,0.0468,0.5505,0.2155,0.0746,0.538,0.3102,0.0068,0.5318,0.1918,0.0874,0.5422,0.3938,-0.0174,0.5645,0.2014,0.0,0.0,-0.1584,0.0,0.0,0.0,0.0,0.0,0.0,
1.92,run,8.44,2.81,-1.38,-2.06,0.83,-8.3,0.0,0.0,0.201,1.85,4.39,81.74,2.11,4.66,82.0,2.55,3.87,89.74,0.18,4.22,81.04,2.55,3.96,97.65,-0.53,5.36,80.86,2.04,4.53,84.04,1.39,4.91,84.08,2.61,4.39,92.12,0.24,4.02,82.04,3.12,4.55,99.39,-0.6,5.69,83.01,0.0583,0.5368,0.224,0.0397,0.5437,0.2244,0.0745,0.5344,0.3191,0.0068,0.5277,0.2005,0.0891,0.5373,0.4046,-0.0171,0.5579,0.2119,0.006,0.0,0.065,0.019,0.013,0.117,0.0,0.039,0.091,0.0,0.0,0.013,0.013,0.058,0.052,0.0,0.006,0.071,0.0368,-0.2362,0.2792,0.0107,-0.2071,0.1534,-0.0046,-0.2838,0.1089,-0.0169,-0.2562,0.1074,0.0399,-0.2746,0.2577,-0.0215,-0.1979,0.0445,0.0044,-0.0288,0.0807,-0.0162,-0.0255,0.0797,0.0005,-0.0131,0.0596,0.0007,-0.0371,0.0825,0.0019,-0.011,0.0959,-0.0007,-0.0362,0.083,0.0482,-0.1113,-0.0281,-0.0379,-0.0057,0.0566,0.5401,0.2158,0.044,0.5465,0.2179,0.0783,0.5339,0.3149,0.008,0.5299,0.1925,0.09,0.5377,0.399,-0.0154,0.5618,0.2075,0.0,0.0,-0.1656,0.0,0.0,0.0,0.0,0.0,0.0,
1.96,run,8.48,2.83,0.93,0.36,-1.4,-8.6,0.0,0.0,0.201,1.85,4.22,82.18,2.02,4.48,82.44,2.55,3.69,90.09,0.18,4.13,81.21,2.64,3.78,98.17,-0.53,5.36,81.21,2.08,4.29,84.37,1.3,4.7,84.43,2.54,4.19,92.3,0.28,3.8,82.33,3.13,4.38,99.6,-0.65,5.5,83.32,0.0593,0.5326,0.2279,0.037,0.5401,0.2286,0.0725,0.5308,0.3212,0.008,0.5236,0.2039,0.0893,0.5342,0.4071,-0.0187,0.5545,0.2155,0.006,0.0,0.065,0.019,0.013,0.117,0.0,0.039,0.091,0.0,0.0,0.013,0.013,0.058,0.052,0.0,0.006,0.071,0.0368,-0.2378,0.2869,0.0092,-0.2132,0.1611,-0.0046,-0.2869,0.1135,-0.0153,-0.2592,0.115,0.0414,-0.2792,0.2654,-0.0215,-0.204,0.0537,0.0031,-0.0265,0.088,-0.0176,-0.0431,0.0873,0.0003,-0.0218,0.0606,0.0068,-0.0386,0.0893,0.0076,-0.0266,0.0987,-0.0005,-0.0506,0.0959,0.044,-0.1139,-0.0241,-0.036,0.0146,0.0583,0.5368,0.224,0.0397,0.5437,0.2244,0.0745,0.5344,0.3191,0.0068,0.5277,0.2005,0.0891,0.5373,0.4046,-0.0171,0.5579,0.2119,0.0,0.0,-0.1728,0.0,0.0,0.0,0.0,0.0,0.0,
2.0,run,8.38,2.79,-1.96,-0.9,-0.93,-9.0,0.0,0.0,0.201,1.85,4.04,82.62,2.02,4.31,82.88,2.55,3.6,90.26,0.18,3.96,81.74,2.64,3.78,98.44,-0.53,5.27,81.56,2.06,4.12,84.71,1.24,4.49,84.75,2.64,4.02,92.69,0.31,3.57,82.63,3.18,4.18,100.03,-0.57,5.29,83.83,0.0589,0.5295,0.2318,0.0355,0.5362,0.2323,0.0755,0.5277,0.3258,0.0089,0.5195,0.2075,0.0908,0.5306,0.4122,-0.0164,0.5507,0.2216,0.006,0.0,0.065,0.019,0.013,0.117,0.0,0.039,0.091,0.0,0.0,0.013,0.013,0.058,0.052,0.0,0.006,0.071,0.0368,-0.2408,0.2945,0.0077,-0.2163,0.1687,-0.0046,-0.2899,0.1197,-0.0153,-0.2608,0.1181,0.043,-0.2823,0.2746,-0.0215,-0.204,0.0598,0.0022,-0.0301,0.0904,-0.0181,-0.0417,0.09,0.0002,-0.0268,0.0655,0.0048,-0.0328,0.074,0.0111,-0.0302,0.1036,-0.0003,-0.0354,0.0902,0.0472,-0.1121,0.0163,0.0062,-0.0245,0.0593,0.5326,0.2279,0.037,0.5401,0.2286,0.0725,0.5308,0.3212,0.008,0.5236,0.2039,0.0893,0.5342,0.4071,-0.0187,0.5545,0.2155,0.0,0.0,-0.18,0.0,0.0,0.0,0.0,0.0,0.0,
2.04,run,8.34,2.8,-0.5,-0.47,0.85,-9.4,0.0,0.0,0.201,1.85,3.69,83.14,1.76,4.13,83.32,2.55,3.34,90.62,0.26,3.6,82.18,2.64,3.43,98.53,-0.53,4.83,82.0,2.11,3.98,85.2,1.1,4.37,85.14,2.54,3.99,93.06,0.29,3.42,83.21,3.14,4.08,100.55,-0.61,5.03,84.3,0.0602,0.527,0.2377,0.0314,0.534,0.237,0.0726,0.5272,0.3301,0.0082,0.5167,0.2142,0.0897,0.5287,0.4182,-0.0175,0.5459,0.2271,0.006,0.0,0.065,0.013,0.006,0.104,0.0,0.039,0.13,0.006,0.0,0.013,0.026,0.045,0.065,0.0,0.0,0.058,0.0368,-0.2439,0.3022,0.0077,-0.2194,0.1764,-0.0046,-0.2915,0.1227,-0.0153,-0.2638,0.1273,0.043,-0.2823,0.2792,-0.0215,-0.2056,0.066,0.0015,-0.0324,0.0918,-0.0127,-0.0406,0.0915,0.0002,-0.0244,0.0573,0.0033,-0.0344,0.086,0.0078,-0.0211,0.0897,-0.0002,-0.0305,0.086,0.0387,-0.1162,-0.0342,-0.0156,-0.0162,0.0589,0.5295,0.2318,0.0355,0.5362,0.2323,0.0755,0.5277,0.3258,0.0089,0.5195,0.2075,0.0908,0.5306,0.4122,-0.0164,0.5507,0.2216,0.0,0.0,-0.1872,0.0,0.0,0.0,0.0,0.0,0.0,
2.08,run,8.33,2.77,-0.88,-0.29,-0.11,-9.7,0.0,0.0,0.201,1.85,3.69,83.58,1.58,3.87,83.5,2.55,3.16,90.97,0.26,3.43,82.53,2.64,3.25,99.23,-0.53,4.75,82.44,2.11,3.79,85.71,1.03,4.16,85.65,2.47,3.8,93.25,0.3,3.16,83.66,3.12,3.91,100.75,-0.66,4.86,84.8,0.0604,0.5234,0.2436,0.0295,0.5303,0.2429,0.0705,0.5237,0.3324,0.0087,0.512,0.2196,0.0891,0.5256,0.4206,-0.0189,0.5429,0.2329,0.006,0.0,0.065,0.013,0.006,0.104,0.0,0.039,0.13,0.006,0.0,0.013,0.026,0.045,0.065,0.0,0.0,0.058,0.0368,-0.25,0.3114,0.0031,-0.2224,0.1841,-0.0046,-0.2961,0.1289,-0.0138,-0.27,0.135,0.043,-0.2884,0.2807,-0.0215,-0.2132,0.0736,0.0011,-0.0458,0.0989,-0.0262,-0.04,0.0929,0.0001,-0.0344,0.0632,0.0081,-0.0471,0.0891,0.0054,-0.0379,0.0685,-0.0002,-0.0502,0.089,0.0355,-0.1154,-0.0088,-0.0082,0.0148,0.0602,0.527,0.2377,0.0314,0.534,0.237,0.0726,0.5272,0.3301,0.0082,0.5167,0.2142,0.0897,0.5287,0.4182,-0.0175,0.5459,0.2271,0.0,0.0,-0.1944,0.0,0.0,0.0,0.0,0.0,0.0,
2.12,run,8.35,2.79,0.79,1.03,-2.49,-10.1,0.0,0.0,0.201,1.85,3.43,83.94,1.49,3.87,83.85,2.55,3.16,91.23,0.26,3.34,82.97,2.64,3.08,99.49,-0.53,4.39,82.88,2.14,3.57,86.14,0.91,3.95,86.05,2.45,3.63,93.64,0.31,3.01,84.1,3.13,3.74,101.07,-0.65,4.63,85.19,0.0611,0.5195,0.2487,0.026,0.5264,0.2476,0.07,0.5205,0.3369,0.0087,0.5092,0.2247,0.0895,0.5226,0.4243,-0.0187,0.5387,0.2375,0.006,0.0,0.065,0.013,0.006,0.104,0.0,0.039,0.13,0.006,0.0,0.013,0.026,0.045,0.065,0.0,0.0,0.058,0.0368,-0.25,0.3191,0.0,-0.227,0.1871,-0.0046,-0.2991,0.135,-0.0138,-0.273,0.1411,0.043,-0.2915,0.293,-0.0215,-0.2148,0.0813,0.0007,-0.0321,0.0979,-0.0298,-0.0452,0.0765,0.0001,-0.0356,0.0672,0.0057,-0.0445,0.0853,0.0038,-0.038,0.0939,-0.0001,-0.0409,0.091,0.0342,-0.1173,-0.0153,-0.005,-0.002,0.0604,0.5234,0.2436,0.0295,0.5303,0.2429,0.0705,0.5237,0.3324,0.0087,0.512,0.2196,0.0891,0.5256,0.4206,-0.0189,0.5429,0.2329,0.0,0.0,-0.2016,0.0,0.0,0.0,0.0,0.0,0.0,
2.16,run,8.35,2.73,0.35,-1.67,1.31,-10.4,0.0,0.0,0.201,1.85,3.34,84.38,1.41,3.43,84.46,2.55,2.9,91.58,0.26,2.99,83.41,2.64,2.9,99.76,-0.53,4.31,83.41,2.1,3.42,86.53,0.84,3.7,86.46,2.51,3.45,94.01,0.34,2.77,84.44,3.15,3.59,101.46,-0.62,4.43,85.75,0.06,0.5168,0.2533,0.024,0.5218,0.2524,0.0716,0.5173,0.3413,0.0098,0.5049,0.2287,0.0899,0.5198,0.429,-0.0177,0.535,0.2441,0.006,0.0,0.045,0.013,0.013,0.117,0.0,0.033,0.149,0.0,0.0,0.026,0.026,0.026,0.065,0.0,0.0,0.065,0.0368,-0.2546,0.3252,-0.0015,-0.227,0.1933,-0.0046,-0.2991,0.1396,-0.0138,-0.2746,0.1488,0.043,-0.2945,0.2976,-0.0215,-0.2209,0.089,0.0005,-0.0398,0.0916,-0.0266,-0.0316,0.0766,0.0001,-0.0249,0.0643,0.004,-0.0369,0.0886,0.0027,-0.0381,0.083,-0.0001,-0.0517,0.0926,0.0361,-0.1157,0.0139,0.0181,-0.0435,0.0611,0.5195,0.2487,0.026,0.5264,0.2476,0.07,0.5205,0.3369,0.0087,0.5092,0.2247,0.0895,0.5226,0.4243,-0.0187,0.5387,0.2375,0.0,0.0,-0.2088,0.0,0.0,0.0,0.0,0.0,0.0,
2.2,run,8.36,2.67,-0.53,-2.42,-2.22,-10.8,0.0,0.0,0.201,1.85,3.08,84.9,1.41,3.16,84.9,2.55,2.55,91.85,0.26,2.9,83.85,2.64,2.9,100.2,-0.62,4.13,83.85,2.2,3.23,87.14,0.72,3.54,86.8,2.38,3.32,94.25,0.31,2.62,84.86,3.11,3.37,101.66,-0.64,4.21,86.05,0.0628,0.5133,0.2605,0.0207,0.519,0.2564,0.0681,0.5148,0.3441,0.0088,0.5021,0.2337,0.0888,0.5158,0.4313,-0.0183,0.5311,0.2477,0.006,0.0,0.045,0.013,0.013,0.117,0.0,0.033,0.149,0.0,0.0,0.026,0.026,0.026,0.065,0.0,0.0,0.065,0.0368,-0.2562,0.3329,-0.0031,-0.2347,0.204,-0.0046,-0.3037,0.1457,-0.0138,-0.2807,0.1565,0.043,-0.2976,0.3022,-0.0215,-0.2224,0.0982,0.0004,-0.0336,0.0928,-0.0244,-0.0508,0.0938,0.0,-0.0346,0.068,0.0028,-0.0488,0.0907,0.0019,-0.0382,0.0753,-0.0001,-0.0419,0.0992,0.0361,-0.1212,0.0061,-0.0291,0.0228,0.06,0.5168,0.2533,0.024,0.5218,0.2524,0.0716,0.5173,0.3413,0.0098,0.5049,0.2287,0.0899,0.5198,0.429,-0.0177,0.535,0.2441,0.0,0.0,-0.216,0.0,0.0,0.0,0.0,0.0,0.0,
2.24,run,8.42,2.67,1.74,-0.17,0.25,-11.2,0.0,0.0,0.201,1.85,2.99,85.25,1.32,2.9,85.34,2.55,2.55,92.11,0.26,2.72,84.2,2.64,2.9,100.28,-0.62,3.78,84.29,2.2,3.15,87.45,0.61,3.36,87.02,2.4,3.22,94.68,0.3,2.46,85.14,3.11,3.19,102.3,-0.6,3.95,86.48,0.0627,0.5118,0.2641,0.0175,0.5157,0.259,0.0685,0.5131,0.3492,0.0086,0.4993,0.2369,0.0889,0.5125,0.4388,-0.0172,0.5264,0.2527,0.006,0.0,0.045,0.013,0.013,0.117,0.0,0.033,0.149,0.0,0.0,0.026,0.026,0.026,0.065,0.0,0.0,0.065,0.0368,-0.2608,0.3421,-0.0031,-0.2393,0.2117,-0.0046,-0.3099,0.1503,-0.0138,-0.2823,0.1641,0.043,-0.2976,0.3099,-0.023,-0.2255,0.1058,0.0003,-0.0408,0.0996,-0.0171,-0.0529,0.0945,0.0,-0.0473,0.0649,0.0019,-0.0399,0.0923,0.0013,-0.0267,0.0816,-0.0058,-0.0409,0.0983,0.0368,-0.1267,-0.0092,-0.0422,-0.0387,0.0628,0.5133,0.2605,0.0207,0.519,0.2564,0.0681,0.5148,0.3441,0.0088,0.5021,0.2337,0.0888,0.5158,0.4313,-0.0183,0.5311,0.2477,0.0,0.0,-0.2232,0.0,0.0,0.0,0.0,0.0,0.0,
2.28,run,8.23,2.69,-4.25,-0.26,0.8,-11.5,0.0,0.0,0.201,2.11,2.81,85.69,1.14,2.81,85.61,2.55,2.55,92.29,0.26,2.46,84.64,2.64,2.55,100.63,-0.62,3.6,84.73,2.21,2.89,87.81,0.6,3.05,87.41,2.39,2.97,94.83,0.31,2.14,85.45,3.15,3.0,102.29,-0.58,3.76,86.93,0.0631,0.5071,0.2683,0.0173,0.51,0.2636,0.0684,0.5085,0.3509,0.009,0.4934,0.2406,0.0899,0.5092,0.4387,-0.0166,0.5229,0.258,0.0,0.0,0.045,0.013,0.0,0.169,0.006,0.013,0.117,0.0,0.006,0.013,0.026,0.045,0.104,0.0,0.006,0.058,0.0368,-0.2623,0.3482,-0.0046,-0.2439,0.2194,-0.0046,-0.3099,0.1549,-0.0138,-0.2853,0.1703,0.043,-0.2976,0.3114,-0.023,-0.2316,0.1135,0.0002,-0.0343,0.0927,-0.0177,-0.0542,0.0949,0.0,-0.0331,0.0627,0.0014,-0.0394,0.0876,0.0009,-0.0187,0.0628,-0.0041,-0.0516,0.0975,0.0425,-0.1261,0.0304,-0.003,0.0044,0.0627,0.5118,0.2641,0.0175,0.5157,0.259,0.0685,0.5131,0.3492,0.0086,0.4993,0.2369,0.0889,0.5125,0.4388,-0.0172,0.5264,0.2527,0.0,0.0,-0.2304,0.0,0.0,0.0,0.0,0.0,0.0,
2.32,run,8.2,2.53,-1.5,-4.32,-0.07,-11.9,0.0,0.0,0.201,2.02,2.64,86.22,1.05,2.64,85.78,2.55,2.29,92.64,0.35,2.2,84.99,2.64,2.11,101.16,-0.62,3.34,85.25,2.2,2.71,88.51,0.44,2.97,88.09,2.17,2.96,95.37,0.26,2.01,86.52,3.02,3.0,102.9,-0.68,3.48,87.4,0.0629,0.5038,0.2766,0.0127,0.5086,0.2717,0.0621,0.5084,0.3573,0.0073,0.4912,0.2532,0.0864,0.5092,0.4459,-0.0194,0.5179,0.2636,0.0,0.0,0.045,0.013,0.0,0.169,0.006,0.013,0.117,0.0,0.006,0.013,0.026,0.045,0.104,0.0,0.006,0.058,0.0414,-0.2654,0.3559,-0.0077,-0.2454,0.224,-0.0046,-0.3099,0.158,-0.0138,-0.2899,0.1779,0.043,-0.3037,0.3175,-0.023,-0.2347,0.1212,0.0174,-0.0355,0.0937,-0.0239,-0.0437,0.0837,0.0,-0.0232,0.0554,0.001,-0.0449,0.0901,0.0006,-0.0361,0.067,-0.0028,-0.0476,0.0971,0.026,-0.1249,-0.0742,-0.0046,0.014,0.0631,0.5071,0.2683,0.0173,0.51,0.2636,0.0684,0.5085,0.3509,0.009,0.4934,0.2406,0.0899,0.5092,0.4387,-0.0166,0.5229,0.258,0.0,0.0,-0.2376,0.0,0.0,0.0,0.0,0.0,0.0,
2.36,run,8.27,2.55,2.26,0.81,0.03,-12.2,0.0,0.0,0.201,2.11,2.46,86.57,1.05,2.46,86.22,2.55,2.2,92.81,0.35,2.02,85.17,2.64,2.11,101.16,-0.62,3.25,85.61,2.23,2.5,89.15,0.24,2.71,88.41,2.17,2.65,95.59,0.31,1.87,86.82,3.0,2.61,102.99,-0.65,3.26,87.85,0.0638,0.5001,0.2841,0.0068,0.5038,0.2754,0.0619,0.5028,0.3599,0.0089,0.4886,0.2567,0.0857,0.5021,0.4469,-0.0185,0.5139,0.2688,0.0,0.0,0.045,0.013,0.0,0.169,0.006,0.013,0.117,0.0,0.006,0.013,0.026,0.045,0.104,0.0,0.006,0.058,0.0399,-0.2684,0.3651,-0.0092,-0.2485,0.227,-0.0046,-0.3145,0.1641,-0.0123,-0.2945,0.1841,0.043,-0.3114,0.3267,-0.023,-0.2393,0.1304,0.0064,-0.0364,0.1001,-0.0225,-0.0421,0.0701,0.0,-0.0335,0.0618,0.0064,-0.0487,0.0861,0.0004,-0.054,0.0814,-0.002,-0.0506,0.1024,0.0234,-0.1388,-0.0261,-0.0755,-0.0013,0.0629,0.5038,0.2766,0.0127,0.5086,0.2717,0.0621,0.5084,0.3573,0.0073,0.4912,0.2532,0.0864,0.5092,0.4459,-0.0194,0.5179,0.2636,0.0,0.0,-0.2448,0.0,0.0,0.0,0.0,0.0,0.0,
2.4,run,8.09,2.5,-4.14,-1.66,-1.27,-12.6,0.0,0.0,0.201,2.02,2.11,87.1,0.88,2.29,86.66,2.55,2.2,93.25,0.26,1.85,85.69,2.64,2.11,101.51,-0.62,2.9,86.04,2.18,2.2,89.32,0.26,2.36,88.72,2.27,2.4,95.8,0.36,1.46,87.06,3.05,2.38,103.09,-0.56,3.0,88.37,0.0624,0.4946,0.2861,0.0073,0.4975,0.279,0.065,0.4982,0.3624,0.0104,0.4812,0.2595,0.0873,0.4977,0.4482,-0.016,0.5092,0.275,0.0,0.0,0.052,0.013,0.006,0.091,0.006,0.013,0.117,0.0,0.0,0.026,0.026,0.013,0.091,0.0,0.006,0.052,0.0414,-0.2715,0.3712,-0.0092,-0.2516,0.2347,-0.0046,-0.316,0.1672,-0.0123,-0.2976,0.1871,0.043,-0.3114,0.3267,-0.023,-0.2408,0.1365,0.0103,-0.037,0.0931,-0.0157,-0.041,0.0778,0.0,-0.0292,0.0547,0.0045,-0.0456,0.0718,0.0003,-0.0378,0.057,-0.0014,-0.0412,0.0947,0.0295,-0.1369,0.0394,0.0142,0.0004,0.0638,0.5001,0.2841,0.0068,0.5038,0.2754,0.0619,0.5028,0.3599,0.0089,0.4886,0.2567,0.0857,0.5021,0.4469,-0.0185,0.5139,0.2688,0.0,0.0,-0.252,0.0,0.0,0.0,0.0,0.0,0.0,
2.44,run,8.16,2.42,1.64,-3.03,0.54,-13.0,0.0,0.0,0.201,2.11,2.02,87.71,0.7,1.93,87.19,2.55,1.67,93.6,0.35,1.58,86.31,2.64,1.76,102.04,-0.62,2.64,86.66,2.18,2.19,90.05,0.11,2.32,89.35,2.07,2.46,96.39,0.21,1.41,88.11,2.92,2.28,103.72,-0.6,2.68,88.98,0.0622,0.4943,0.2947,0.0031,0.4968,0.2865,0.0592,0.4992,0.3693,0.0059,0.4802,0.2719,0.0833,0.4961,0.4555,-0.0172,0.5032,0.2821,0.0,0.0,0.052,0.013,0.006,0.091,0.006,0.013,0.117,0.0,0.0,0.026,0.026,0.013,0.091,0.0,0.006,0.052,0.0399,-0.2777,0.3804,-0.0123,-0.2546,0.2424,-0.0046,-0.316,0.1749,-0.0138,-0.3007,0.1963,0.043,-0.3114,0.3329,-0.023,-0.247,0.1442,0.0014,-0.0488,0.0996,-0.0225,-0.0402,0.0832,0.0,-0.0204,0.067,-0.0026,-0.0434,0.0847,0.0002,-0.0265,0.0628,-0.001,-0.0518,0.095,0.0136,-0.141,-0.0722,-0.029,-0.0222,0.0624,0.4946,0.2861,0.0073,0.4975,0.279,0.065,0.4982,0.3624,0.0104,0.4812,0.2595,0.0873,0.4977,0.4482,-0.016,0.5092,0.275,0.0,0.0,-0.2592,0.0,0.0,0.0,0.0,0.0,0.0,
2.48,run,8.23,2.43,2.36,1.26,-2.44,-13.3,0.0,0.0,0.201,2.02,2.02,87.98,0.62,1.76,87.45,2.55,1.58,93.69,0.35,1.49,86.75,2.64,1.41,102.04,-0.62,2.55,87.01,2.26,1.82,90.36,-0.03,1.98,89.31,2.12,1.97,96.34,0.38,1.19,87.78,3.0,1.8,103.42,-0.57,2.51,89.07,0.0645,0.4876,0.2983,-0.0008,0.4905,0.286,0.0604,0.4904,0.3688,0.0107,0.4762,0.268,0.0857,0.4872,0.452,-0.0163,0.5002,0.2831,0.0,0.0,0.052,0.013,0.006,0.091,0.006,0.013,0.117,0.0,0.0,0.026,0.026,0.013,0.091,0.0,0.006,0.052,0.0414,-0.2792,0.3912,-0.0153,-0.2608,0.2516,-0.0046,-0.3252,0.181,-0.0123,-0.3053,0.2071,0.043,-0.3175,0.3421,-0.023,-0.2516,0.1549,0.0065,-0.0397,0.1084,-0.0268,-0.0502,0.0914,0.0,-0.0474,0.069,0.0037,-0.0469,0.0979,0.0002,-0.0406,0.0771,-0.0007,-0.0528,0.1052,0.0199,-0.1487,0.0287,-0.0528,0.0095,0.0622,0.4943,0.2947,0.0031,0.4968,0.2865,0.0592,0.4992,0.3693,0.0059,0.4802,0.2719,0.0833,0.4961,0.4555,-0.0172,0.5032,0.2821,0.0,0.0,-0.2664,0.0,0.0,0.0,0.0,0.0,0.0,
2.52,run,8.09,2.36,-3.88,-2.44,1.78,-13.7,0.0,0.0,0.201,2.2,1.58,88.42,0.53,1.49,87.71,2.55,1.49,94.04,0.35,1.23,87.19,2.64,1.32,102.3,-0.62,2.11,87.36,2.19,1.67,90.7,0.03,1.75,89.87,2.15,1.91,96.83,0.33,0.94,88.33,2.98,1.77,104.06,-0.48,2.27,89.71,0.0625,0.4849,0.3024,0.0009,0.4864,0.2926,0.0615,0.4894,0.3745,0.0095,0.4716,0.2745,0.0851,0.4868,0.4596,-0.0138,0.4958,0.2907,0.0,0.006,0.052,0.013,0.006,0.163,0.006,0.019,0.143,0.0,0.006,0.019,0.013,0.045,0.091,0.013,0.013,0.058,0.0399,-0.2792,0.3958,-0.0169,-0.2638,0.2562,-0.0046,-0.3267,0.1825,-0.0123,-0.3068,0.2148,0.043,-0.3237,0.3421,-0.023,-0.2531,0.1611,-0.0011,-0.0278,0.0929,-0.0244,-0.0465,0.081,0.0,-0.0389,0.054,0.0026,-0.0385,0.097,0.0001,-0.0512,0.054,-0.0005,-0.0426,0.0963,0.0261,-0.1474,0.0412,0.0219,-0.0426,0.0645,0.4876,0.2983,-0.0008,0.4905,0.286,0.0604,0.4904,0.3688,0.0107,0.4762,0.268,0.0857,0.4872,0.452,-0.0163,0.5002,0.2831,0.0,0.0,-0.2736,0.0,0.0,0.0,0.0,0.0,0.0,
2.56,run,8.0,2.25,-1.7,-2.44,-0.49,-14.0,0.0,0.0,0.201,2.11,1.49,89.03,0.53,1.23,88.24,2.55,1.05,94.31,0.44,1.05,87.63,2.64,0.97,102.48,-0.53,1.93,87.8,2.23,1.47,91.53,-0.14,1.61,90.51,1.87,1.85,97.2,0.25,0.8,89.36,2.83,1.64,104.34,-0.57,1.96,90.1,0.0637,0.4813,0.3121,-0.0041,0.4838,0.3001,0.0535,0.4882,0.3788,0.007,0.4691,0.2866,0.081,0.4844,0.4628,-0.0164,0.4901,0.2952,0.0,0.006,0.052,0.013,0.006,0.163,0.006,0.019,0.143,0.0,0.006,0.019,0.013,0.045,0.091,0.013,0.013,0.058,0.043,-0.2869,0.4034,-0.0184,-0.2684,0.2608,-0.0046,-0.3283,0.1887,-0.0123,-0.3114,0.2224,0.043,-0.3252,0.3467,-0.023,-0.2608,0.1672,0.0107,-0.0481,0.0937,-0.0228,-0.0498,0.0739,0.0,-0.033,0.0607,0.0018,-0.0442,0.0965,0.0001,-0.0416,0.055,-0.0003,-0.0585,0.0904,0.0131,-0.1538,-0.0678,-0.0426,0.0311,0.0625,0.4849,0.3024,0.0009,0.4864,0.2926,0.0615,0.4894,0.3745,0.0095,0.4716,0.2745,0.0851,0.4868,0.4596,-0.0138,0.4958,0.2907,0.0,0.0,-0.2808,0.0,0.0,0.0,0.0,0.0,0.0,
2.6,run,8.06,2.28,1.89,0.57,-1.56,-14.4,0.0,0.0,0.201,2.11,1.14,89.38,0.44,1.14,88.59,2.55,1.05,94.66,0.44,0.88,87.89,2.64,0.88,102.92,-0.53,1.76,88.24,2.21,1.23,91.89,-0.27,1.38,90.7,1.88,1.62,97.42,0.31,0.59,89.6,2.8,1.26,104.57,-0.53,1.64,90.52,0.063,0.477,0.3163,-0.0078,0.4797,0.3024,0.0538,0.484,0.3814,0.0089,0.4654,0.2894,0.08,0.4775,0.4655,-0.0151,0.4844,0.3002,0.0,0.006,0.052,0.013,0.006,0.163,0.006,0.019,0.143,0.0,0.006,0.019,0.013,0.045,0.091,0.013,0.013,0.058,0.0414,-0.2884,0.4142,-0.0184,-0.273,0.27,-0.0046,-0.3359,0.1933,-0.0107,-0.3145,0.2301,0.043,-0.3313,0.3497,-0.0215,-0.2638,0.1749,0.0025,-0.0386,0.1001,-0.016,-0.0496,0.0813,0.0,-0.0477,0.0573,0.0062,-0.0408,0.0922,0.0001,-0.0488,0.0484,0.0047,-0.0508,0.0879,0.0058,-0.1627,-0.0297,-0.0426,-0.0086,0.0637,0.4813,0.3121,-0.0041,0.4838,0.3001,0.0535,0.4882,0.3788,0.007,0.4691,0.2866,0.081,0.4844,0.4628,-0.0164,0.4901,0.2952,0.0,0.0,-0.288,0.0,0.0,0.0,0.0,0.0,0.0,
2.64,run,8.03,2.35,-0.75,1.57,-0.21,-14.8,0.0,0.0,0.201,2.11,0.97,89.91,0.26,0.79,89.03,2.37,0.97,94.92,0.44,0.62,88.33,2.64,0.79,103.27,-0.53,1.32,88.77,2.15,0.95,92.19,-0.31,1.06,91.05,2.0,1.33,97.71,0.34,0.29,89.93,2.85,0.99,104.52,-0.43,1.43,91.04,0.0614,0.4719,0.3199,-0.0087,0.4738,0.3065,0.0571,0.4788,0.3848,0.0097,0.4599,0.2933,0.0814,0.4726,0.465,-0.0123,0.4805,0.3064,0.0,0.0,0.052,0.013,0.006,0.149,0.0,0.013,0.123,0.006,0.006,0.026,0.006,0.019,0.111,0.0,0.006,0.058,0.0414,-0.2945,0.4203,-0.0199,-0.2746,0.2761,-0.0046,-0.3359,0.1994,-0.0107,-0.3175,0.2347,0.043,-0.3329,0.3574,-0.0215,-0.2669,0.1825,0.0018,-0.0498,0.0929,-0.0169,-0.0404,0.0797,0.0,-0.0334,0.0629,0.0043,-0.0399,0.0817,0.0,-0.0399,0.0623,0.0033,-0.047,0.09,0.0106,-0.16,0.0329,0.0099,-0.0273,0.063,0.477,0.3163,-0.0078,0.4797,0.3024,0.0538,0.484,0.3814,0.0089,0.4654,0.2894,0.08,0.4775,0.4655,-0.0151,0.4844,0.3002,0.0,0.0,-0.2952,0.0,0.0,0.0,0.0,0.0,0.0,
2.68,run,7.9,2.28,-3.19,-1.81,1.12,-15.1,0.0,0.0,0.201,2.11,0.7,90.44,0.26,0.62,89.56,2.37,0.7,95.27,0.53,0.35,89.03,2.64,0.26,103.36,-0.53,1.14,89.21,2.14,0.76,92.64,-0.37,0.87,91.64,1.85,1.2,98.11,0.28,0.08,90.67,2.78,0.92,104.75,-0.49,1.21,91.47,0.0611,0.4684,0.3251,-0.0104,0.4704,0.3134,0.053,0.4764,0.3895,0.008,0.4561,0.302,0.0794,0.4713,0.4676,-0.014,0.4765,0.3114,0.0,0.0,0.052,0.013,0.006,0.149,0.0,0.013,0.123,0.006,0.006,0.026,0.006,0.019,0.111,0.0,0.006,0.058,0.0414,-0.2976,0.4295,-0.023,-0.2807,0.2838,-0.0077,-0.3375,0.204,-0.0107,-0.3221,0.2424,0.043,-0.3344,0.3636,-0.0215,-0.2746,0.1917,0.0012,-0.0464,0.0996,-0.0233,-0.0514,0.0846,-0.0115,-0.0292,0.0613,0.003,-0.0453,0.086,0.0,-0.0337,0.0667,0.0023,-0.0617,0.0976,0.0083,-0.1541,-0.013,0.0274,-0.0037,0.0614,0.4719,0.3199,-0.0087,0.4738,0.3065,0.0571,0.4788,0.3848,0.0097,0.4599,0.2933,0.0814,0.4726,0.465,-0.0123,0.4805,0.3064,0.0,0.0,-0.3024,0.0,0.0,0.0,0.0,0.0,0.0,
2.72,run,7.84,2.27,-1.11,-0.73,-1.03,-15.5,0.0,0.0,0.201,2.11,0.62,90.88,0.26,0.35,89.74,2.37,0.35,95.62,0.26,0.09,89.38,2.64,0.09,103.45,-0.53,0.88,89.65,2.18,0.57,93.4,-0.54,0.79,92.07,1.68,1.1,98.46,0.27,-0.0,91.27,2.65,0.7,105.18,-0.52,0.93,91.8,0.0622,0.4649,0.3341,-0.0156,0.4689,0.3184,0.0479,0.4745,0.3937,0.0076,0.4545,0.3091,0.0756,0.4672,0.4727,-0.0147,0.4715,0.3154,0.0,0.0,0.052,0.013,0.006,0.149,0.0,0.013,0.123,0.006,0.006,0.026,0.006,0.019,0.111,0.0,0.006,0.058,0.0414,-0.3022,0.4387,-0.023,-0.2838,0.293,-0.0077,-0.3421,0.2102,-0.0092,-0.3267,0.2546,0.043,-0.3436,0.3651,-0.0215,-0.2777,0.1994,0.0009,-0.0496,0.104,-0.0163,-0.0474,0.0935,-0.0081,-0.0375,0.0658,0.0078,-0.0488,0.1059,0.0,-0.0578,0.0524,0.0016,-0.0546,0.0969,-0.0033,-0.1604,-0.0557,-0.0315,0.0196,0.0611,0.4684,0.3251,-0.0104,0.4704,0.3134,0.053,0.4764,0.3895,0.008,0.4561,0.302,0.0794,0.4713,0.4676,-0.014,0.4765,0.3114,0.0,0.0,-0.3096,0.0,0.0,0.0,0.0,0.0,0.0,
2.76,run,7.78,2.23,-1.11,-1.29,-2.41,-15.8,0.0,0.0,0.201,2.11,0.18,91.41,0.0,0.18,90.0,2.37,0.35,95.89,0.35,0.09,90.0,2.64,-0.09,103.8,-0.53,0.62,90.0,2.11,0.36,93.71,-0.58,0.54,92.49,1.66,0.97,98.78,0.25,-0.24,91.72,2.61,0.47,105.33,-0.53,0.65,92.32,0.0603,0.4611,0.3378,-0.0166,0.4643,0.3235,0.0475,0.4721,0.3974,0.0072,0.4502,0.3144,0.0745,0.4631,0.4745,-0.0152,0.4663,0.3214,0.0,0.0,0.052,0.013,0.006,0.189,0.019,0.026,0.123,0.0,0.0,0.065,0.0,0.026,0.091,0.0,0.006,0.058,0.0414,-0.3037,0.4464,-0.023,-0.2884,0.2961,-0.0077,-0.3482,0.2163,-0.0138,-0.3313,0.2608,0.043,-0.3467,0.3666,-0.0215,-0.2823,0.2071,0.0006,-0.0404,0.1011,-0.0114,-0.0501,0.0768,-0.0056,-0.0489,0.0687,-0.0115,-0.0511,0.0967,0.0,-0.0518,0.0423,0.0011,-0.0552,0.0961,-0.0082,-0.1616,-0.0194,-0.0127,-0.0179,0.0622,0.4649,0.3341,-0.0156,0.4689,0.3184,0.0479,0.4745,0.3937,0.0076,0.4545,0.3091,0.0756,0.4672,0.4727,-0.0147,0.4715,0.3154,0.0,0.0,-0.3168,0.0,0.0,0.0,0.0,0.0,0.0,
2.8,run,7.77,2.24,-0.14,0.78,-0.69,-16.2,0.0,0.0,0.201,2.11,0.09,91.93,-0.09,0.0,90.79,2.37,0.26,96.24,0.44,-0.26,90.62,2.64,-0.18,104.15,-0.53,0.35,90.44,2.09,0.16,94.19,-0.7,0.34,92.94,1.63,0.68,99.1,0.27,-0.42,92.24,2.58,0.15,105.46,-0.48,0.37,92.87,0.0596,0.4575,0.3434,-0.0199,0.4607,0.3286,0.0466,0.4669,0.4012,0.0078,0.4469,0.3204,0.0737,0.4572,0.476,-0.0138,0.4613,0.3279,0.0,0.0,0.052,0.013,0.006,0.189,0.019,0.026,0.123,0.0,0.0,0.065,0.0,0.026,0.091,0.0,0.006,0.058,0.0414,-0.3114,0.4556,-0.0276,-0.2915,0.3007,-0.0077,-0.3482,0.2209,-0.0123,-0.3313,0.2715,0.043,-0.3497,0.3728,-0.0215,-0.2869,0.2132,0.0004,-0.0571,0.1053,-0.0253,-0.0466,0.071,-0.004,-0.0342,0.0653,-0.0023,-0.0358,0.108,0.0,-0.0478,0.0527,0.0008,-0.0559,0.0903,-0.0132,-0.1652,-0.0193,-0.0224,-0.0421,0.0603,0.4611,0.3378,-0.0166,0.4643,0.3235,0.0475,0.4721,0.3974,0.0072,0.4502,0.3144,0.0745,0.4631,0.4745,-0.0152,0.4663,0.3214,0.0,0.0,-0.324,0.0,0.0,0.0,0.0,0.0,0.0,
2.84,run,7.6,2.23,-4.08,-0.1,-0.52,-16.6,0.0,0.0,0.201,2.11,-0.09,92.46,-0.26,-0.09,91.23,2.37,0.26,96.59,0.35,-0.44,91.14,2.64,-0.62,104.24,-0.53,0.09,90.88,2.1,-0.14,94.54,-0.76,0.09,93.14,1.63,0.42,99.27,0.29,-0.62,92.44,2.59,-0.11,105.46,-0.45,0.15,93.14,0.06,0.4519,0.3475,-0.0217,0.4562,0.3311,0.0464,0.4622,0.4032,0.0083,0.4432,0.3228,0.0739,0.4526,0.4759,-0.013,0.4574,0.3311,0.0,0.0,0.052,0.013,0.006,0.189,0.019,0.026,0.123,0.0,0.0,0.065,0.0,0.026,0.091,0.0,0.006,0.058,0.0414,-0.3129,0.4648,-0.0291,-0.2945,0.3145,-0.0077,-0.3497,0.227,-0.0107,-0.3375,0.2823,0.043,-0.3513,0.3789,-0.0215,-0.2915,0.2209,0.0003,-0.0457,0.1082,-0.0234,-0.0441,0.1015,-0.0028,-0.0297,0.0687,0.0041,-0.0481,0.1159,0.0,-0.0392,0.0599,0.0006,-0.0564,0.092,-0.0141,-0.1637,-0.0025,0.0135,-0.0121,0.0596,0.4575,0.3434,-0.0199,0.4607,0.3286,0.0466,0.4669,0.4012,0.0078,0.4469,0.3204,0.0737,0.4572,0.476,-0.0138,0.4613,0.3279,0.0,0.0,-0.3312,0.0,0.0,0.0,0.0,0.0,0.0,
2.88,run,7.63,2.01,0.66,-6.65,0.53,-16.9,0.0,0.0,0.221,2.11,-0.35,92.9,-0.35,-0.26,91.67,2.37,-0.18,96.77,0.35,-0.62,91.67,2.64,-0.88,104.24,-0.53,-0.18,91.49,2.08,-0.26,95.28,-0.85,0.04,93.83,1.43,0.43,99.77,0.21,-0.72,93.4,2.45,-0.21,105.97,-0.51,-0.13,93.68,0.0594,0.4498,0.3562,-0.0244,0.4552,0.3392,0.0409,0.4623,0.409,0.006,0.4414,0.3341,0.0699,0.4507,0.482,-0.0145,0.4522,0.3374,0.0,0.0,0.058,0.006,0.013,0.117,0.026,0.045,0.221,0.006,0.0,0.033,0.0,0.058,0.169,0.0,0.006,0.065,0.0414,-0.316,0.474,-0.0322,-0.2961,0.3221,-0.0077,-0.3497,0.2332,-0.0123,-0.3405,0.2915,0.043,-0.359,0.3804,-0.0215,-0.2961,0.2286,0.0002,-0.0435,0.1102,-0.0279,-0.0366,0.0997,-0.0019,-0.0208,0.0711,-0.0028,-0.0451,0.1156,0.0,-0.0561,0.0476,0.0004,-0.0567,0.0931,-0.0293,-0.1649,-0.0713,-0.0017,-0.009,0.06,0.4519,0.3475,-0.0217,0.4562,0.3311,0.0464,0.4622,0.4032,0.0083,0.4432,0.3228,0.0739,0.4526,0.4759,-0.013,0.4574,0.3311,0.0,0.0,-0.3384,0.0,0.0,0.0,0.0,0.0,0.0,
2.92,run,7.65,2.13,-0.08,3.45,-0.46,-17.3,0.0,0.0,0.221,2.11,-0.53,93.43,-0.44,-0.62,91.85,2.2,-0.35,97.12,0.26,-0.79,92.02,2.37,-0.97,104.33,-0.53,-0.44,91.93,2.14,-0.45,95.91,-1.06,-0.24,93.9,1.42,0.06,99.86,0.31,-0.84,93.41,2.43,-0.75,105.84,-0.42,-0.33,93.97,0.0611,0.4464,0.3637,-0.0302,0.4503,0.34,0.0405,0.4556,0.4102,0.0087,0.4392,0.3342,0.0695,0.4409,0.4805,-0.0119,0.4485,0.3408,0.0,0.0,0.058,0.006,0.013,0.117,0.026,0.045,0.221,0.006,0.0,0.033,0.0,0.058,0.169,0.0,0.006,0.065,0.0414,-0.3206,0.4817,-0.0337,-0.2991,0.3298,-0.0077,-0.3574,0.2362,-0.0123,-0.3436,0.3007,0.043,-0.3636,0.3804,-0.0215,-0.3007,0.2393,0.0001,-0.0477,0.106,-0.0253,-0.0372,0.0986,-0.0014,-0.0434,0.0613,-0.002,-0.0431,0.1155,0.0,-0.0566,0.0334,0.0003,-0.057,0.1055,-0.0267,-0.1837,0.0116,-0.1161,0.0092,0.0594,0.4498,0.3562,-0.0244,0.4552,0.3392,0.0409,0.4623,0.409,0.006,0.4414,0.3341,0.0699,0.4507,0.482,-0.0145,0.4522,0.3374,0.0,0.0,-0.3456,0.0,0.0,0.0,0.0,0.0,0.0,
2.96,run,7.55,2.1,-2.4,-0.02,-2.33,-17.6,0.0,0.0,0.221,2.11,-0.7,93.87,-0.44,-0.62,92.37,2.2,-0.35,97.47,0.35,-0.88,92.64,2.37,-1.14,104.68,-0.53,-0.62,92.29,2.03,-0.83,95.88,-0.94,-0.54,94.56,1.43,-0.06,100.21,0.31,-1.24,94.09,2.45,-0.69,106.16,-0.44,-0.62,94.43,0.0581,0.4394,0.3633,-0.0269,0.4446,0.3478,0.041,0.4535,0.4142,0.0087,0.432,0.3422,0.0701,0.442,0.4842,-0.0127,0.4432,0.3462,0.0,0.0,0.058,0.006,0.013,0.117,0.026,0.045,0.221,0.006,0.0,0.033,0.0,0.058,0.169,0.0,0.006,0.065,0.0414,-0.3237,0.4909,-0.0353,-0.3053,0.3329,-0.0107,-0.3605,0.2424,-0.0138,-0.3467,0.3068,0.0383,-0.3651,0.382,-0.0215,-0.3053,0.247,0.0001,-0.045,0.1089,-0.0235,-0.0492,0.0806,-0.0125,-0.0419,0.0661,-0.0072,-0.0418,0.104,-0.0174,-0.0454,0.0291,0.0002,-0.0573,0.1028,-0.0247,-0.1738,-0.0013,0.0602,-0.0079,0.0611,0.4464,0.3637,-0.0302,0.4503,0.34,0.0405,0.4556,0.4102,0.0087,0.4392,0.3342,0.0695,0.4409,0.4805,-0.0119,0.4485,0.3408,0.0,0.0,-0.3528,0.0,0.0,0.0,0.0,0.0,0.0,
3.0,run,7.45,2.03,-1.79,-1.43,0.8,-18.0,0.0,0.0,0.221,2.11,-1.05,94.31,-0.62,-1.05,92.81,2.2,-0.53,97.82,0.44,-1.23,93.08,2.37,-1.58,104.77,-0.53,-1.05,92.72,2.01,-0.93,96.66,-1.12,-0.64,95.0,1.35,-0.17,100.66,0.27,-1.29,94.73,2.32,-0.97,106.48,-0.41,-0.9,94.92,0.0575,0.4377,0.3725,-0.032,0.443,0.3529,0.0385,0.4515,0.4195,0.0077,0.4312,0.3498,0.0664,0.4368,0.488,-0.0118,0.4382,0.3519,0.0,0.0,0.045,0.013,0.019,0.182,0.033,0.033,0.169,0.013,0.0,0.033,0.006,0.058,0.143,0.0,0.006,0.065,0.0414,-0.3267,0.4985,-0.0353,-0.3053,0.3421,-0.0107,-0.3605,0.2485,-0.0123,-0.3482,0.3175,0.0383,-0.3682,0.3881,-0.0215,-0.3083,0.2531,0.0001,-0.0429,0.1047,-0.0164,-0.0344,0.0905,-0.0088,-0.0294,0.069,0.0007,-0.0349,0.1126,-0.0122,-0.0432,0.0431,0.0001,-0.0514,0.0947,-0.0338,-0.1761,-0.0418,-0.0003,-0.0407,0.0581,0.4394,0.3633,-0.0269,0.4446,0.3478,0.041,0.4535,0.4142,0.0087,0.432,0.3422,0.0701,0.442,0.4842,-0.0127,0.4432,0.3462,0.0,0.0,-0.36,0.0,0.0,0.0,0.0,0.0,0.0,
3.04,run,7.44,2.02,-0.6,-1.26,-0.08,-18.4,0.0,0.0,0.221,2.11,-1.23,94.75,-0.62,-1.23,93.34,2.11,-0.97,98.17,0.44,-1.41,93.6,2.37,-1.67,105.12,-0.53,-1.23,93.16,2.02,-1.18,97.11,-1.19,-0.83,95.43,1.2,-0.4,100.83,0.26,-1.48,95.22,2.25,-1.24,106.54,-0.44,-1.14,95.29,0.0578,0.4331,0.3778,-0.034,0.4395,0.358,0.0344,0.4472,0.4215,0.0075,0.4276,0.3556,0.0643,0.4319,0.4888,-0.0125,0.4338,0.3563,0.0,0.0,0.045,0.013,0.019,0.182,0.033,0.033,0.169,0.013,0.0,0.033,0.006,0.058,0.143,0.0,0.006,0.065,0.0414,-0.3329,0.5062,-0.0383,-0.3129,0.3497,-0.0107,-0.3636,0.2546,-0.0107,-0.3543,0.3252,0.0383,-0.3758,0.3896,-0.0215,-0.316,0.2608,0.0001,-0.0531,0.1021,-0.0231,-0.053,0.0922,-0.0061,-0.0321,0.0714,0.0062,-0.0475,0.1077,-0.0085,-0.0591,0.036,0.0001,-0.0649,0.0952,-0.0425,-0.1822,-0.0312,-0.025,0.0139,0.0575,0.4377,0.3725,-0.032,0.443,0.3529,0.0385,0.4515,0.4195,0.0077,0.4312,0.3498,0.0664,0.4368,0.488,-0.0118,0.4382,0.3519,0.0,0.0,-0.3672,0.0,0.0,0.0,0.0,0.0,0.0,
3.08,run,7.48,2.03,1.47,0.44,-4.18,-18.7,0.0,0.0,0.221,2.11,-1.32,95.27,-0.79,-1.32,93.78,2.02,-1.05,98.44,0.35,-1.41,94.04,2.37,-1.76,105.21,-0.53,-1.32,93.6,1.99,-1.43,97.52,-1.26,-1.06,95.69,1.22,-0.56,101.12,0.29,-1.66,95.48,2.24,-1.52,106.67,-0.4,-1.38,95.58,0.0568,0.4286,0.3825,-0.036,0.4354,0.3611,0.035,0.4444,0.4249,0.0084,0.4244,0.3586,0.064,0.427,0.4903,-0.0114,0.4295,0.3597,0.0,0.0,0.045,0.013,0.019,0.182,0.033,0.033,0.169,0.013,0.0,0.033,0.006,0.058,0.143,0.0,0.006,0.065,0.0414,-0.3359,0.5139,-0.0383,-0.316,0.359,-0.0123,-0.3712,0.2608,-0.0107,-0.3574,0.3344,0.0383,-0.3774,0.3958,-0.0215,-0.3191,0.2684,0.0,-0.0488,0.1007,-0.0161,-0.0487,0.0996,-0.0101,-0.0516,0.0733,0.0044,-0.0449,0.1104,-0.006,-0.0472,0.0485,0.0001,-0.0571,0.0958,-0.0433,-0.1829,-0.0105,-0.022,-0.0014,0.0578,0.4331,0.3778,-0.034,0.4395,0.358,0.0344,0.4472,0.4215,0.0075,0.4276,0.3556,0.0643,0.4319,0.4888,-0.0125,0.4338,0.3563,0.0,0.0,-0.3744,0.0,0.0,0.0,0.0,0.0,0.0,
3.12,run,7.3,1.98,-4.33,-2.23,3.0,-19.1,0.0,0.0,0.221,2.11,-1.67,95.8,-0.79,-1.41,94.04,2.02,-1.05,98.7,0.44,-1.67,94.57,2.2,-2.29,105.47,-0.53,-1.85,94.04,1.92,-1.59,97.93,-1.32,-1.26,96.12,1.29,-0.77,101.54,0.34,-1.86,95.92,2.21,-1.78,106.9,-0.34,-1.61,96.14,0.0547,0.4257,0.3874,-0.0377,0.4317,0.3661,0.0368,0.4405,0.4299,0.0096,0.4208,0.3637,0.0633,0.4222,0.4929,-0.0097,0.4252,0.3663,0.006,0.0,0.052,0.006,0.006,0.189,0.019,0.013,0.143,0.006,0.0,0.039,0.0,0.033,0.078,0.006,0.013,0.045,0.0414,-0.3375,0.5231,-0.0414,-0.3175,0.3666,-0.0138,-0.3728,0.2654,-0.0123,-0.3574,0.3421,0.0383,-0.3789,0.3973,-0.0215,-0.3206,0.2761,0.0,-0.0399,0.1047,-0.0227,-0.0398,0.0982,-0.0128,-0.0419,0.0684,-0.0026,-0.0315,0.1058,-0.0042,-0.0387,0.0397,0.0,-0.0457,0.0956,-0.0399,-0.182,0.0257,0.0077,-0.073,0.0568,0.4286,0.3825,-0.036,0.4354,0.3611,0.035,0.4444,0.4249,0.0084,0.4244,0.3586,0.064,0.427,0.4903,-0.0114,0.4295,0.3597,0.0,0.0,-0.3816,0.0,0.0,0.0,0.0,0.0,0.0,
3.16,run,7.23,1.9,-1.55,-2.3,-2.53,-19.4,0.0,0.0,0.221,1.93,-1.76,96.33,-0.88,-1.76,94.48,1.93,-1.32,98.96,0.53,-1.76,95.01,2.2,-2.46,105.73,-0.44,-1.93,94.39,1.99,-1.85,98.58,-1.43,-1.4,96.67,0.98,-0.84,101.76,0.28,-2.0,96.7,2.1,-1.86,107.17,-0.45,-1.87,96.26,0.0569,0.4209,0.395,-0.0408,0.4291,0.3726,0.0281,0.4393,0.4325,0.008,0.4181,0.373,0.0599,0.4208,0.4961,-0.0129,0.4206,0.3677,0.006,0.0,0.052,0.006,0.006,0.189,0.019,0.013,0.143,0.006,0.0,0.039,0.0,0.033,0.078,0.006,0.013,0.045,0.0414,-0.3436,0.5323,-0.0414,-0.3191,0.3712,-0.0138,-0.3728,0.27,-0.0107,-0.362,0.3513,0.0353,-0.3881,0.4019,-0.0215,-0.3298,0.2838,0.0,-0.051,0.1078,-0.0159,-0.0336,0.086,-0.009,-0.0293,0.0652,0.0039,-0.0393,0.1086,-0.0144,-0.0617,0.045,0.0,-0.0665,0.0957,-0.0557,-0.1864,-0.0755,-0.039,0.0524,0.0547,0.4257,0.3874,-0.0377,0.4317,0.3661,0.0368,0.4405,0.4299,0.0096,0.4208,0.3637,0.0633,0.4222,0.4929,-0.0097,0.4252,0.3663,0.0,0.0,-0.3888,0.0,0.0,0.0,0.0,0.0,0.0,
3.2,run,7.16,1.87,-2.17,0.01,-2.29,-19.8,0.0,0.0,0.221,1.93,-2.02,96.77,-1.14,-1.85,94.92,1.85,-1.67,99.32,0.35,-2.11,95.36,2.2,-2.72,105.73,-0.53,-2.02,94.75,1.89,-2.03,98.99,-1.53,-1.55,97.05,1.05,-1.07,102.09,0.32,-2.15,97.13,2.03,-2.25,107.31,-0.36,-2.15,96.86,0.054,0.4176,0.3998,-0.0437,0.4263,0.377,0.03,0.435,0.4364,0.0093,0.4155,0.3779,0.0581,0.4136,0.4978,-0.0104,0.4154,0.3748,0.006,0.0,0.052,0.006,0.006,0.189,0.019,0.013,0.143,0.006,0.0,0.039,0.0,0.033,0.078,0.006,0.013,0.045,0.0383,-0.3451,0.5415,-0.043,-0.3252,0.3789,-0.0153,-0.3774,0.2746,-0.0092,-0.3636,0.359,0.0353,-0.3912,0.4065,-0.0199,-0.3313,0.2899,-0.0115,-0.0415,0.1102,-0.0169,-0.0467,0.0891,-0.012,-0.0378,0.063,0.0085,-0.0333,0.1049,-0.0101,-0.0547,0.0489,0.0058,-0.0524,0.0901,-0.0615,-0.1938,-0.027,-0.0402,-0.0442,0.0569,0.4209,0.395,-0.0408,0.4291,0.3726,0.0281,0.4393,0.4325,0.008,0.4181,0.373,0.0599,0.4208,0.4961,-0.0129,0.4206,0.3677,0.0,0.0,-0.396,0.0,0.0,0.0,0.0,0.0,0.0,
3.24,run,7.1,1.94,-1.17,2.08,0.94,-20.2,0.0,0.0,0.221,1.93,-2.29,97.21,-1.14,-2.11,95.45,1.67,-1.67,99.84,0.44,-2.11,95.89,2.02,-2.81,105.91,-0.53,-2.46,95.1,1.83,-2.31,99.43,-1.57,-1.76,97.55,0.97,-1.21,102.36,0.33,-2.38,97.77,1.96,-2.46,107.44,-0.35,-2.46,97.25,0.0522,0.4126,0.4051,-0.0449,0.4225,0.3829,0.0277,0.4326,0.4396,0.0095,0.4113,0.3855,0.056,0.4099,0.4992,-0.01,0.4099,0.3794,0.0,0.006,0.052,0.006,0.006,0.111,0.019,0.019,0.123,0.0,0.0,0.052,0.0,0.033,0.091,0.006,0.0,0.065,0.0383,-0.3497,0.5492,-0.0476,-0.3267,0.3866,-0.0169,-0.3835,0.2807,-0.0123,-0.3697,0.3651,0.0353,-0.3958,0.4065,-0.0215,-0.3329,0.2961,-0.0081,-0.0462,0.1057,-0.029,-0.0384,0.091,-0.0142,-0.0494,0.0669,-0.0055,-0.0462,0.0963,-0.0071,-0.0555,0.0342,-0.0017,-0.0424,0.0859,-0.068,-0.1966,-0.0378,0.0002,-0.0399,0.054,0.4176,0.3998,-0.0437,0.4263,0.377,0.03,0.435,0.4364,0.0093,0.4155,0.3779,0.0581,0.4136,0.4978,-0.0104,0.4154,0.3748,0.0,0.0,-0.4032,0.0,0.0,0.0,0.0,0.0,0.0,
3.28,run,6.82,1.96,-5.76,1.05,-1.52,-20.5,0.0,0.0,0.221,1.93,-2.55,97.82,-1.14,-2.29,96.06,1.67,-1.76,100.11,0.44,-2.46,96.59,2.02,-3.34,106.44,-0.53,-2.72,95.62,1.83,-2.65,99.64,-1.58,-2.02,97.93,0.96,-1.41,102.54,0.36,-2.64,98.05,1.97,-2.64,107.55,-0.4,-2.67,97.54,0.0522,0.4064,0.4075,-0.0453,0.4179,0.3874,0.0275,0.4288,0.4417,0.0102,0.4065,0.3889,0.0562,0.4066,0.5006,-0.0114,0.406,0.3829,0.0,0.006,0.052,0.006,0.006,0.111,0.019,0.019,0.123,0.0,0.0,0.052,0.0,0.033,0.091,0.006,0.0,0.065,0.0383,-0.3543,0.5568,-0.0476,-0.3313,0.3958,-0.0199,-0.3835,0.2899,-0.0107,-0.3697,0.3743,0.0322,-0.3973,0.4096,-0.0215,-0.3405,0.3022,-0.0057,-0.0496,0.1028,-0.0203,-0.0442,0.0982,-0.0214,-0.0346,0.0814,0.0019,-0.0323,0.102,-0.0165,-0.0446,0.0355,-0.0012,-0.0585,0.0832,-0.0725,-0.1904,-0.0205,0.0363,0.0164,0.0522,0.4126,0.4051,-0.0449,0.4225,0.3829,0.0277,0.4326,0.4396,0.0095,0.4113,0.3855,0.056,0.4099,0.4992,-0.01,0.4099,0.3794,0.0,0.0,-0.4104,0.0,0.0,0.0,0.0,0.0,0.0,
3.32,run,6.83,2.03,1.24,1.54,-1.14,-20.9,0.0,0.0,0.221,1.93,-2.64,98.17,-1.14,-2.29,96.06,1.67,-1.76,100.28,0.44,-2.64,97.12,2.02,-3.34,106.44,-0.53,-2.81,95.89,1.76,-2.73,100.29,-1.69,-1.97,98.55,0.78,-1.34,102.99,0.28,-2.7,98.87,1.81,-2.75,108.08,-0.48,-2.93,97.99,0.0502,0.4049,0.4151,-0.0482,0.4187,0.3947,0.0224,0.4302,0.447,0.0079,0.4055,0.3985,0.0517,0.4045,0.5068,-0.0138,0.4013,0.3882,0.0,0.006,0.052,0.006,0.006,0.111,0.019,0.019,0.123,0.0,0.0,0.052,0.0,0.033,0.091,0.006,0.0,0.065,0.0383,-0.359,0.5676,-0.0476,-0.3344,0.4065,-0.0199,-0.385,0.2945,-0.0107,-0.3758,0.3866,0.0322,-0.4065,0.4188,-0.0215,-0.3451,0.3114,-0.004,-0.0495,0.1063,-0.0142,-0.0407,0.1031,-0.015,-0.0291,0.0717,0.0014,-0.0423,0.1107,-0.0115,-0.0607,0.0543,-0.0008,-0.0557,0.0877,-0.0973,-0.1886,-0.1004,0.0183,-0.0266,0.0522,0.4064,0.4075,-0.0453,0.4179,0.3874,0.0275,0.4288,0.4417,0.0102,0.4065,0.3889,0.0562,0.4066,0.5006,-0.0114,0.406,0.3829,0.0,0.0,-0.4176,0.0,0.0,0.0,0.0,0.0,0.0,
3.36,run,6.85,2.13,0.29,2.35,0.0,-21.2,0.0,0.0,0.221,1.93,-2.99,98.61,-1.32,-2.46,96.59,1.67,-1.93,100.46,0.35,-2.81,97.65,1.93,-3.34,106.52,-0.53,-3.34,96.24,1.74,-3.11,100.47,-1.78,-2.35,98.8,0.9,-1.77,103.13,0.37,-3.0,98.86,1.86,-3.16,107.8,-0.48,-3.11,98.38,0.0498,0.398,0.4173,-0.0507,0.4119,0.3977,0.0256,0.4223,0.4486,0.0107,0.3999,0.3984,0.0532,0.397,0.5035,-0.0138,0.3981,0.3927,0.0,0.006,0.039,0.006,0.0,0.117,0.019,0.019,0.156,0.0,0.0,0.026,0.0,0.019,0.13,0.0,0.006,0.052,0.0383,-0.3605,0.5737,-0.0476,-0.3344,0.4065,-0.0199,-0.385,0.2976,-0.0107,-0.3789,0.3958,0.0322,-0.4065,0.4188,-0.0215,-0.3467,0.316,-0.0028,-0.0403,0.0972,-0.0099,-0.0285,0.0722,-0.0105,-0.0204,0.0616,0.0009,-0.041,0.1116,-0.0081,-0.0425,0.038,-0.0006,-0.0447,0.0785,-0.0961,-0.1824,0.0216,0.0269,-0.0199,0.0502,0.4049,0.4151,-0.0482,0.4187,0.3947,0.0224,0.4302,0.447,0.0079,0.4055,0.3985,0.0517,0.4045,0.5068,-0.0138,0.4013,0.3882,0.0,0.0,-0.4248,0.0,0.0,0.0,0.0,0.0,0.0,
3.4,run,6.67,2.13,-6.09,-0.7,-2.05,-21.6,0.0,0.0,0.221,1.76,-3.25,99.05,-1.41,-2.64,97.29,1.67,-2.2,100.9,0.35,-2.99,98.17,1.93,-3.78,106.88,-0.53,-3.34,96.68,1.7,-3.27,100.81,-1.7,-2.56,99.33,0.81,-1.93,103.53,0.33,-3.23,99.33,1.81,-3.3,108.05,-0.52,-3.31,98.73,0.0486,0.3951,0.4213,-0.0487,0.408,0.4039,0.0232,0.4195,0.4533,0.0094,0.3959,0.4039,0.0516,0.3946,0.5064,-0.0148,0.3944,0.3969,0.0,0.006,0.039,0.006,0.0,0.117,0.019,0.019,0.156,0.0,0.0,0.026,0.0,0.019,0.13,0.0,0.006,0.052,0.0383,-0.3666,0.5814,-0.0506,-0.3375,0.4157,-0.0199,-0.3881,0.3007,-0.0123,-0.382,0.405,0.0307,-0.4065,0.4203,-0.0215,-0.3559,0.3221,-0.0019,-0.0512,0.0967,-0.0184,-0.0314,0.085,-0.0074,-0.0257,0.0546,-0.0051,-0.0402,0.1126,-0.0114,-0.0297,0.0323,-0.0004,-0.0657,0.0779,-0.0946,-0.1732,0.0051,0.041,0.0,0.0498,0.398,0.4173,-0.0507,0.4119,0.3977,0.0256,0.4223,0.4486,0.0107,0.3999,0.3984,0.0532,0.397,0.5035,-0.0138,0.3981,0.3927,0.0,0.0,-0.432,0.0,0.0,0.0,0.0,0.0,0.0,
3.44,run,6.71,2.24,1.86,2.1,1.86,-22.0,0.0,0.0,0.221,1.67,-3.52,99.32,-1.41,-2.99,97.65,1.67,-2.37,101.07,0.44,-3.16,98.26,1.93,-4.04,106.88,-0.53,-3.69,96.94,1.66,-3.32,101.58,-1.84,-2.48,99.86,0.59,-1.88,103.98,0.25,-3.28,100.17,1.59,-3.47,108.51,-0.54,-3.62,99.08,0.0473,0.3942,0.4304,-0.0525,0.4095,0.4101,0.0169,0.4204,0.4586,0.007,0.395,0.4138,0.0453,0.3914,0.5119,-0.0154,0.3887,0.4009,0.0,0.006,0.039,0.006,0.0,0.117,0.019,0.019,0.156,0.0,0.0,0.026,0.0,0.019,0.13,0.0,0.006,0.052,0.0353,-0.3712,0.589,-0.0522,-0.3405,0.428,-0.0199,-0.3927,0.3083,-0.0123,-0.385,0.4142,0.0307,-0.4142,0.4264,-0.0215,-0.3559,0.3298,-0.0129,-0.0531,0.0965,-0.0187,-0.0335,0.1055,-0.0051,-0.0353,0.067,-0.0036,-0.0396,0.1133,-0.008,-0.0496,0.0456,-0.0003,-0.046,0.0833,-0.1104,-0.1734,-0.1063,-0.0122,-0.0358,0.0486,0.3951,0.4213,-0.0487,0.408,0.4039,0.0232,0.4195,0.4533,0.0094,0.3959,0.4039,0.0516,0.3946,0.5064,-0.0148,0.3944,0.3969,0.0,0.0,-0.4392,0.0,0.0,0.0,0.0,0.0,0.0,
3.48,run,6.82,2.34,3.26,2.01,-3.98,-22.3,0.0,0.0,0.221,1.67,-3.6,99.76,-1.41,-3.08,98.17,1.41,-2.55,101.43,0.35,-3.25,98.79,1.76,-4.22,107.23,-0.53,-3.87,97.29,1.65,-3.78,101.45,-1.82,-2.92,100.05,0.69,-2.33,104.05,0.36,-3.69,100.1,1.65,-3.81,108.27,-0.56,-3.78,99.3,0.0471,0.3859,0.4289,-0.052,0.4014,0.4124,0.0197,0.4123,0.4594,0.0103,0.3874,0.4129,0.0473,0.3853,0.5091,-0.016,0.3858,0.4036,0.0,0.0,0.045,0.006,0.006,0.163,0.013,0.013,0.156,0.0,0.0,0.033,0.006,0.019,0.091,0.0,0.0,0.071,0.0337,-0.3758,0.5937,-0.0522,-0.3467,0.4341,-0.0199,-0.3958,0.3114,-0.0107,-0.3881,0.4157,0.0307,-0.4188,0.4264,-0.0215,-0.362,0.3344,-0.0148,-0.0544,0.0848,-0.0131,-0.0465,0.0969,-0.0036,-0.0362,0.0584,0.0033,-0.0392,0.0851,-0.0056,-0.052,0.0319,-0.0002,-0.0552,0.0756,-0.1067,-0.1638,0.0325,0.0366,0.0324,0.0473,0.3942,0.4304,-0.0525,0.4095,0.4101,0.0169,0.4204,0.4586,0.007,0.395,0.4138,0.0453,0.3914,0.5119,-0.0154,0.3887,0.4009,0.0,0.0,-0.4464,0.0,0.0,0.0,0.0,0.0,0.0,
3.52,run,6.75,2.33,-1.59,0.44,-0.39,-22.7,0.0,0.0,0.221,1.67,-3.96,100.11,-1.49,-3.16,98.44,1.32,-2.64,101.78,0.35,-3.6,99.4,1.67,-4.48,107.4,-0.53,-4.22,97.65,1.53,-3.92,102.1,-1.88,-3.05,100.65,0.77,-2.47,104.68,0.4,-3.82,100.67,1.57,-3.97,108.66,-0.51,-3.91,99.86,0.0438,0.3833,0.4365,-0.0538,0.3992,0.4194,0.022,0.4096,0.4668,0.0114,0.3852,0.4197,0.0448,0.3824,0.5137,-0.0146,0.3834,0.4101,0.0,0.0,0.045,0.006,0.006,0.163,0.013,0.013,0.156,0.0,0.0,0.033,0.006,0.019,0.091,0.0,0.0,0.071,0.0337,-0.3774,0.6013,-0.0522,-0.3482,0.4433,-0.0245,-0.3988,0.3175,-0.0123,-0.3896,0.4249,0.0276,-0.4218,0.4326,-0.0215,-0.3651,0.3405,-0.0103,-0.0438,0.0881,-0.0091,-0.0383,0.1023,-0.0198,-0.0368,0.0639,-0.0035,-0.0332,0.094,-0.0154,-0.0479,0.0454,-0.0001,-0.0502,0.0759,-0.0977,-0.1554,0.0569,0.0351,-0.0695,0.0471,0.3859,0.4289,-0.052,0.4014,0.4124,0.0197,0.4123,0.4594,0.0103,0.3874,0.4129,0.0473,0.3853,0.5091,-0.016,0.3858,0.4036,0.0,0.0,-0.4536,0.0,0.0,0.0,0.0,0.0,0.0,
3.56,run,6.8,2.27,1.6,-0.93,1.45,-23.0,0.0,0.0,0.221,1.67,-4.22,100.37,-1.49,-3.52,98.7,1.32,-3.08,101.87,0.35,-3.87,99.67,1.67,-4.57,107.4,-0.53,-4.31,97.82,1.56,-4.11,102.6,-1.94,-3.2,101.12,0.55,-2.6,104.87,0.34,-3.94,101.25,1.46,-4.09,108.87,-0.59,-4.17,100.07,0.0447,0.3799,0.4424,-0.0554,0.3964,0.425,0.0158,0.4073,0.4691,0.0096,0.3828,0.4264,0.0417,0.3802,0.5162,-0.0167,0.3786,0.4126,0.0,0.0,0.045,0.006,0.006,0.163,0.013,0.013,0.156,0.0,0.0,0.033,0.006,0.019,0.091,0.0,0.0,0.071,0.0337,-0.3835,0.6075,-0.0537,-0.3497,0.4479,-0.0261,-0.4004,0.3237,-0.0123,-0.3958,0.4357,0.0261,-0.4264,0.4357,-0.0215,-0.3712,0.3467,-0.0072,-0.0537,0.0847,-0.0121,-0.0325,0.0888,-0.0196,-0.0315,0.0677,-0.0024,-0.0462,0.106,-0.0165,-0.0507,0.0432,-0.0001,-0.0581,0.0761,-0.1038,-0.1563,-0.0277,0.0077,-0.0068,0.0438,0.3833,0.4365,-0.0538,0.3992,0.4194,0.022,0.4096,0.4668,0.0114,0.3852,0.4197,0.0448,0.3824,0.5137,-0.0146,0.3835,0.4101,0.0,0.0,-0.4608,0.0,0.0,0.0,0.0,0.0,0.0,
3.6,run,6.59,2.27,-6.0,-2.06,-2.71,-23.4,0.0,0.0,0.221,1.67,-4.39,100.9,-1.49,-3.6,99.32,1.32,-3.34,102.39,0.35,-3.96,100.11,1.58,-4.92,107.67,-0.53,-4.48,98.26,1.56,-4.4,102.86,-1.96,-3.48,101.3,0.55,-2.9,105.06,0.39,-4.17,101.38,1.44,-4.45,108.84,-0.52,-4.42,100.27,0.0447,0.3746,0.4454,-0.056,0.3913,0.4271,0.0156,0.4017,0.4713,0.0111,0.3787,0.428,0.041,0.3737,0.5158,-0.0148,0.3743,0.4149,0.0,0.0,0.039,0.006,0.006,0.143,0.026,0.019,0.149,0.0,0.0,0.045,0.0,0.019,0.065,0.0,0.006,0.058,0.0337,-0.3881,0.6121,-0.0537,-0.3559,0.4525,-0.0261,-0.408,0.3252,-0.0123,-0.4004,0.4403,0.0261,-0.428,0.4357,-0.0215,-0.3728,0.3497,-0.0051,-0.0549,0.0766,-0.0085,-0.0459,0.0795,-0.0137,-0.051,0.0532,-0.0017,-0.0497,0.0916,-0.0116,-0.0413,0.0303,-0.0001,-0.0464,0.0648,-0.0988,-0.1615,0.028,-0.0162,0.0254,0.0447,0.3799,0.4424,-0.0554,0.3964,0.425,0.0158,0.4073,0.4691,0.0096,0.3828,0.4264,0.0417,0.3802,0.5162,-0.0167,0.3786,0.4126,0.0,0.0,-0.468,0.0,0.0,0.0,0.0,0.0,0.0,
3.64,run,6.54,2.42,-1.83,4.2,-0.12,-23.8,0.0,0.0,0.221,1.58,-4.66,101.34,-1.49,-3.78,99.84,1.32,-3.34,102.66,0.35,-4.22,100.55,1.58,-4.92,107.84,-0.53,-4.75,98.7,1.46,-4.44,103.6,-2.02,-3.38,101.9,0.36,-2.78,105.58,0.33,-4.26,102.26,1.22,-4.56,109.51,-0.58,-4.72,100.64,0.0417,0.3738,0.4541,-0.0576,0.3932,0.4342,0.0102,0.404,0.4774,0.0094,0.3771,0.4383,0.035,0.3716,0.5236,-0.0166,0.3688,0.4193,0.0,0.0,0.039,0.006,0.006,0.143,0.026,0.019,0.149,0.0,0.0,0.045,0.0,0.019,0.065,0.0,0.006,0.058,0.0337,-0.3912,0.6213,-0.0537,-0.3574,0.4633,-0.0261,-0.4126,0.3344,-0.0123,-0.4019,0.4479,0.0245,-0.4341,0.4403,-0.0215,-0.3758,0.3574,-0.0035,-0.0499,0.088,-0.0059,-0.0379,0.0958,-0.0096,-0.0529,0.0716,-0.0012,-0.0405,0.0928,-0.0138,-0.0519,0.0384,-0.0,-0.044,0.0741,-0.1173,-0.1615,-0.1047,-0.036,-0.0473,0.0447,0.3746,0.4454,-0.056,0.3913,0.4271,0.0156,0.4017,0.4713,0.0111,0.3787,0.428,0.041,0.3737,0.5158,-0.0148,0.3743,0.4149,0.0,0.0,-0.4752,0.0,0.0,0.0,0.0,0.0,0.0,
3.68,run,6.37,2.2,-5.42,-6.03,0.06,-24.1,0.0,0.0,0.221,1.58,-4.75,101.78,-1.67,-3.96,100.11,1.23,-3.52,102.92,0.35,-4.22,100.9,1.23,-5.36,107.84,-0.53,-4.83,98.96,1.45,-4.87,103.44,-1.99,-3.74,102.17,0.45,-3.09,105.59,0.37,-4.61,102.23,1.31,-4.77,109.38,-0.66,-4.91,100.83,0.0414,0.3661,0.4523,-0.057,0.3865,0.4373,0.0128,0.3984,0.4776,0.0105,0.3708,0.438,0.0374,0.3677,0.5221,-0.0189,0.3652,0.4215,0.0,0.0,0.039,0.006,0.006,0.143,0.026,0.019,0.149,0.0,0.0,0.045,0.0,0.019,0.065,0.0,0.006,0.058,0.0322,-0.3958,0.6289,-0.0537,-0.3605,0.4725,-0.0261,-0.4126,0.339,-0.0123,-0.4065,0.4556,0.0245,-0.4341,0.4433,-0.0215,-0.3804,0.3651,-0.0082,-0.0521,0.0902,-0.0042,-0.0379,0.1013,-0.0067,-0.037,0.0673,-0.0008,-0.0455,0.0935,-0.0097,-0.0363,0.0383,-0.0,-0.0479,0.0804,-0.1214,-0.1483,-0.032,0.0733,-0.0021,0.0417,0.3738,0.4541,-0.0576,0.3932,0.4342,0.0102,0.404,0.4774,0.0094,0.3771,0.4383,0.035,0.3716,0.5236,-0.0166,0.3688,0.4193,0.0,0.0,-0.4824,0.0,0.0,0.0,0.0,0.0,0.0,
3.72,run,6.27,2.15,-2.42,-0.79,-1.07,-24.5,0.0,0.0,0.221,1.49,-4.83,102.13,-1.76,-3.96,100.55,1.14,-3.52,103.27,0.35,-4.57,101.34,1.23,-5.45,107.84,-0.7,-5.36,99.4,1.48,-4.84,104.42,-2.2,-3.67,102.6,0.18,-3.18,105.94,0.31,-4.6,103.05,1.11,-5.12,109.71,-0.61,-5.19,101.24,0.0423,0.3666,0.4637,-0.0629,0.3879,0.4423,0.0053,0.3968,0.4817,0.009,0.371,0.4476,0.0319,0.3614,0.526,-0.0174,0.3601,0.4264,0.0,0.0,0.045,0.006,0.006,0.117,0.026,0.013,0.221,0.0,0.0,0.033,0.0,0.013,0.182,0.006,0.006,0.058,0.0322,-0.3973,0.6366,-0.0568,-0.3636,0.4771,-0.0276,-0.4157,0.3436,-0.0123,-0.4065,0.4617,0.0184,-0.4418,0.4433,-0.0215,-0.382,0.3697,-0.0057,-0.0422,0.0919,-0.0144,-0.0381,0.0882,-0.0105,-0.0374,0.0644,-0.0006,-0.0318,0.0885,-0.0298,-0.0542,0.0268,-0.0,-0.0393,0.0736,-0.1361,-0.1675,-0.0946,-0.1052,0.001,0.0414,0.3661,0.4523,-0.057,0.3865,0.4373,0.0128,0.3984,0.4776,0.0105,0.3708,0.438,0.0374,0.3677,0.5221,-0.0189,0.3652,0.4215,0.0,0.0,-0.4896,0.0,0.0,0.0,0.0,0.0,0.0,
3.76,run,6.21,2.11,-1.21,-0.63,-1.88,-24.8,0.0,0.0,0.221,1.41,-5.1,102.48,-1.93,-4.04,100.99,0.97,-3.78,103.54,0.35,-4.75,101.87,1.23,-5.54,108.37,-0.7,-5.45,99.58,1.37,-5.23,104.51,-2.19,-3.97,103.04,0.27,-3.39,106.0,0.37,-4.88,103.27,1.13,-5.29,109.8,-0.64,-5.4,101.64,0.0392,0.3595,0.4648,-0.0626,0.3824,0.4475,0.0078,0.3929,0.4823,0.0105,0.3658,0.4502,0.0324,0.3584,0.527,-0.0184,0.3564,0.431,0.0,0.0,0.045,0.006,0.006,0.117,0.026,0.013,0.221,0.0,0.0,0.033,0.0,0.013,0.182,0.006,0.006,0.058,0.0307,-0.3988,0.6427,-0.0583,-0.3636,0.4847,-0.0291,-0.4157,0.3497,-0.0123,-0.4126,0.4694,0.0184,-0.4433,0.4433,-0.0245,-0.3912,0.3774,-0.0098,-0.0353,0.0874,-0.0159,-0.0267,0.0906,-0.0131,-0.0262,0.0681,-0.0004,-0.0454,0.0908,-0.0209,-0.0437,0.0188,-0.0115,-0.0621,0.0803,-0.1449,-0.1717,-0.0422,-0.0138,-0.0186,0.0423,0.3666,0.4637,-0.0629,0.3879,0.4423,0.0053,0.3968,0.4817,0.009,0.371,0.4476,0.0319,0.3614,0.526,-0.0174,0.3601,0.4264,0.0,0.0,-0.4968,0.0,0.0,0.0,0.0,0.0,0.0,
3.8,run,6.18,2.13,0.21,0.65,-1.97,-25.2,0.0,0.0,0.221,1.41,-5.27,103.01,-2.11,-4.13,101.34,0.79,-3.96,103.71,0.35,-4.92,102.3,1.23,-5.89,108.63,-0.7,-5.71,99.93,1.31,-5.53,104.95,-2.25,-4.17,103.44,0.3,-3.6,106.17,0.4,-5.05,103.64,1.11,-5.59,109.71,-0.59,-5.63,101.93,0.0374,0.3541,0.4701,-0.0644,0.3787,0.4522,0.0086,0.389,0.4843,0.0114,0.3627,0.4545,0.0316,0.3529,0.526,-0.0169,0.3522,0.4345,0.0,0.0,0.045,0.006,0.006,0.117,0.026,0.013,0.221,0.0,0.0,0.033,0.0,0.013,0.182,0.006,0.006,0.058,0.0291,-0.4034,0.6489,-0.0614,-0.3651,0.4924,-0.0322,-0.4203,0.3543,-0.0123,-0.4157,0.4786,0.0184,-0.4449,0.4525,-0.0245,-0.3927,0.3804,-0.0126,-0.042,0.0843,-0.0226,-0.0244,0.0922,-0.0207,-0.0356,0.065,-0.0003,-0.0433,0.0981,-0.0146,-0.0364,0.0477,-0.0081,-0.0492,0.0678,-0.1508,-0.1752,-0.0212,-0.011,-0.0329,0.0392,0.3595,0.4648,-0.0626,0.3824,0.4475,0.0078,0.3929,0.4823,0.0105,0.3658,0.4502,0.0324,0.3584,0.527,-0.0184,0.3564,0.431,0.0,0.0,-0.504,0.0,0.0,0.0,0.0,0.0,0.0,
3.84,run,6.21,2.18,0.96,1.32,0.32,-25.6,0.0,0.0,0.221,1.41,-5.62,103.36,-2.11,-4.66,101.87,0.79,-4.13,103.97,0.35,-5.19,102.66,1.23,-6.15,108.72,-0.7,-5.98,100.28,1.26,-5.81,105.29,-2.29,-4.39,103.88,0.29,-3.81,106.43,0.46,-5.27,103.97,1.08,-5.78,109.87,-0.62,-5.82,102.19,0.0361,0.3489,0.474,-0.0654,0.3747,0.4574,0.0083,0.3852,0.4874,0.013,0.3587,0.4585,0.031,0.3494,0.5279,-0.0176,0.3487,0.4376,0.0,0.0,0.045,0.0,0.006,0.156,0.013,0.019,0.143,0.0,0.0,0.071,0.006,0.019,0.084,0.0,0.006,0.058,0.0291,-0.4065,0.6581,-0.0644,-0.3666,0.4985,-0.0353,-0.4234,0.3574,-0.0123,-0.4188,0.4863,0.0184,-0.451,0.4571,-0.0245,-0.3973,0.3866,-0.0088,-0.0409,0.0935,-0.0274,-0.0229,0.0876,-0.026,-0.0365,0.057,-0.0002,-0.0418,0.0975,-0.0102,-0.0485,0.0507,-0.0057,-0.0517,0.0705,-0.1527,-0.1734,0.0037,0.0114,-0.0343,0.0374,0.3541,0.4701,-0.0644,0.3787,0.4522,0.0086,0.389,0.4843,0.0114,0.3627,0.4545,0.0316,0.3529,0.526,-0.0169,0.3522,0.4345,0.0,0.0,-0.5112,0.0,0.0,0.0,0.0,0.0,0.0,
3.88,run,6.2,2.2,-0.79,-0.23,0.1,-25.9,0.0,0.0,0.221,1.32,-5.98,103.8,-2.11,-4.83,102.3,0.79,-4.31,104.15,0.35,-5.45,103.1,1.14,-6.5,108.72,-0.7,-6.06,100.63,1.26,-6.04,105.46,-2.24,-4.57,104.19,0.24,-4.0,106.67,0.43,-5.49,104.19,1.04,-5.96,110.1,-0.64,-6.03,102.39,0.0361,0.3448,0.476,-0.0639,0.3714,0.461,0.007,0.3817,0.4903,0.0124,0.3547,0.4611,0.0297,0.3462,0.5306,-0.0182,0.3449,0.4399,0.0,0.0,0.045,0.0,0.006,0.156,0.013,0.019,0.143,0.0,0.0,0.071,0.006,0.019,0.084,0.0,0.006,0.058,0.0291,-0.4126,0.6642,-0.0644,-0.3758,0.5077,-0.0353,-0.4264,0.362,-0.0123,-0.4234,0.4924,0.0184,-0.4556,0.4587,-0.0245,-0.4019,0.3927,-0.0062,-0.0516,0.0885,-0.0192,-0.0505,0.0958,-0.0182,-0.037,0.0572,-0.0001,-0.0465,0.0912,-0.0072,-0.0512,0.0412,-0.004,-0.0535,0.0723,-0.1505,-0.169,0.0168,0.0231,0.0056,0.0361,0.3489,0.474,-0.0654,0.3747,0.4574,0.0083,0.3852,0.4874,0.013,0.3587,0.4585,0.031,0.3494,0.5279,-0.0176,0.3487,0.4376,0.0,0.0,-0.5184,0.0,0.0,0.0,0.0,0.0,0.0,
3.92,run,6.27,2.22,1.43,0.42,-2.14,-26.3,0.0,0.0,0.221,1.32,-6.33,104.15,-2.11,-5.1,102.48,0.79,-4.48,104.33,0.35,-5.71,103.36,1.05,-6.59,108.72,-0.7,-6.42,100.81,1.25,-6.18,105.92,-2.28,-4.66,104.54,0.15,-4.15,106.98,0.42,-5.66,104.61,0.93,-6.14,110.38,-0.64,-6.25,102.64,0.0356,0.3422,0.4814,-0.0652,0.3698,0.4652,0.0043,0.3791,0.4939,0.012,0.3517,0.4661,0.0266,0.3429,0.5339,-0.0182,0.3409,0.4428,0.0,0.0,0.045,0.0,0.006,0.156,0.013,0.019,0.143,0.0,0.0,0.071,0.006,0.019,0.084,0.0,0.006,0.058,0.0276,-0.4188,0.6719,-0.0644,-0.3789,0.5154,-0.0353,-0.4295,0.3651,-0.0123,-0.428,0.5001,0.0169,-0.4617,0.4587,-0.0245,-0.4034,0.3988,-0.0101,-0.0592,0.0907,-0.0134,-0.0469,0.0958,-0.0127,-0.0374,0.0515,-0.0001,-0.0498,0.0926,-0.0108,-0.0588,0.0289,-0.0028,-0.0432,0.0736,-0.1516,-0.1673,-0.0137,-0.0041,0.0018,0.0361,0.3448,0.476,-0.0639,0.3714,0.461,0.007,0.3817,0.4903,0.0124,0.3547,0.4611,0.0297,0.3462,0.5306,-0.0182,0.3449,0.4399,0.0,0.0,-0.5256,0.0,0.0,0.0,0.0,0.0,0.0,
3.96,run,6.3,2.33,-0.6,3.02,0.7,-26.6,0.0,0.0,0.221,1.32,-6.42,104.41,-2.11,-5.19,102.74,0.79,-4.83,104.59,0.35,-5.71,103.62,1.05,-6.59,109.07,-0.7,-6.59,100.99,1.16,-6.46,106.16,-2.27,-4.89,104.95,0.2,-4.46,107.31,0.5,-5.91,104.89,0.87,-6.38,110.53,-0.62,-6.42,102.94,0.0331,0.3371,0.4842,-0.0649,0.3657,0.47,0.0056,0.3734,0.4978,0.0141,0.3471,0.4693,0.0248,0.3385,0.5356,-0.0178,0.3378,0.4464,0.006,0.0,0.045,0.006,0.0,0.149,0.019,0.019,0.123,0.006,0.006,0.058,0.006,0.0,0.084,0.0,0.006,0.052,0.0276,-0.4249,0.678,-0.0644,-0.3835,0.5185,-0.0353,-0.4326,0.3682,-0.0123,-0.4326,0.5047,0.0153,-0.4633,0.4587,-0.0245,-0.4096,0.4019,-0.0071,-0.0643,0.0864,-0.0094,-0.05,0.0785,-0.0089,-0.0376,0.0475,-0.0001,-0.052,0.082,-0.0133,-0.0469,0.0202,-0.0019,-0.0531,0.063,-0.1448,-0.1653,0.0249,0.0074,-0.0374,0.0356,0.3422,0.4814,-0.0652,0.3698,0.4652,0.0043,0.3791,0.4939,0.012,0.3517,0.4661,0.0266,0.3429,0.5339,-0.0182,0.3409,0.4428,0.0,0.0,-0.5328,0.0,0.0,0.0,0.0,0.0,0.0,
4.0,run,6.13,2.29,-3.45,-0.68,-0.13,-27.0,0.0,0.0,0.221,1.23,-6.68,104.77,-2.11,-5.36,103.27,0.79,-4.83,104.94,0.44,-5.89,104.06,0.97,-6.94,109.25,-0.7,-6.86,101.34,1.16,-6.74,106.29,-2.19,-5.18,105.24,0.17,-4.64,107.52,0.47,-6.17,105.08,0.88,-6.56,110.66,-0.67,-6.68,103.02,0.0332,0.3319,0.4858,-0.0624,0.3604,0.4734,0.0048,0.3702,0.5002,0.0135,0.3424,0.4715,0.025,0.3353,0.5372,-0.019,0.3331,0.4473,0.006,0.0,0.045,0.006,0.0,0.149,0.019,0.019,0.123,0.006,0.006,0.058,0.006,0.0,0.084,0.0,0.006,0.052,0.0276,-0.4264,0.6826,-0.0644,-0.385,0.5231,-0.0353,-0.4387,0.3728,-0.0123,-0.4326,0.5093,0.0153,-0.4633,0.4648,-0.0245,-0.4126,0.405,-0.0049,-0.0508,0.0778,-0.0066,-0.0407,0.0723,-0.0062,-0.0495,0.0506,-0.0,-0.0364,0.0747,-0.0093,-0.0328,0.0373,-0.0014,-0.0487,0.0556,-0.143,-0.1562,-0.0105,0.0527,0.0123,0.0331,0.3371,0.4842,-0.0649,0.3657,0.47,0.0056,0.3734,0.4978,0.0141,0.3471,0.4693,0.0248,0.3385,0.5356,-0.0178,0.3378,0.4464,0.0,0.0,-0.54,0.0,0.0,0.0,0.0,0.0,0.0,
4.04,run,6.04,2.25,-1.54,-1.53,0.73,-27.4,0.0,0.0,0.221,1.23,-6.77,105.03,-2.11,-5.62,103.62,0.79,-5.19,105.12,0.44,-6.06,104.24,0.88,-7.29,109.42,-0.7,-6.94,101.51,1.12,-6.85,106.86,-2.27,-5.18,105.64,0.03,-4.75,107.73,0.41,-6.31,105.61,0.72,-6.78,110.9,-0.69,-6.91,103.36,0.032,0.33,0.4925,-0.0648,0.3603,0.4781,0.0009,0.3683,0.5027,0.0118,0.3399,0.4777,0.0205,0.3312,0.54,-0.0197,0.3289,0.4513,0.006,0.0,0.045,0.006,0.0,0.149,0.019,0.019,0.123,0.006,0.006,0.058,0.006,0.0,0.084,0.0,0.006,0.052,0.0261,-0.431,0.6888,-0.0644,-0.3881,0.5323,-0.0353,-0.4387,0.3789,-0.0107,-0.4357,0.517,0.0138,-0.4694,0.4679,-0.0245,-0.4172,0.4111,-0.0092,-0.0528,0.0775,-0.0046,-0.04,0.0851,-0.0044,-0.0346,0.0584,0.0057,-0.037,0.0811,-0.0122,-0.046,0.0376,-0.001,-0.0514,0.062,-0.1571,-0.1597,-0.0602,-0.0118,-0.0022,0.0332,0.3319,0.4858,-0.0624,0.3604,0.4734,0.0048,0.3702,0.5002,0.0135,0.3424,0.4715,0.025,0.3353,0.5372,-0.019,0.3331,0.4473,0.0,0.0,-0.5472,0.0,0.0,0.0,0.0,0.0,0.0,
4.08,run,5.99,2.36,-1.89,3.26,-2.07,-27.7,0.0,0.0,0.221,1.23,-7.03,105.12,-2.11,-5.71,104.06,0.7,-5.36,105.47,0.44,-6.42,104.59,0.79,-7.38,109.6,-0.7,-7.38,101.78,1.1,-7.16,107.12,-2.33,-5.41,105.87,-0.0,-4.97,107.88,0.46,-6.55,105.84,0.69,-7.1,110.95,-0.69,-7.17,103.53,0.0314,0.3244,0.4955,-0.0665,0.3562,0.4808,-0.0001,0.3641,0.5045,0.0132,0.3355,0.4804,0.0196,0.3255,0.5406,-0.0197,0.3241,0.4532,0.0,0.0,0.091,0.006,0.006,0.169,0.019,0.013,0.117,0.0,0.0,0.045,0.0,0.013,0.117,0.0,0.0,0.052,0.0261,-0.4326,0.6934,-0.0644,-0.3927,0.5384,-0.0353,-0.4449,0.382,-0.0107,-0.4387,0.52,0.0123,-0.4755,0.4709,-0.0245,-0.4188,0.4142,-0.0064,-0.0427,0.0716,-0.0032,-0.0454,0.0827,-0.0031,-0.0473,0.0525,0.004,-0.0375,0.0683,-0.0144,-0.0553,0.0379,-0.0007,-0.0417,0.0549,-0.1651,-0.1633,-0.0269,-0.0267,0.0127,0.032,0.33,0.4925,-0.0648,0.3603,0.4781,0.0009,0.3683,0.5027,0.0118,0.3399,0.4777,0.0205,0.3312,0.54,-0.0197,0.3289,0.4513,0.0,0.0,-0.5544,0.0,0.0,0.0,0.0,0.0,0.0,
4.12,run,5.94,2.21,-0.61,-3.61,0.03,-28.1,0.0,0.0,0.221,1.14,-7.29,105.64,-2.11,-5.89,104.41,0.7,-5.62,105.82,0.44,-6.68,105.03,0.79,-7.56,109.6,-0.7,-7.47,102.13,0.95,-7.49,107.33,-2.22,-5.62,106.46,0.05,-5.15,108.18,0.48,-6.83,106.23,0.62,-7.22,111.17,-0.74,-7.37,103.91,0.027,0.3183,0.4981,-0.0634,0.3523,0.4878,0.0015,0.3609,0.508,0.0136,0.3303,0.485,0.0176,0.3233,0.5431,-0.0212,0.3206,0.4577,0.0,0.0,0.091,0.006,0.006,0.169,0.019,0.013,0.117,0.0,0.0,0.045,0.0,0.013,0.117,0.0,0.0,0.052,0.0261,-0.4372,0.6949,-0.0644,-0.3942,0.5461,-0.0368,-0.4479,0.3881,-0.0107,-0.4449,0.5262,0.0107,-0.4771,0.474,-0.0245,-0.4264,0.4188,-0.0045,-0.0471,0.0558,-0.0023,-0.0375,0.0866,-0.0079,-0.0446,0.0596,0.0028,-0.0491,0.0707,-0.0158,-0.0444,0.038,-0.0005,-0.0579,0.0556,-0.1694,-0.1533,-0.033,0.0568,-0.0361,0.0314,0.3244,0.4955,-0.0665,0.3562,0.4808,-0.0001,0.3641,0.5045,0.0132,0.3355,0.4804,0.0196,0.3255,0.5406,-0.0197,0.3241,0.4532,0.0,0.0,-0.5616,0.0,0.0,0.0,0.0,0.0,0.0,
4.16,run,5.82,2.36,-4.08,2.67,0.61,-28.4,0.0,0.0,0.221,0.97,-7.56,106.08,-2.11,-6.15,104.5,0.7,-5.89,106.0,0.44,-6.86,105.29,0.62,-7.91,109.69,-0.79,-7.73,102.3,1.0,-7.63,107.9,-2.4,-5.74,106.56,-0.06,-5.37,108.22,0.45,-6.94,106.46,0.53,-7.58,111.09,-0.69,-7.6,104.01,0.0286,0.3158,0.5047,-0.0687,0.3501,0.489,-0.0018,0.3569,0.5085,0.0129,0.3283,0.4878,0.0152,0.3167,0.5423,-0.0197,0.3164,0.459,0.0,0.0,0.091,0.006,0.006,0.169,0.019,0.013,0.117,0.0,0.0,0.045,0.0,0.013,0.117,0.0,0.0,0.052,0.0245,-0.4418,0.7041,-0.0644,-0.3973,0.5522,-0.0368,-0.4525,0.3942,-0.0107,-0.4495,0.5338,0.0107,-0.4801,0.474,-0.0245,-0.428,0.4249,-0.0089,-0.0502,0.0736,-0.0016,-0.0377,0.0836,-0.0055,-0.0485,0.0648,0.002,-0.0517,0.0783,-0.011,-0.0426,0.0266,-0.0003,-0.0463,0.062,-0.1737,-0.1665,-0.0106,-0.0631,0.0004,0.027,0.3183,0.4981,-0.0634,0.3523,0.4878,0.0015,0.3609,0.508,0.0136,0.3303,0.485,0.0176,0.3233,0.5431,-0.0212,0.3206,0.4577,0.0,0.0,-0.5688,0.0,0.0,0.0,0.0,0.0,0.0,
4.2,run,5.86,2.42,0.9,1.87,-2.08,-28.8,0.0,0.0,0.221,0.97,-7.82,106.35,-2.11,-6.24,104.94,0.7,-5.89,106.17,0.44,-7.03,105.64,0.62,-7.91,109.95,-0.79,-7.91,102.48,0.93,-7.94,107.83,-2.22,-5.91,107.13,-0.11,-5.46,108.52,0.41,-7.26,106.86,0.5,-7.64,111.54,-0.83,-7.88,104.38,0.0267,0.3103,0.5039,-0.0635,0.3471,0.4957,-0.0032,0.3552,0.512,0.0116,0.3225,0.4924,0.0144,0.3157,0.5475,-0.0237,0.3114,0.4632,0.0,0.0,0.033,0.006,0.006,0.169,0.019,0.013,0.123,0.0,0.0,0.039,0.006,0.006,0.091,0.0,0.0,0.052,0.0215,-0.4464,0.7118,-0.0644,-0.4019,0.5538,-0.0368,-0.4571,0.3973,-0.0107,-0.4525,0.5384,0.0077,-0.4863,0.4755,-0.0261,-0.4326,0.428,-0.0177,-0.0524,0.0803,-0.0011,-0.0437,0.0643,-0.0039,-0.0512,0.0568,0.0014,-0.0477,0.0721,-0.0192,-0.0528,0.0244,-0.006,-0.0496,0.0549,-0.1845,-0.1531,-0.0711,0.0466,0.0106,0.0286,0.3158,0.5047,-0.0687,0.3501,0.489,-0.0018,0.3569,0.5085,0.0129,0.3283,0.4878,0.0152,0.3167,0.5423,-0.0197,0.3164,0.459,0.0,0.0,-0.576,0.0,0.0,0.0,0.0,0.0,0.0,
4.24,run,5.67,2.38,-4.44,0.22,-1.25,-29.2,0.0,0.0,0.221,0.97,-8.09,106.7,-2.11,-6.24,105.29,0.7,-5.89,106.26,0.44,-7.29,106.0,0.7,-8.26,110.21,-0.79,-8.17,102.74,0.86,-8.23,108.22,-2.33,-6.16,107.49,-0.01,-5.81,108.73,0.47,-7.52,107.03,0.46,-7.95,111.47,-0.78,-8.01,104.6,0.0245,0.3049,0.5085,-0.0665,0.3425,0.4999,-0.0002,0.3489,0.5144,0.0135,0.3177,0.4945,0.0132,0.31,0.5467,-0.0224,0.309,0.4659,0.0,0.0,0.033,0.006,0.006,0.169,0.019,0.013,0.123,0.0,0.0,0.039,0.006,0.006,0.091,0.0,0.0,0.052,0.0215,-0.451,0.7164,-0.0644,-0.4034,0.5614,-0.0368,-0.4571,0.4004,-0.0107,-0.4556,0.5446,0.0077,-0.4863,0.4801,-0.0261,-0.4357,0.431,-0.0124,-0.054,0.0735,-0.0008,-0.0363,0.0738,-0.0027,-0.0358,0.0513,0.001,-0.0449,0.0735,-0.0135,-0.037,0.0343,-0.0042,-0.0463,0.0499,-0.1811,-0.1481,0.0157,0.0326,-0.0363,0.0267,0.3103,0.5039,-0.0635,0.3471,0.4957,-0.0032,0.3552,0.512,0.0116,0.3225,0.4924,0.0144,0.3157,0.5475,-0.0237,0.3114,0.4632,0.0,0.0,-0.5832,0.0,0.0,0.0,0.0,0.0,0.0,
4.28,run,5.77,2.3,2.03,-1.84,1.29,-29.5,0.0,0.0,0.221,0.88,-8.26,106.79,-2.11,-6.42,105.73,0.62,-6.06,106.52,0.44,-7.47,106.26,0.44,-8.44,110.48,-0.79,-8.44,103.01,0.82,-8.38,108.64,-2.35,-6.25,107.88,-0.18,-5.9,108.86,0.42,-7.72,107.53,0.33,-8.14,111.64,-0.87,-8.29,104.89,0.0234,0.3023,0.5134,-0.067,0.341,0.5044,-0.0052,0.3473,0.5161,0.0119,0.3143,0.5004,0.0093,0.3066,0.5487,-0.025,0.3037,0.4693,0.0,0.0,0.033,0.006,0.006,0.169,0.019,0.013,0.123,0.0,0.0,0.039,0.006,0.006,0.091,0.0,0.0,0.052,0.0215,-0.4556,0.7225,-0.0644,-0.4034,0.5676,-0.0368,-0.4571,0.4019,-0.0107,-0.4602,0.5507,0.0092,-0.4924,0.4847,-0.0261,-0.4403,0.4357,-0.0087,-0.0551,0.0745,-0.0005,-0.0254,0.0747,-0.0019,-0.0251,0.0417,0.0007,-0.0487,0.0745,-0.0037,-0.049,0.0413,-0.0029,-0.0497,0.0523,-0.198,-0.1519,-0.0775,0.0038,-0.0218,0.0245,0.3049,0.5085,-0.0665,0.3425,0.4999,-0.0002,0.3489,0.5144,0.0135,0.3177,0.4945,0.0132,0.31,0.5467,-0.0224,0.309,0.4659,0.0,0.0,-0.5904,0.0,0.0,0.0,0.0,0.0,0.0,
4.32,run,5.86,2.19,2.84,-5.4,0.97,-29.9,0.0,0.0,0.221,0.97,-8.53,107.23,-2.11,-6.86,106.26,0.62,-6.59,106.79,0.44,-7.73,106.52,0.53,-8.7,110.48,-0.79,-8.53,103.36,0.84,-8.72,108.88,-2.43,-6.62,108.03,-0.09,-6.26,108.87,0.46,-7.92,107.55,0.4,-8.43,111.53,-0.76,-8.48,104.98,0.0241,0.2961,0.5162,-0.0694,0.3341,0.5062,-0.0027,0.3408,0.5161,0.0131,0.3106,0.5006,0.0114,0.3013,0.5474,-0.0219,0.3004,0.4704,0.0,0.0,0.033,0.006,0.006,0.136,0.013,0.019,0.13,0.0,0.0,0.045,0.0,0.026,0.084,0.0,0.0,0.045,0.0199,-0.4587,0.724,-0.0644,-0.4065,0.5752,-0.0383,-0.4602,0.4065,-0.0107,-0.4633,0.5553,0.0046,-0.4955,0.4893,-0.0261,-0.4449,0.4403,-0.0117,-0.0499,0.0578,-0.0004,-0.0291,0.0806,-0.007,-0.0289,0.0462,0.0005,-0.0454,0.0691,-0.0195,-0.0456,0.0459,-0.0021,-0.0518,0.0536,-0.1891,-0.1591,0.0355,-0.032,0.0224,0.0234,0.3023,0.5134,-0.067,0.341,0.5044,-0.0052,0.3473,0.5161,0.0119,0.3143,0.5004,0.0093,0.3066,0.5487,-0.025,0.3037,0.4693,0.0,0.0,-0.5976,0.0,0.0,0.0,0.0,0.0,0.0,
4.36,run,5.91,2.2,1.29,0.68,-1.04,-30.2,0.0,0.0,0.221,0.88,-8.79,107.67,-2.2,-7.12,106.44,0.62,-6.59,106.79,0.44,-8.0,106.88,0.53,-8.96,110.57,-0.79,-8.88,103.71,0.82,-8.92,109.32,-2.47,-6.75,108.12,-0.15,-6.49,109.06,0.52,-8.09,107.74,0.31,-8.75,111.55,-0.7,-8.71,105.02,0.0235,0.2924,0.5214,-0.0706,0.3318,0.5073,-0.0043,0.3365,0.5184,0.0148,0.3075,0.5028,0.0088,0.2955,0.5477,-0.0201,0.2962,0.4708,0.0,0.0,0.033,0.006,0.006,0.136,0.013,0.019,0.13,0.0,0.0,0.045,0.0,0.026,0.084,0.0,0.0,0.045,0.0215,-0.4633,0.7317,-0.0644,-0.4142,0.5844,-0.0383,-0.4694,0.4111,-0.0107,-0.4679,0.5599,0.0061,-0.5001,0.4893,-0.0261,-0.4464,0.4464,-0.0024,-0.0524,0.0696,-0.0003,-0.0495,0.0913,-0.0049,-0.0551,0.0498,0.0003,-0.0493,0.0659,-0.0079,-0.0494,0.0321,-0.0014,-0.0421,0.0608,-0.1812,-0.1685,0.0496,-0.0943,0.017,0.0241,0.2961,0.5162,-0.0694,0.3341,0.5062,-0.0027,0.3408,0.5161,0.0131,0.3106,0.5006,0.0114,0.3013,0.5474,-0.0219,0.3004,0.4704,0.0,0.0,-0.6048,0.0,0.0,0.0,0.0,0.0,0.0,
4.4,run,5.95,2.2,1.15,1.87,-0.15,-30.6,0.0,0.0,0.221,0.88,-8.88,107.93,-2.2,-7.29,106.44,0.62,-6.94,106.79,0.44,-8.09,106.88,0.53,-9.05,110.57,-0.79,-8.96,103.8,0.73,-9.23,109.33,-2.33,-6.95,108.59,-0.11,-6.7,109.31,0.55,-8.34,108.03,0.29,-8.8,111.84,-0.73,-8.94,105.3,0.0208,0.2868,0.5216,-0.0666,0.3282,0.5128,-0.0031,0.3328,0.5213,0.0158,0.3028,0.5062,0.0082,0.2946,0.551,-0.0209,0.292,0.4741,0.0,0.0,0.033,0.006,0.006,0.136,0.013,0.019,0.13,0.0,0.0,0.045,0.0,0.026,0.084,0.0,0.0,0.045,0.0199,-0.4679,0.7394,-0.066,-0.4188,0.5875,-0.0383,-0.4694,0.4111,-0.0107,-0.4725,0.566,0.0061,-0.5047,0.4909,-0.0261,-0.4525,0.4525,-0.0064,-0.0507,0.0721,-0.0049,-0.0487,0.0733,-0.0034,-0.0386,0.0348,0.0002,-0.0485,0.0649,-0.0055,-0.0486,0.0272,-0.001,-0.0482,0.0613,-0.1769,-0.1672,0.0225,0.0118,-0.0182,0.0235,0.2924,0.5214,-0.0706,0.3318,0.5073,-0.0043,0.3365,0.5184,0.0148,0.3075,0.5028,0.0088,0.2955,0.5477,-0.0201,0.2962,0.4708,0.0,0.0,-0.612,0.0,0.0,0.0,0.0,0.0,0.0,
4.44,run,5.95,2.23,-0.05,0.61,1.96,-31.0,0.0,0.0,0.221,0.79,-9.23,108.19,-2.2,-7.29,106.79,0.62,-7.29,107.23,0.44,-8.35,107.23,0.35,-9.49,110.57,-0.79,-9.32,103.89,0.72,-9.51,109.45,-2.29,-7.23,108.81,-0.12,-6.96,109.5,0.59,-8.62,108.21,0.27,-9.04,111.93,-0.73,-9.21,105.41,0.0205,0.2816,0.523,-0.0655,0.323,0.5154,-0.0035,0.3279,0.5235,0.0167,0.2978,0.5084,0.0078,0.2901,0.5521,-0.0208,0.2871,0.4754,0.006,0.0,0.039,0.0,0.0,0.175,0.019,0.013,0.104,0.006,0.0,0.026,0.006,0.019,0.149,0.0,0.006,0.065,0.0199,-0.4694,0.744,-0.066,-0.4218,0.5875,-0.0383,-0.4755,0.4111,-0.0107,-0.474,0.566,0.0061,-0.5062,0.4909,-0.0261,-0.4541,0.4541,-0.0045,-0.0412,0.0674,-0.0034,-0.0454,0.0513,-0.0024,-0.0496,0.0244,0.0002,-0.0396,0.0454,-0.0038,-0.0397,0.019,-0.0007,-0.0394,0.0486,-0.173,-0.1673,0.0201,0.0327,-0.0026,0.0208,0.2868,0.5216,-0.0666,0.3282,0.5128,-0.0031,0.3328,0.5213,0.0158,0.3028,0.5062,0.0082,0.2946,0.551,-0.0209,0.292,0.4741,0.0,0.0,-0.6192,0.0,0.0,0.0,0.0,0.0,0.0,
4.48,run,5.93,2.26,-0.12,0.13,-2.46,-31.3,0.0,0.0,0.221,0.79,-9.49,108.37,-2.2,-7.65,107.31,0.62,-7.38,107.49,0.62,-8.7,107.4,0.44,-9.49,110.74,-0.79,-9.49,103.97,0.71,-9.73,109.77,-2.26,-7.46,109.08,-0.19,-7.16,109.63,0.56,-8.84,108.46,0.2,-9.24,112.07,-0.74,-9.47,105.62,0.0202,0.2776,0.5267,-0.0647,0.319,0.5186,-0.0054,0.3243,0.5251,0.0159,0.2938,0.5113,0.0058,0.2865,0.5537,-0.0211,0.2824,0.4778,0.006,0.0,0.039,0.0,0.0,0.175,0.019,0.013,0.104,0.006,0.0,0.026,0.006,0.019,0.149,0.0,0.006,0.065,0.0184,-0.4755,0.7486,-0.066,-0.4218,0.5937,-0.0383,-0.4817,0.4188,-0.0107,-0.4786,0.5722,0.0031,-0.5139,0.4909,-0.0261,-0.4602,0.4556,-0.0089,-0.052,0.0646,-0.0024,-0.0318,0.0591,-0.0017,-0.0579,0.046,0.0001,-0.0451,0.055,-0.0143,-0.0568,0.0133,-0.0005,-0.0507,0.0398,-0.1732,-0.1646,-0.0008,0.0106,0.0343,0.0205,0.2816,0.523,-0.0655,0.323,0.5154,-0.0035,0.3279,0.5235,0.0167,0.2978,0.5084,0.0078,0.2901,0.5521,-0.0208,0.2871,0.4754,0.0,0.0,-0.6264,0.0,0.0,0.0,0.0,0.0,0.0,
4.52,run,5.95,2.29,0.49,0.67,1.87,-31.7,0.0,0.0,0.221,0.7,-9.76,108.54,-2.2,-7.91,107.58,0.62,-7.73,107.67,0.62,-8.79,107.58,0.26,-9.67,110.92,-0.79,-9.76,104.06,0.58,-9.96,110.11,-2.26,-7.54,109.44,-0.16,-7.43,109.83,0.56,-9.1,108.77,0.04,-9.52,112.11,-0.74,-9.66,105.92,0.0166,0.2734,0.5307,-0.0647,0.3174,0.5229,-0.0047,0.3195,0.5274,0.0161,0.2891,0.515,0.001,0.2815,0.5542,-0.0211,0.279,0.4814,0.006,0.0,0.039,0.0,0.0,0.175,0.019,0.013,0.104,0.006,0.0,0.026,0.006,0.019,0.149,0.0,0.006,0.065,0.0184,-0.4801,0.7517,-0.066,-0.428,0.6029,-0.0383,-0.4832,0.4234,-0.0077,-0.4847,0.5752,0.0046,-0.5139,0.4939,-0.0261,-0.4633,0.4571,-0.0062,-0.0534,0.0566,-0.0017,-0.045,0.0754,-0.0012,-0.0462,0.0493,0.0114,-0.0543,0.0498,-0.0043,-0.0397,0.0207,-0.0003,-0.0469,0.0335,-0.1751,-0.1622,-0.0021,0.0022,-0.043,0.0202,0.2776,0.5267,-0.0647,0.319,0.5186,-0.0054,0.3243,0.5251,0.0159,0.2938,0.5113,0.0058,0.2865,0.5537,-0.0211,0.2824,0.4778,0.0,0.0,-0.6336,0.0,0.0,0.0,0.0,0.0,0.0,
4.56,run,5.99,2.35,0.9,1.39,-0.26,-32.0,0.0,0.0,0.221,0.7,-9.93,108.81,-2.2,-8.17,107.93,0.62,-7.82,107.84,0.62,-9.23,107.93,0.26,-10.11,111.01,-0.79,-10.02,104.41,0.63,-10.23,110.15,-2.2,-7.86,109.64,-0.18,-7.68,109.9,0.52,-9.34,108.85,0.09,-9.75,112.22,-0.74,-9.93,106.04,0.0179,0.2685,0.5312,-0.0629,0.3116,0.5251,-0.0052,0.3149,0.5282,0.0148,0.2847,0.5159,0.0025,0.2773,0.5555,-0.0212,0.2739,0.4828,0.0,0.0,0.026,0.0,0.013,0.123,0.019,0.0,0.117,0.0,0.0,0.033,0.0,0.019,0.091,0.0,0.0,0.078,0.0169,-0.4847,0.7547,-0.066,-0.4326,0.6075,-0.0383,-0.4893,0.4264,-0.0077,-0.4863,0.5783,0.0015,-0.517,0.497,-0.0261,-0.4679,0.4587,-0.01,-0.0542,0.0508,-0.0012,-0.0483,0.0696,-0.0008,-0.0547,0.0457,0.008,-0.0436,0.0461,-0.0142,-0.039,0.0257,-0.0002,-0.0496,0.0291,-0.1736,-0.1593,0.0085,0.0117,0.0326,0.0166,0.2734,0.5307,-0.0647,0.3174,0.5229,-0.0047,0.3195,0.5274,0.0161,0.2891,0.515,0.001,0.2815,0.5542,-0.0211,0.279,0.4814,0.0,0.0,-0.6408,0.0,0.0,0.0,0.0,0.0,0.0,
4.6,run,5.98,2.28,0.73,-1.46,-1.39,-32.4,0.0,0.0,0.221,0.7,-10.28,109.07,-2.2,-8.35,108.19,0.62,-8.26,107.84,0.62,-9.32,108.11,0.26,-10.37,111.01,-0.79,-10.11,104.68,0.56,-10.5,110.41,-2.17,-8.05,109.98,-0.19,-7.93,110.09,0.52,-9.6,109.07,0.0,-9.92,112.36,-0.78,-10.15,106.27,0.016,0.2637,0.5343,-0.0621,0.3082,0.5292,-0.0055,0.3103,0.5305,0.0149,0.2801,0.5185,0.0001,0.2741,0.5572,-0.0223,0.27,0.4855,0.0,0.0,0.026,0.0,0.013,0.123,0.019,0.0,0.117,0.0,0.0,0.033,0.0,0.019,0.091,0.0,0.0,0.078,0.0169,-0.4878,0.7593,-0.066,-0.4372,0.6136,-0.0383,-0.4909,0.4295,-0.0077,-0.4939,0.5844,0.0015,-0.5246,0.4985,-0.0261,-0.4725,0.4648,-0.007,-0.05,0.0536,-0.0008,-0.0518,0.0728,-0.0006,-0.0443,0.044,0.0056,-0.0606,0.0563,-0.01,-0.0574,0.024,-0.0002,-0.0528,0.0444,-0.1701,-0.1539,0.0157,0.0242,-0.0046,0.0179,0.2685,0.5312,-0.0629,0.3116,0.5251,-0.0052,0.3149,0.5282,0.0148,0.2847,0.5159,0.0025,0.2773,0.5555,-0.0212,0.2739,0.4828,0.0,0.0,-0.648,0.0,0.0,0.0,0.0,0.0,0.0,
4.64,run,6.03,2.34,1.28,1.19,1.41,-32.8,0.0,0.0,0.221,0.62,-10.46,109.16,-2.2,-8.53,108.37,0.62,-8.35,107.84,0.62,-9.58,108.11,0.26,-10.37,111.01,-0.79,-10.46,104.68,0.51,-10.73,110.75,-2.24,-8.22,110.13,-0.24,-8.18,110.23,0.59,-9.84,109.3,-0.07,-10.22,112.32,-0.74,-10.39,106.32,0.0145,0.2594,0.5382,-0.0639,0.3051,0.531,-0.0068,0.3059,0.5321,0.0169,0.2756,0.5212,-0.0021,0.2688,0.5567,-0.0212,0.2656,0.4861,0.0,0.0,0.026,0.0,0.013,0.123,0.019,0.0,0.117,0.0,0.0,0.033,0.0,0.019,0.091,0.0,0.0,0.078,0.0169,-0.4939,0.7639,-0.066,-0.4403,0.6182,-0.0383,-0.4985,0.4295,-0.0077,-0.4955,0.5875,0.0015,-0.5292,0.4985,-0.0261,-0.474,0.4694,-0.0049,-0.0579,0.0547,-0.0006,-0.0477,0.0681,-0.0004,-0.0596,0.0308,0.0039,-0.0481,0.0509,-0.007,-0.0573,0.0168,-0.0001,-0.0427,0.0482,-0.1702,-0.1608,0.0128,-0.0255,-0.0242,0.016,0.2637,0.5343,-0.0621,0.3082,0.5292,-0.0055,0.3103,0.5305,0.0149,0.2801,0.5185,0.0001,0.2741,0.5572,-0.0223,0.27,0.4855,0.0,0.0,-0.6552,0.0,0.0,0.0,0.0,0.0,0.0,
4.68,run,5.94,2.39,-2.63,0.98,-0.36,-33.1,0.0,0.0,0.221,0.53,-10.72,109.42,-2.2,-8.88,108.63,0.62,-8.53,108.28,0.62,-9.93,108.46,0.09,-10.81,111.01,-0.79,-10.63,104.94,0.5,-11.02,110.73,-2.11,-8.57,110.42,-0.21,-8.47,110.35,0.55,-10.13,109.41,-0.06,-10.43,112.43,-0.78,-10.65,106.6,0.0144,0.2541,0.538,-0.0602,0.2988,0.5344,-0.0059,0.3005,0.5335,0.0158,0.2704,0.5225,-0.0018,0.265,0.558,-0.0223,0.2609,0.4894,0.0,0.0,0.026,0.0,0.006,0.175,0.019,0.013,0.117,0.0,0.0,0.039,0.006,0.019,0.117,0.0,0.0,0.052,0.0153,-0.497,0.7655,-0.066,-0.4433,0.6213,-0.0383,-0.5001,0.4295,-0.0077,-0.5001,0.5875,0.0015,-0.5292,0.4985,-0.0261,-0.4801,0.4694,-0.0091,-0.0519,0.044,-0.0004,-0.0449,0.0591,-0.0003,-0.0475,0.0216,0.0027,-0.0509,0.0356,-0.0049,-0.0401,0.0118,-0.0001,-0.0528,0.0338,-0.1664,-0.1553,0.0224,0.0207,0.0246,0.0145,0.2594,0.5382,-0.0639,0.3051,0.531,-0.0068,0.3059,0.5321,0.0169,0.2756,0.5212,-0.0021,0.2688,0.5567,-0.0212,0.2656,0.4861,0.0,0.0,-0.6624,0.0,0.0,0.0,0.0,0.0,0.0,
4.72,run,5.99,2.45,0.75,1.36,-0.5,-33.5,0.0,0.0,0.221,0.53,-10.99,109.69,-2.2,-9.14,108.72,0.62,-9.05,108.28,0.62,-10.02,108.72,0.09,-11.07,111.01,-0.79,-10.9,105.03,0.46,-11.2,110.99,-2.06,-8.62,110.78,-0.31,-8.63,110.5,0.47,-10.35,109.74,-0.2,-10.6,112.67,-0.86,-10.94,106.93,0.0132,0.251,0.5411,-0.0589,0.2978,0.5386,-0.0088,0.2976,0.5353,0.0135,0.2663,0.5264,-0.0057,0.2618,0.5609,-0.0245,0.2557,0.4933,0.0,0.0,0.026,0.0,0.006,0.175,0.019,0.013,0.117,0.0,0.0,0.039,0.006,0.019,0.117,0.0,0.0,0.052,0.0138,-0.5016,0.7701,-0.066,-0.4495,0.6259,-0.0383,-0.5031,0.4372,-0.0077,-0.5062,0.5937,-0.0015,-0.5369,0.4985,-0.0261,-0.4832,0.474,-0.0122,-0.0536,0.0481,-0.0003,-0.0544,0.0587,-0.0002,-0.0447,0.0439,0.0019,-0.0586,0.0479,-0.0149,-0.0569,0.0082,-0.0001,-0.0484,0.0409,-0.1745,-0.1508,-0.0458,0.0171,-0.0064,0.0144,0.2541,0.538,-0.0602,0.2988,0.5344,-0.0059,0.3005,0.5335,0.0158,0.2704,0.5225,-0.0018,0.265,0.558,-0.0223,0.2609,0.4894,0.0,0.0,-0.6696,0.0,0.0,0.0,0.0,0.0,0.0,
4.76,run,5.99,2.37,-0.43,-1.84,-0.65,-33.8,0.0,0.0,0.221,0.53,-11.16,109.69,-2.2,-9.23,108.98,0.53,-9.05,108.37,0.62,-10.28,108.72,0.09,-11.07,111.45,-0.79,-10.99,105.21,0.42,-11.55,111.09,-2.04,-8.93,111.01,-0.27,-8.95,110.66,0.54,-10.66,109.77,-0.19,-10.89,112.7,-0.86,-11.15,106.99,0.012,0.2445,0.5423,-0.0583,0.2922,0.5413,-0.0077,0.2919,0.5372,0.0153,0.2607,0.5267,-0.0053,0.2565,0.5611,-0.0245,0.2518,0.494,0.0,0.0,0.026,0.0,0.006,0.175,0.019,0.013,0.117,0.0,0.0,0.039,0.006,0.019,0.117,0.0,0.0,0.052,0.0138,-0.5062,0.7747,-0.066,-0.4541,0.6274,-0.0383,-0.5123,0.4372,-0.0077,-0.5077,0.5983,-0.0015,-0.5415,0.4985,-0.0261,-0.4878,0.4755,-0.0085,-0.0542,0.0503,-0.0002,-0.0547,0.0466,-0.0001,-0.0646,0.0307,0.0013,-0.0466,0.0502,-0.0104,-0.0565,0.0058,-0.0,-0.0506,0.0342,-0.1698,-0.1455,0.0131,0.0237,-0.0087,0.0132,0.251,0.5411,-0.0589,0.2978,0.5386,-0.0088,0.2976,0.5353,0.0135,0.2663,0.5264,-0.0057,0.2618,0.5609,-0.0245,0.2557,0.4933,0.0,0.0,-0.6768,0.0,0.0,0.0,0.0,0.0,0.0,
4.8,run,5.92,2.33,-1.43,-1.45,0.87,-34.2,0.0,0.0,0.221,0.53,-11.51,109.95,-2.2,-9.4,109.34,0.44,-9.32,108.54,0.7,-10.72,109.07,0.09,-11.43,111.71,-0.79,-11.43,105.56,0.39,-11.75,111.47,-2.1,-9.17,111.22,-0.29,-9.24,110.67,0.5,-10.9,110.06,-0.27,-11.16,112.59,-0.84,-11.41,107.21,0.0111,0.2409,0.5467,-0.06,0.2878,0.5438,-0.0084,0.2865,0.5373,0.0143,0.2563,0.5302,-0.0076,0.2517,0.5599,-0.0239,0.247,0.4965,0.006,0.0,0.026,0.0,0.013,0.156,0.013,0.026,0.084,0.006,0.006,0.033,0.013,0.019,0.052,0.0,0.006,0.052,0.0138,-0.5093,0.7747,-0.066,-0.4556,0.632,-0.0399,-0.5123,0.4387,-0.0077,-0.5123,0.5983,-0.0015,-0.5415,0.5062,-0.0261,-0.4893,0.4786,-0.006,-0.0493,0.0352,-0.0001,-0.044,0.0496,-0.0058,-0.0452,0.0272,0.0009,-0.0496,0.0351,-0.0073,-0.0395,0.0324,-0.0,-0.0411,0.0353,-0.1695,-0.1525,-0.0075,-0.032,-0.0113,0.012,0.2445,0.5423,-0.0583,0.2922,0.5413,-0.0077,0.2919,0.5372,0.0153,0.2607,0.5267,-0.0053,0.2565,0.5611,-0.0245,0.2518,0.494,0.0,0.0,-0.684,0.0,0.0,0.0,0.0,0.0,0.0,
4.84,run,5.91,2.35,0.99,0.1,-2.04,-34.6,0.0,0.0,0.221,0.44,-11.78,110.21,-2.2,-9.76,109.69,0.44,-9.76,108.72,0.62,-10.9,109.25,-0.09,-11.78,111.71,-0.79,-11.69,105.73,0.36,-12.02,111.61,-2.07,-9.42,111.46,-0.34,-9.45,110.64,0.47,-11.13,110.22,-0.3,-11.35,112.58,-0.89,-11.71,107.4,0.0103,0.236,0.5483,-0.059,0.2832,0.5466,-0.0097,0.2826,0.537,0.0135,0.2522,0.532,-0.0084,0.2482,0.5598,-0.0254,0.2417,0.4988,0.006,0.0,0.026,0.0,0.013,0.156,0.013,0.026,0.084,0.006,0.006,0.033,0.013,0.019,0.052,0.0,0.006,0.052,0.0138,-0.5154,0.7793,-0.066,-0.4587,0.6381,-0.0414,-0.517,0.4418,-0.0061,-0.52,0.6044,-0.0015,-0.5476,0.5108,-0.0261,-0.497,0.4847,-0.0042,-0.0574,0.0418,-0.0001,-0.0423,0.0577,-0.0098,-0.0488,0.0305,0.0064,-0.0634,0.0475,-0.0051,-0.0506,0.0399,-0.0,-0.0574,0.0476,-0.1761,-0.1564,-0.025,-0.0252,0.0151,0.0111,0.2409,0.5467,-0.06,0.2878,0.5438,-0.0084,0.2865,0.5373,0.0143,0.2563,0.5302,-0.0076,0.2517,0.5599,-0.0239,0.247,0.4965,0.0,0.0,-0.6912,0.0,0.0,0.0,0.0,0.0,0.0,
4.88,run,5.96,2.48,1.2,3.9,0.16,-34.9,0.0,0.0,0.221,0.44,-12.04,110.48,-2.2,-9.93,109.86,0.35,-9.84,108.81,0.53,-11.07,109.42,-0.09,-11.78,111.71,-0.79,-11.87,106.0,0.26,-12.36,111.72,-2.01,-9.62,111.75,-0.29,-9.68,110.84,0.52,-11.44,110.39,-0.34,-11.59,112.7,-0.88,-11.95,107.54,0.0075,0.2299,0.5497,-0.0574,0.2797,0.5501,-0.0082,0.2785,0.5393,0.0149,0.2465,0.534,-0.0097,0.2439,0.5612,-0.025,0.2373,0.5005,0.006,0.0,0.026,0.0,0.013,0.156,0.013,0.026,0.084,0.006,0.006,0.033,0.013,0.019,0.052,0.0,0.006,0.052,0.0123,-0.52,0.7839,-0.066,-0.4648,0.6443,-0.0414,-0.5246,0.4449,-0.0077,-0.5231,0.6075,-0.0046,-0.5538,0.5108,-0.0261,-0.5016,0.4878,-0.0086,-0.0574,0.0465,-0.0001,-0.0525,0.0633,-0.0068,-0.0628,0.0328,-0.0013,-0.0558,0.0447,-0.015,-0.0583,0.0279,-0.0,-0.0574,0.0448,-0.1769,-0.154,0.0172,0.0018,-0.0355,0.0103,0.236,0.5483,-0.059,0.2832,0.5466,-0.0097,0.2826,0.537,0.0135,0.2522,0.532,-0.0084,0.2482,0.5598,-0.0254,0.2417,0.4988,0.0,0.0,-0.6984,0.0,0.0,0.0,0.0,0.0,0.0,
4.92,run,5.9,2.44,-1.31,-1.01,0.61,-35.3,0.0,0.0,0.221,0.35,-12.3,110.65,-2.2,-10.11,110.21,0.26,-10.02,108.9,0.53,-11.51,109.78,-0.26,-12.13,111.71,-0.79,-12.22,106.08,0.29,-12.6,111.79,-1.93,-9.92,112.09,-0.24,-9.94,110.98,0.44,-11.71,110.49,-0.29,-11.76,112.94,-0.93,-12.2,107.79,0.0083,0.2254,0.5504,-0.0551,0.2742,0.554,-0.0069,0.2738,0.541,0.0127,0.2416,0.5352,-0.0082,0.2408,0.564,-0.0265,0.2327,0.5034,0.0,0.0,0.033,0.0,0.006,0.169,0.013,0.019,0.104,0.006,0.0,0.039,0.006,0.033,0.123,0.0,0.006,0.065,0.0123,-0.5246,0.7885,-0.066,-0.4679,0.6473,-0.043,-0.5262,0.4464,-0.0092,-0.5262,0.6105,-0.0046,-0.5538,0.5108,-0.0261,-0.5047,0.4924,-0.0061,-0.0575,0.0498,-0.0,-0.0483,0.0558,-0.0106,-0.0498,0.0287,-0.0066,-0.0506,0.0428,-0.0105,-0.0408,0.0195,-0.0,-0.0517,0.0486,-0.1726,-0.1427,0.0209,0.068,0.0027,0.0075,0.2299,0.5497,-0.0574,0.2797,0.5501,-0.0082,0.2785,0.5393,0.0149,0.2465,0.534,-0.0097,0.2439,0.5612,-0.025,0.2373,0.5005,0.0,0.0,-0.7056,0.0,0.0,0.0,0.0,0.0,0.0,
