t_s,phase,roll_deg,pitch_deg,gyro_x_dps,gyro_y_dps,gyro_z_dps,height_ref_mm,vx_ref_mps,vy_ref_mps,max_cur_a,q0_deg,q1_deg,q2_deg,q3_deg,q4_deg,q5_deg,q6_deg,q7_deg,q8_deg,q9_deg,q10_deg,q11_deg,q12_deg,q13_deg,q14_deg,q15_deg,q16_deg,q17_deg,cmd0_deg,cmd1_deg,cmd2_deg,cmd3_deg,cmd4_deg,cmd5_deg,cmd6_deg,cmd7_deg,cmd8_deg,cmd9_deg,cmd10_deg,cmd11_deg,cmd12_deg,cmd13_deg,cmd14_deg,cmd15_deg,cmd16_deg,cmd17_deg,act0,act1,act2,act3,act4,act5,act6,act7,act8,act9,act10,act11,act12,act13,act14,act15,act16,act17,cur0_a,cur1_a,cur2_a,cur3_a,cur4_a,cur5_a,cur6_a,cur7_a,cur8_a,cur9_a,cur10_a,cur11_a,cur12_a,cur13_a,cur14_a,cur15_a,cur16_a,cur17_a,obs0,obs1,obs2,obs3,obs4,obs5,obs6,obs7,obs8,obs9,obs10,obs11,obs12,obs13,obs14,obs15,obs16,obs17,obs18,obs19,obs20,obs21,obs22,obs23,obs24,obs25,obs26,obs27,obs28,obs29,obs30,obs31,obs32,obs33,obs34,obs35,obs36,obs37,obs38,obs39,obs40,obs41,obs42,obs43,obs44,obs45,obs46,obs47,obs48,obs49,obs50,obs51,obs52,obs53,obs54,obs55,obs56,obs57,obs58,obs59,obs60,obs61,obs62,obs63,obs64,obs65,obs66,obs67,rot60_k,mirror
0.0,run,-0.12,2.95,0.0,0.07,0.1,0.0,0.0,0.0,0.019,0.09,0.44,0.26,-0.26,0.53,0.26,-0.18,0.09,0.7,0.09,0.44,0.09,-0.18,0.09,0.09,0.09,0.18,0.26,0.06,1.85,1.76,1.24,1.94,1.68,1.32,-1.41,2.12,-1.41,1.85,1.59,1.32,-1.41,1.59,1.59,1.68,1.76,0.0017,0.5869,-0.2697,0.2406,0.6945,-0.4426,0.1978,0.3666,0.0917,-0.1138,0.65,-0.3351,0.1117,0.2828,0.0591,0.3028,0.6515,-0.3734,0.0,0.0,0.006,0.0,0.0,0.006,0.006,0.019,0.0,0.019,0.006,0.006,0.013,0.019,0.006,0.006,0.006,0.006,0.0,0.0015,0.0,0.0,0.0015,0.0015,0.0,0.0,0.0,0.0,0.0015,0.0,0.0,0.0,0.0,0.0,0.0,0.0,0.0,0.003,0.0,0.0,0.003,0.003,0.0,0.0,0.0,0.0,0.003,0.0,0.0,0.0,0.0,0.0,0.0,0.0,0.0,0.0,-0.0017,-0.0005,0.0023,0.0,0.0,0.0,0.0,0.0,0.0,0.0,0.0,0.0,0.0,0.0,0.0,0.0,0.0,0.0,0.0,0.0,0.0,0.0,0.0,0.0,0.0,0.0,0.0,0.0,0.0,0.0,,
0.04,run,-0.12,2.95,-0.1,0.04,0.16,0.0,0.0,0.0,0.019,0.09,0.44,0.26,-0.26,0.53,0.44,-0.18,-0.09,0.7,0.0,0.44,0.26,-0.09,-0.18,0.35,0.18,0.26,0.44,1.1,3.35,3.26,2.74,3.44,3.18,2.82,-2.91,3.62,-1.74,3.35,3.09,2.82,-2.91,3.09,3.09,3.18,3.26,0.0314,0.6357,-0.3172,0.2346,0.7058,-0.4279,0.2135,0.3982,0.058,-0.0497,0.6822,-0.387,0.1481,0.3802,0.0817,0.2024,0.622,-0.2792,0.0,0.0,0.006,0.0,0.0,0.006,0.006,0.019,0.0,0.019,0.006,0.006,0.013,0.019,0.006,0.006,0.006,0.006,0.0,0.0015,0.0,0.0,0.0015,0.0015,0.0,0.0,0.0015,0.0,0.0015,0.0,0.0,0.0,0.0,0.0,0.0,0.0,0.0,0.0021,0.0,0.0,0.0021,0.0021,0.0,0.0,0.0024,0.0,0.0021,0.0,0.0,0.0,0.0,0.0,0.0,0.0,0.0003,0.0006,0.0,0.0013,0.0018,0.0017,0.5869,-0.2697,0.2406,0.6945,-0.4426,0.1978,0.3666,0.0917,-0.1138,0.65,-0.3351,0.1117,0.2828,0.0591,0.3028,0.6515,-0.3734,0.0,0.0,0.0,0.0,0.0,0.0,0.0,0.0,0.0,,
0.08,run,-0.13,2.98,0.23,0.23,-0.19,0.0,0.0,0.0,0.019,0.09,1.05,0.44,0.26,1.14,1.05,0.35,-0.79,1.23,-1.05,1.05,1.05,0.79,-0.88,1.05,1.14,0.79,0.97,1.12,4.85,4.76,4.24,4.94,4.68,4.32,-3.84,5.12,-1.3,4.85,4.59,4.32,-4.23,4.59,4.59,4.68,4.76,0.0319,0.6161,-0.3124,0.217,0.6908,-0.423,0.1981,0.3848,0.056,-0.0371,0.6679,-0.3805,0.1326,0.3776,0.0682,0.1825,0.6147,-0.2824,0.0,0.0,0.006,0.0,0.0,0.006,0.006,0.019,0.0,0.019,0.006,0.006,0.013,0.019,0.006,0.006,0.006,0.006,0.0,0.0015,0.0,0.0,0.0015,0.0046,0.0,-0.0031,0.0015,-0.0015,0.0015,0.0031,0.0015,-0.0046,0.0046,0.0015,0.0015,0.0031,0.0,0.0015,0.0,0.0,0.0015,0.0131,0.0,-0.0116,0.0017,-0.0058,0.0015,0.0116,0.0058,-0.0174,0.0174,0.0058,0.0058,0.0116,-0.0002,0.0002,-0.0017,0.0007,0.0028,0.0314,0.6357,-0.3172,0.2346,0.7058,-0.4279,0.2135,0.3982,0.058,-0.0497,0.6822,-0.387,0.1481,0.3802,0.0817,0.2024,0.622,-0.2792,0.0,0.0,0.0,0.0,0.0,0.0,0.0,0.0,0.0,,
0.12,run,-0.14,2.97,0.0,-0.09,-0.05,0.0,0.0,0.0,0.039,0.53,1.85,1.67,1.05,2.02,2.11,1.23,-1.58,1.58,-1.41,1.93,2.11,1.67,-1.85,2.2,2.2,1.85,1.85,1.36,6.35,6.26,5.74,6.44,6.18,5.82,-5.34,6.62,-1.18,6.35,6.09,5.39,-5.73,6.09,6.09,6.18,6.26,0.0389,0.5734,-0.4322,0.2293,0.6638,-0.5557,0.2168,0.2635,-0.015,-0.0337,0.6392,-0.5102,0.154,0.271,-0.0251,0.2133,0.6017,-0.4418,0.0,0.006,0.0,0.013,0.006,0.013,0.019,0.039,0.026,0.013,0.013,0.019,0.019,0.019,0.013,0.026,0.013,0.006,0.0,0.0123,0.0031,0.0092,0.0123,0.0153,0.0092,-0.0153,0.0107,-0.0199,0.0123,0.0169,0.0169,-0.0169,0.0169,0.0184,0.0107,0.0123,0.0,0.0411,0.0114,0.0343,0.0411,0.0492,0.0343,-0.0539,0.0355,-0.0727,0.0411,0.0596,0.0613,-0.058,0.058,0.067,0.0384,0.0425,-0.001,0.0029,0.004,0.0039,-0.0033,0.0319,0.6161,-0.3124,0.217,0.6908,-0.423,0.1981,0.3848,0.056,-0.0371,0.6679,-0.3805,0.1326,0.3776,0.0682,0.1825,0.6147,-0.2824,0.0,0.0,0.0,0.0,0.0,0.0,0.0,0.0,0.0,,
0.16,run,-0.17,2.96,-0.69,-0.44,0.12,0.0,0.0,0.0,0.039,1.41,2.99,2.81,2.2,3.08,3.34,2.29,-2.9,2.72,-1.67,3.08,3.16,2.9,-2.99,3.25,3.16,2.9,2.9,1.96,7.85,7.76,7.24,7.94,7.68,7.32,-6.84,8.12,-2.23,7.85,7.59,6.89,-7.23,7.59,7.59,7.39,7.76,0.056,0.608,-0.5965,0.2977,0.675,-0.6655,0.2812,0.1984,-0.0498,-0.0637,0.6455,-0.6219,0.198,0.2058,-0.0761,0.3224,0.5889,-0.5479,0.0,0.006,0.0,0.013,0.006,0.013,0.019,0.039,0.026,0.013,0.013,0.019,0.019,0.019,0.013,0.026,0.013,0.006,0.0077,0.0261,0.0245,0.023,0.0276,0.0337,0.0245,-0.0291,0.0169,-0.0261,0.0276,0.0353,0.0322,-0.0337,0.0368,0.0368,0.0291,0.0276,0.0287,0.0804,0.0884,0.0757,0.0862,0.1033,0.0814,-0.0894,0.0478,-0.0739,0.0862,0.1106,0.1003,-0.1037,0.1152,0.1158,0.0958,0.0871,-0.0012,0.0022,0.0,-0.0015,-0.0009,0.0389,0.5734,-0.4322,0.2293,0.6638,-0.5557,0.2168,0.2635,-0.015,-0.0337,0.6392,-0.5102,0.154,0.271,-0.0251,0.2133,0.6017,-0.4418,0.0,0.0,0.0,0.0,0.0,0.0,0.0,0.0,0.0,,
0.2,run,-0.18,2.95,0.04,-0.16,-1.1,0.0,0.0,0.0,0.039,1.05,4.31,4.04,3.52,4.31,4.66,3.52,-3.96,4.13,-1.67,4.31,4.57,4.04,-4.13,4.66,4.75,4.04,4.04,2.15,9.35,9.26,8.74,9.44,9.18,8.82,-8.34,9.62,-3.09,9.35,9.09,7.42,-8.73,9.09,9.09,6.84,9.26,0.0614,0.658,-0.6193,0.3383,0.6942,-0.632,0.3044,0.2415,-0.0113,-0.0884,0.6662,-0.586,0.212,0.2438,-0.052,0.3734,0.5789,-0.4931,0.0,0.006,0.0,0.013,0.006,0.013,0.019,0.039,0.026,0.013,0.013,0.019,0.019,0.019,0.013,0.026,0.013,0.006,0.023,0.046,0.0445,0.043,0.046,0.0552,0.043,-0.0522,0.0368,-0.0307,0.0476,0.0537,0.0537,-0.0537,0.0552,0.0537,0.0476,0.046,0.078,0.1316,0.1372,0.1283,0.1298,0.1534,0.1265,-0.1495,0.1088,-0.0691,0.1356,0.147,0.1513,-0.1479,0.1502,0.1448,0.1366,0.1305,-0.0044,0.0014,-0.0121,-0.0077,0.002,0.056,0.608,-0.5965,0.2977,0.675,-0.6655,0.2812,0.1984,-0.0498,-0.0637,0.6455,-0.6219,0.198,0.2058,-0.0761,0.3224,0.5889,-0.5479,0.0,0.0,0.0,0.0,0.0,0.0,0.0,0.0,0.0,,
0.24,run,-0.16,2.98,0.21,0.35,0.93,0.0,0.0,0.0,0.039,1.93,5.54,5.36,4.83,5.71,6.06,4.92,-5.36,5.54,-1.67,5.62,5.89,5.27,-5.54,5.98,5.8,5.27,5.45,2.35,10.85,10.76,10.24,10.94,10.68,10.32,-9.84,11.12,-2.81,10.85,10.59,7.59,-10.23,10.59,10.59,6.72,10.76,0.0671,0.6809,-0.6103,0.3503,0.7119,-0.6047,0.3064,0.2731,0.0117,-0.0803,0.6813,-0.5535,0.217,0.2647,-0.028,0.3835,0.5768,-0.4603,0.013,0.006,0.019,0.013,0.006,0.006,0.019,0.019,0.019,0.013,0.006,0.013,0.0,0.026,0.006,0.019,0.0,0.019,0.0169,0.069,0.066,0.066,0.0675,0.0782,0.0644,-0.0706,0.0614,-0.0307,0.069,0.0782,0.0736,-0.0736,0.0798,0.0813,0.0675,0.066,0.0317,0.178,0.1762,0.1757,0.171,0.1933,0.1687,-0.1733,0.1678,-0.0484,0.1751,0.1945,0.1804,-0.178,0.1967,0.2044,0.17,0.1658,-0.0046,0.0005,0.0007,-0.0027,-0.0191,0.0614,0.658,-0.6193,0.3383,0.6942,-0.632,0.3044,0.2415,-0.0113,-0.0884,0.6662,-0.586,0.212,0.2438,-0.052,0.3734,0.5789,-0.4931,0.0,0.0,0.0,0.0,0.0,0.0,0.0,0.0,0.0,,
0.28,run,-0.13,2.97,0.52,0.13,-1.03,0.0,0.0,0.0,0.039,2.37,7.03,6.86,6.33,7.12,7.47,6.33,-6.77,7.03,-2.55,7.12,7.38,6.33,-6.94,7.47,7.56,6.24,6.86,2.43,12.35,12.26,11.74,12.44,12.18,10.73,-8.34,12.62,-2.33,12.35,12.09,7.7,-8.92,12.09,12.09,6.79,12.26,0.0694,0.6937,-0.5844,0.3507,0.7225,-0.5649,0.3066,0.31,0.0345,-0.0665,0.6956,-0.5174,0.2201,0.2924,-0.002,0.3856,0.578,-0.4255,0.013,0.006,0.019,0.013,0.006,0.006,0.019,0.019,0.019,0.013,0.006,0.013,0.0,0.026,0.006,0.019,0.0,0.019,0.0322,0.0905,0.089,0.089,0.092,0.1028,0.089,-0.0951,0.0859,-0.0307,0.092,0.1012,0.0951,-0.0982,0.1028,0.0997,0.089,0.0905,0.0797,0.2052,0.2097,0.2093,0.2118,0.2274,0.2102,-0.2134,0.2095,-0.0339,0.2089,0.2225,0.2068,-0.2167,0.224,0.2122,0.1996,0.2081,-0.003,0.0026,0.0036,0.0061,0.0162,0.0671,0.6809,-0.6103,0.3503,0.7119,-0.6047,0.3064,0.2731,0.0117,-0.0803,0.6813,-0.5535,0.217,0.2647,-0.028,0.3835,0.5768,-0.4603,0.0,0.0,0.0,0.0,0.0,0.0,0.0,0.0,0.0,,
0.32,run,-0.12,2.95,0.27,0.07,-0.53,0.0,0.0,0.0,0.039,2.2,8.44,8.35,7.65,8.53,8.79,7.65,-7.91,8.35,-2.72,8.44,8.7,7.03,-8.17,8.79,8.7,6.77,8.17,2.6,13.61,13.76,12.18,13.94,13.68,10.73,-6.84,14.12,-1.91,13.85,13.59,7.83,-7.74,13.59,13.59,6.88,13.76,0.0742,0.702,-0.5549,0.3479,0.7313,-0.5263,0.3066,0.3419,0.058,-0.0544,0.712,-0.4884,0.2237,0.3138,0.0267,0.3882,0.5796,-0.3945,0.013,0.006,0.019,0.013,0.006,0.006,0.019,0.019,0.019,0.013,0.006,0.013,0.0,0.026,0.006,0.019,0.0,0.019,0.0399,0.1166,0.115,0.115,0.1166,0.1273,0.1135,-0.1197,0.112,-0.046,0.1181,0.1273,0.1135,-0.1227,0.1289,0.1304,0.1058,0.115,0.0833,0.2371,0.2403,0.24,0.2363,0.2472,0.2352,-0.2374,0.2402,-0.0787,0.2397,0.2492,0.2108,-0.2397,0.2503,0.2585,0.2002,0.2337,-0.0006,0.0016,0.0091,0.0023,-0.0179,0.0694,0.6937,-0.5844,0.3507,0.7225,-0.5649,0.3066,0.31,0.0345,-0.0665,0.6956,-0.5174,0.2201,0.2924,-0.002,0.3856,0.578,-0.4255,0.0,0.0,0.0,0.0,0.0,0.0,0.0,0.0,0.0,,
0.36,run,-0.13,2.94,-0.57,-0.31,0.84,0.0,0.0,0.0,0.039,2.64,9.76,9.32,8.96,9.84,10.2,8.7,-8.79,9.76,-2.64,9.76,10.02,7.56,-9.05,10.11,9.93,7.12,9.49,2.77,13.7,15.26,11.9,15.44,15.18,10.68,-5.34,15.62,-1.45,14.84,15.09,7.87,-6.87,15.09,13.46,7.01,15.26,0.079,0.7036,-0.5291,0.3399,0.7353,-0.4947,0.3052,0.366,0.0744,-0.0415,0.7244,-0.4688,0.2247,0.3297,0.0513,0.3844,0.582,-0.3727,0.0,0.006,0.013,0.013,0.0,0.006,0.013,0.019,0.019,0.019,0.006,0.006,0.0,0.013,0.013,0.0,0.0,0.019,0.0368,0.1411,0.1411,0.1381,0.1411,0.1503,0.1365,-0.1396,0.135,-0.0491,0.1411,0.1503,0.1258,-0.1442,0.1519,0.1503,0.115,0.1381,0.0469,0.2572,0.2651,0.2536,0.2566,0.2586,0.2501,-0.2403,0.2537,-0.0665,0.2533,0.26,0.1932,-0.2476,0.2608,0.2551,0.1744,0.2491,0.0002,0.0006,0.0047,0.0013,-0.0093,0.0742,0.702,-0.5549,0.3479,0.7313,-0.5263,0.3066,0.3419,0.058,-0.0544,0.712,-0.4884,0.2237,0.3138,0.0267,0.3882,0.5796,-0.3945,0.0,0.0,0.0,0.0,0.0,0.0,0.0,0.0,0.0,,
0.4,run,-0.1,2.97,0.77,0.34,-0.79,0.0,0.0,0.0,0.039,2.9,11.07,10.99,10.02,11.25,11.69,9.58,-9.32,11.16,-2.02,11.25,11.51,7.73,-9.67,11.6,11.51,7.12,10.55,2.85,13.66,16.76,11.54,15.51,16.68,10.56,-3.84,17.12,-1.04,15.41,16.59,7.76,-5.95,16.59,13.26,7.21,16.76,0.0815,0.7029,-0.5005,0.3297,0.7365,-0.4616,0.3018,0.39,0.0896,-0.0297,0.7348,-0.4478,0.2218,0.3463,0.0712,0.379,0.5856,-0.3507,0.0,0.006,0.013,0.013,0.0,0.006,0.013,0.019,0.019,0.019,0.006,0.006,0.0,0.013,0.013,0.0,0.0,0.019,0.0445,0.1641,0.158,0.1611,0.1641,0.1749,0.1549,-0.1549,0.1595,-0.0476,0.1641,0.1733,0.135,-0.1595,0.1749,0.1718,0.1212,0.1611,0.0616,0.2662,0.2488,0.2637,0.2658,0.2729,0.244,-0.2257,0.2695,-0.0408,0.2635,0.2682,0.1697,-0.2308,0.2687,0.259,0.145,0.2606,-0.0008,-0.0002,-0.01,-0.0054,0.0147,0.079,0.7036,-0.5291,0.3399,0.7353,-0.4947,0.3052,0.366,0.0744,-0.0415,0.7244,-0.4688,0.2247,0.3297,0.0513,0.3844,0.582,-0.3727,0.0,0.0,0.0,0.0,0.0,0.0,0.0,0.0,0.0,,
0.44,run,-0.11,2.96,0.01,-0.04,0.55,0.0,0.0,0.0,0.039,2.55,12.22,12.83,10.99,12.66,13.1,10.11,-9.58,12.57,-1.05,12.57,13.01,7.73,-10.02,13.1,12.3,7.12,12.39,2.92,13.72,18.26,11.15,15.66,18.18,10.36,-2.34,18.62,-0.58,15.99,18.09,7.49,-4.84,18.09,12.95,7.51,18.26,0.0835,0.7039,-0.4714,0.3185,0.7392,-0.427,0.296,0.4179,0.1021,-0.0167,0.7453,-0.4243,0.2141,0.3666,0.0869,0.3701,0.5912,-0.3264,0.0,0.006,0.013,0.013,0.0,0.006,0.013,0.019,0.019,0.019,0.006,0.006,0.0,0.013,0.013,0.0,0.0,0.019,0.0491,0.1871,0.1871,0.1795,0.1887,0.201,0.1703,-0.1641,0.1841,-0.0368,0.1902,0.1994,0.1381,-0.1703,0.201,0.1994,0.1212,0.1795,0.0604,0.2727,0.2836,0.2537,0.2782,0.2889,0.2284,-0.1925,0.2808,0.0117,0.2824,0.2856,0.1303,-0.2019,0.286,0.285,0.1015,0.2515,0.002,0.0018,0.0135,0.0059,-0.0138,0.0815,0.7029,-0.5005,0.3297,0.7365,-0.4616,0.3018,0.39,0.0896,-0.0297,0.7348,-0.4478,0.2218,0.3463,0.0712,0.379,0.5856,-0.3507,0.0,0.0,0.0,0.0,0.0,0.0,0.0,0.0,0.0,,
0.48,run,-0.11,2.98,0.37,0.4,-0.56,0.0,0.0,0.0,0.039,3.25,13.01,13.62,11.6,13.89,14.77,10.28,-9.23,14.24,-1.14,13.8,14.59,7.65,-9.67,14.68,13.18,7.29,14.06,2.96,13.88,19.76,10.44,15.92,19.68,9.95,-0.84,20.12,-0.12,16.67,19.59,6.91,-3.34,19.59,12.05,8.09,19.76,0.0847,0.7069,-0.4366,0.2983,0.7441,-0.3859,0.2842,0.4588,0.1123,-0.0035,0.7577,-0.3928,0.1975,0.3999,0.098,0.3444,0.6016,-0.2967,0.006,0.006,0.019,0.006,0.0,0.013,0.0,0.006,0.019,0.013,0.019,0.013,0.006,0.006,0.013,0.006,0.013,0.013,0.043,0.2071,0.2194,0.1963,0.2132,0.2255,0.1795,-0.1687,0.2086,-0.0199,0.2132,0.2255,0.1381,-0.1764,0.227,0.2132,0.1212,0.2117,0.0204,0.2621,0.3135,0.2378,0.2824,0.2899,0.1928,-0.1512,0.2842,0.0685,0.2798,0.293,0.0912,-0.1632,0.2933,0.2488,0.0711,0.2911,0.0007,0.0009,0.0001,-0.0007,0.0096,0.0835,0.7039,-0.4714,0.3185,0.7392,-0.427,0.296,0.4179,0.1021,-0.0167,0.7453,-0.4243,0.2141,0.3666,0.0869,0.3701,0.5912,-0.3264,0.0,0.0,0.0,0.0,0.0,0.0,0.0,0.0,0.0,,
0.52,run,-0.13,2.96,-0.37,-0.17,0.99,0.0,0.0,0.0,0.039,2.9,13.45,15.38,11.78,14.77,16.17,10.2,-8.61,15.64,-0.62,14.33,15.82,7.12,-9.05,16.08,13.45,7.38,15.38,2.89,14.1,21.26,9.44,16.25,21.18,9.25,0.66,21.62,0.38,17.41,21.09,6.03,-1.84,21.09,10.75,8.68,21.26,0.0826,0.7109,-0.3941,0.2697,0.75,-0.3396,0.2642,0.5103,0.1217,0.0109,0.7711,-0.3532,0.1722,0.4426,0.1037,0.3071,0.6124,-0.2577,0.006,0.006,0.019,0.006,0.0,0.013,0.0,0.006,0.019,0.013,0.019,0.013,0.006,0.006,0.013,0.006,0.013,0.013,0.0552,0.2209,0.2332,0.2071,0.2347,0.2546,0.1825,-0.1626,0.2378,-0.0215,0.2347,0.2531,0.1365,-0.1703,0.2546,0.2286,0.1243,0.2408,0.0547,0.229,0.265,0.2019,0.2684,0.299,0.145,-0.0856,0.295,0.0429,0.2666,0.2961,0.0588,-0.094,0.2963,0.2247,0.0599,0.2998,0.0009,0.0029,0.0065,0.007,-0.0098,0.0847,0.7069,-0.4366,0.2983,0.7441,-0.3859,0.2842,0.4588,0.1123,-0.0035,0.7577,-0.3928,0.1975,0.3999,0.098,0.3444,0.6016,-0.2967,0.0,0.0,0.0,0.0,0.0,0.0,0.0,0.0,0.0,,
0.56,run,-0.14,2.98,-0.64,-0.15,0.82,0.0,0.0,0.0,0.039,2.81,13.8,17.14,11.78,15.38,17.49,10.2,-7.65,16.96,0.0,15.64,17.23,6.94,-8.09,17.49,13.45,7.38,16.7,2.72,14.27,22.76,8.19,16.4,22.68,8.31,2.16,23.12,0.91,17.76,22.59,4.96,-0.34,22.59,9.25,9.27,22.76,0.0778,0.714,-0.3511,0.2341,0.7527,-0.2915,0.2376,0.5669,0.123,0.0261,0.7774,-0.3065,0.1417,0.4904,0.1063,0.2541,0.6232,-0.2184,0.006,0.006,0.019,0.006,0.0,0.013,0.0,0.006,0.019,0.013,0.019,0.013,0.006,0.006,0.013,0.006,0.013,0.013,0.0491,0.2286,0.2638,0.2102,0.25,0.2792,0.181,-0.1519,0.2623,-0.0123,0.2439,0.2746,0.1273,-0.1595,0.2792,0.2332,0.1258,0.2638,0.015,0.1894,0.3017,0.1529,0.246,0.3023,0.0957,-0.0192,0.2995,0.0649,0.2215,0.2887,0.0063,-0.0251,0.3004,0.1747,0.0477,0.2971,-0.0004,0.0012,-0.0065,-0.003,0.0172,0.0826,0.7109,-0.3941,0.2697,0.75,-0.3396,0.2642,0.5103,0.1217,0.0109,0.7711,-0.3532,0.1722,0.4426,0.1037,0.3071,0.6124,-0.2577,0.0,0.0,0.0,0.0,0.0,0.0,0.0,0.0,0.0,,
0.6,run,-0.1,3.01,0.79,0.38,-1.15,0.0,0.0,0.0,0.039,2.99,13.97,18.11,11.69,15.91,18.9,9.84,-6.33,18.46,0.26,16.44,18.63,6.42,-6.86,18.9,12.74,8.09,18.19,2.32,14.29,24.26,6.87,16.31,24.18,7.28,3.66,24.62,1.48,17.82,24.09,3.84,1.16,24.09,7.75,9.93,24.26,0.0663,0.7144,-0.3012,0.1964,0.751,-0.2344,0.208,0.6239,0.1276,0.0422,0.7785,-0.2498,0.1098,0.5422,0.1096,0.1974,0.6351,-0.1729,0.0,0.0,0.019,0.033,0.0,0.006,0.006,0.006,0.019,0.006,0.013,0.006,0.013,0.006,0.006,0.013,0.013,0.013,0.0476,0.2347,0.2945,0.2102,0.2608,0.3022,0.181,-0.135,0.2853,-0.0015,0.2669,0.2991,0.1243,-0.1427,0.3037,0.2332,0.1258,0.2869,0.0048,0.1554,0.3253,0.107,0.2122,0.2972,0.067,0.0493,0.2952,0.0854,0.2406,0.2933,-0.007,0.0452,0.3016,0.1223,0.0334,0.2935,-0.0016,0.0032,-0.0112,-0.0026,0.0143,0.0778,0.714,-0.3511,0.2341,0.7527,-0.2915,0.2376,0.5669,0.123,0.0261,0.7774,-0.3065,0.1417,0.4904,0.1063,0.2541,0.6232,-0.2184,0.0,0.0,0.0,0.0,0.0,0.0,0.0,0.0,0.0,,
0.64,run,-0.14,3.0,-0.46,0.02,1.5,0.0,0.0,0.0,0.039,2.11,14.15,19.6,10.37,16.26,20.39,9.05,-4.83,19.86,0.97,17.14,20.04,5.62,-5.45,20.3,11.95,8.7,19.51,1.66,14.05,25.76,5.37,15.91,25.68,6.09,5.16,26.12,2.06,17.47,25.59,2.69,2.66,25.59,6.25,10.6,25.76,0.0475,0.71,-0.2407,0.1486,0.7439,-0.1667,0.1741,0.6851,0.133,0.0588,0.7722,-0.1777,0.0767,0.6021,0.1152,0.1318,0.6473,-0.1182,0.0,0.0,0.019,0.033,0.0,0.006,0.006,0.006,0.019,0.006,0.013,0.006,0.013,0.006,0.006,0.013,0.013,0.013,0.0506,0.2378,0.3114,0.2086,0.27,0.3267,0.1749,-0.112,0.3114,0.0031,0.2807,0.3237,0.115,-0.1212,0.3283,0.2209,0.1381,0.3129,0.0149,0.1203,0.291,0.0692,0.183,0.3001,0.0239,0.1208,0.3045,0.077,0.2202,0.2974,-0.0394,0.1122,0.3032,0.0396,0.0694,0.3033,0.0016,0.0056,0.0137,0.0066,-0.0201,0.0663,0.7144,-0.3012,0.1964,0.751,-0.2344,0.208,0.6239,0.1276,0.0422,0.7785,-0.2498,0.1098,0.5422,0.1096,0.1974,0.6351,-0.1729,0.0,0.0,0.0,0.0,0.0,0.0,0.0,0.0,0.0,,
0.68,run,-0.08,3.03,0.66,0.45,-0.29,0.0,0.0,0.0,0.039,2.2,14.15,21.09,8.61,16.26,21.8,8.26,-3.52,21.18,1.49,17.4,21.45,4.66,-4.04,21.8,10.81,9.32,20.92,0.83,13.41,27.26,3.87,15.01,27.18,4.79,6.66,27.62,2.61,16.5,27.09,1.86,4.16,27.09,4.75,11.23,27.26,0.0237,0.6984,-0.1743,0.0947,0.7275,-0.0931,0.1369,0.7379,0.1338,0.0745,0.7546,-0.0974,0.053,0.6598,0.1211,0.061,0.6587,-0.0632,0.0,0.0,0.019,0.033,0.0,0.006,0.006,0.006,0.019,0.006,0.013,0.006,0.013,0.006,0.006,0.013,0.013,0.013,0.0353,0.2408,0.3375,0.1856,0.2761,0.3528,0.1611,-0.0859,0.3359,0.0153,0.293,0.3482,0.1012,-0.0966,0.3528,0.2071,0.1488,0.3359,-0.0475,0.0958,0.3022,-0.0385,0.1513,0.3085,-0.0354,0.1831,0.3058,0.1003,0.2005,0.3009,-0.0797,0.1712,0.3049,-0.0244,0.0891,0.2992,-0.0014,0.0047,-0.008,0.0003,0.0262,0.0475,0.71,-0.2407,0.1486,0.7439,-0.1667,0.1741,0.6851,0.133,0.0588,0.7722,-0.1777,0.0767,0.6021,0.1152,0.1318,0.6473,-0.1182,0.0,0.0,0.0,0.0,0.0,0.0,0.0,0.0,0.0,,
0.72,run,-0.08,3.02,-0.11,-0.03,0.16,0.0,0.0,0.0,0.039,1.58,14.15,22.5,7.82,16.08,23.2,7.21,-2.02,22.68,2.02,17.4,22.76,3.52,-2.55,23.12,9.4,9.84,22.24,0.15,12.72,28.76,2.37,14.22,28.68,3.75,8.16,29.12,2.91,15.54,28.59,1.53,5.66,28.59,3.25,11.77,28.76,0.0042,0.6857,-0.1209,0.0515,0.713,-0.0387,0.1071,0.7675,0.135,0.0831,0.7371,-0.0366,0.0439,0.699,0.1268,0.0128,0.6685,-0.0229,0.0,0.013,0.006,0.033,0.019,0.006,0.013,0.006,0.019,0.006,0.013,0.026,0.006,0.0,0.006,0.019,0.026,0.026,0.0368,0.2408,0.3636,0.1549,0.2761,0.3774,0.1473,-0.0629,0.359,0.0245,0.2976,0.3728,0.0844,-0.0721,0.3789,0.1871,0.1595,0.3605,-0.0275,0.067,0.3086,-0.1411,0.1059,0.3074,-0.0762,0.2138,0.2997,0.1044,0.1575,0.302,-0.1186,0.2112,0.3105,-0.0913,0.1024,0.3008,0.0033,0.0068,0.0115,0.0079,-0.005,0.0237,0.6984,-0.1743,0.0947,0.7275,-0.0931,0.1369,0.7379,0.1338,0.0745,0.7546,-0.0974,0.053,0.6598,0.1211,0.061,0.6587,-0.0632,0.0,0.0,0.0,0.0,0.0,0.0,0.0,0.0,0.0,,
0.76,run,-0.0,3.01,1.12,0.57,-1.3,0.0,0.0,0.0,0.039,0.53,13.71,23.91,6.59,15.64,24.7,6.15,-0.62,24.08,2.55,17.05,24.17,2.64,-1.58,24.52,8.0,10.46,23.55,-0.26,12.53,30.26,0.87,14.0,30.18,3.12,9.66,30.62,2.92,15.05,30.09,1.39,7.16,30.09,1.75,12.39,30.26,-0.0075,0.6823,-0.0869,0.025,0.7091,-0.0058,0.089,0.7837,0.1398,0.0835,0.7281,0.0031,0.0396,0.7265,0.1272,-0.014,0.6798,0.0034,0.0,0.013,0.006,0.033,0.019,0.006,0.013,0.006,0.019,0.006,0.013,0.026,0.006,0.0,0.006,0.019,0.026,0.026,0.0261,0.2408,0.3881,0.1411,0.273,0.4019,0.1289,-0.0368,0.385,0.0337,0.2976,0.3958,0.0644,-0.046,0.4019,0.1626,0.1687,0.3835,-0.0596,0.0469,0.3081,-0.1506,0.0626,0.3072,-0.1224,0.2475,0.3076,0.1076,0.1102,0.2977,-0.1578,0.2457,0.3037,-0.156,0.1062,0.2969,0.0034,0.0067,-0.0019,-0.0005,0.0028,0.0042,0.6857,-0.1209,0.0515,0.713,-0.0387,0.1071,0.7675,0.135,0.0831,0.7371,-0.0366,0.0439,0.699,0.1268,0.0128,0.6685,-0.0229,0.0,0.0,0.0,0.0,0.0,0.0,0.0,0.0,0.0,,
0.8,run,0.04,3.0,0.7,0.43,-0.55,0.0,0.0,0.0,0.039,0.7,13.27,25.31,4.31,14.94,26.1,5.1,0.7,25.49,2.72,16.26,25.58,1.93,0.09,25.84,6.59,10.9,24.96,-0.4,12.7,31.76,0.54,14.2,31.68,2.81,11.16,32.12,2.79,14.96,31.59,1.47,8.66,31.59,0.25,12.85,31.76,-0.0114,0.6855,-0.0717,0.0155,0.7128,0.0065,0.0802,0.7898,0.1441,0.0798,0.7266,0.0215,0.042,0.7402,0.1305,-0.0274,0.6882,0.0188,0.0,0.013,0.006,0.033,0.019,0.006,0.013,0.006,0.019,0.006,0.013,0.026,0.006,0.0,0.006,0.019,0.026,0.026,0.0077,0.2332,0.4126,0.1197,0.2654,0.428,0.1104,-0.0123,0.4096,0.043,0.2915,0.4203,0.0491,-0.0291,0.4264,0.1381,0.1795,0.4065,-0.1111,0.0039,0.3082,-0.1864,0.0149,0.3134,-0.1551,0.2658,0.3079,0.11,0.054,0.3009,-0.1683,0.2356,0.3051,-0.2017,0.1148,0.2946,0.0103,0.0058,0.0196,0.0099,-0.0227,-0.0075,0.6823,-0.0869,0.025,0.7091,-0.0058,0.089,0.7837,0.1398,0.0835,0.7281,0.0031,0.0396,0.7265,0.1272,-0.014,0.6798,0.0034,0.0,0.0,0.0,0.0,0.0,0.0,0.0,0.0,0.0,,
0.84,run,0.05,3.0,-0.4,-0.01,0.23,0.0,0.0,0.0,0.039,-0.35,13.1,26.72,3.52,14.59,27.42,4.22,2.2,26.89,2.64,15.56,26.98,1.58,1.32,27.16,5.27,11.43,26.28,-0.35,13.28,33.26,0.6,14.67,33.18,2.72,12.66,33.62,2.47,15.2,33.09,1.68,10.16,33.09,-1.13,13.27,33.26,-0.01,0.696,-0.0691,0.0173,0.7213,0.0058,0.0777,0.787,0.1502,0.0706,0.7309,0.0247,0.0479,0.7447,0.1351,-0.0322,0.6958,0.0298,0.013,0.0,0.019,0.033,0.0,0.013,0.006,0.006,0.019,0.0,0.0,0.026,0.006,0.033,0.026,0.033,0.033,0.033,0.0107,0.2255,0.4372,0.0798,0.2531,0.4525,0.092,0.0107,0.4341,0.046,0.2777,0.4449,0.0368,0.0,0.4495,0.1135,0.1871,0.431,-0.0663,-0.0258,0.3072,-0.2791,-0.0353,0.3108,-0.1771,0.2718,0.3069,0.0885,-0.0136,0.3021,-0.1635,0.2735,0.2993,-0.2327,0.1089,0.2976,0.0141,0.0049,0.0123,0.0075,-0.0095,-0.0114,0.6855,-0.0717,0.0155,0.7128,0.0065,0.0802,0.7898,0.1441,0.0798,0.7266,0.0215,0.042,0.7402,0.1305,-0.0274,0.6882,0.0188,0.0,0.0,0.0,0.0,0.0,0.0,0.0,0.0,0.0,,
0.88,run,0.07,2.99,0.34,-0.0,-2.05,0.0,0.0,0.0,0.039,-0.44,13.01,28.04,2.9,14.5,28.92,3.52,3.6,28.3,2.64,15.12,28.39,1.58,2.55,28.56,3.87,11.87,27.6,-0.34,13.94,34.76,0.65,15.21,34.68,2.69,14.16,35.12,2.24,15.61,34.59,1.63,11.66,34.59,-1.24,13.74,34.76,-0.0097,0.708,-0.0659,0.0187,0.7311,0.0097,0.0769,0.7944,0.1592,0.0641,0.7383,0.0308,0.0465,0.7551,0.1403,-0.0354,0.7044,0.0413,0.013,0.0,0.019,0.033,0.0,0.013,0.006,0.006,0.019,0.0,0.0,0.026,0.006,0.033,0.026,0.033,0.033,0.033,-0.0077,0.2224,0.4617,0.066,0.247,0.4755,0.0767,0.0368,0.4587,0.0445,0.2654,0.4694,0.0307,0.0215,0.4725,0.0905,0.1963,0.4541,-0.1156,-0.0296,0.3072,-0.2472,-0.0477,0.304,-0.1816,0.2881,0.307,0.0562,-0.0556,0.3036,-0.1375,0.2721,0.2959,-0.2493,0.1108,0.2947,0.0154,0.0049,-0.0071,-0.0002,0.004,-0.01,0.696,-0.0691,0.0173,0.7213,0.0058,0.0777,0.787,0.1502,0.0706,0.7309,0.0247,0.0479,0.7447,0.1351,-0.0322,0.6958,0.0298,0.0,0.0,0.0,0.0,0.0,0.0,0.0,0.0,0.0,,
0.92,run,0.11,2.97,0.68,-0.35,-2.48,0.0,0.0,0.0,0.039,-0.18,12.92,29.44,0.97,14.59,30.32,3.08,5.01,29.71,2.46,15.12,29.79,1.58,3.78,29.79,2.46,12.13,29.0,-0.33,14.53,36.26,0.73,15.65,36.18,2.69,15.66,36.62,2.03,15.94,36.09,1.59,13.16,36.09,-1.23,14.11,36.26,-0.0095,0.7188,-0.0646,0.0208,0.7391,0.0118,0.0768,0.7994,0.1673,0.0581,0.7444,0.0341,0.0453,0.7616,0.1464,-0.0351,0.7111,0.0506,0.013,0.0,0.019,0.033,0.0,0.013,0.006,0.006,0.019,0.0,0.0,0.026,0.006,0.033,0.026,0.033,0.033,0.033,-0.0092,0.2209,0.4847,0.0552,0.2454,0.5016,0.0644,0.0614,0.4832,0.0445,0.2577,0.4939,0.0307,0.043,0.497,0.066,0.204,0.4771,-0.0866,-0.0265,0.3013,-0.2133,-0.0392,0.3106,-0.1731,0.2938,0.307,0.0393,-0.0677,0.3046,-0.0963,0.271,0.2992,-0.2665,0.1063,0.2926,0.0169,0.004,0.0059,-0.0001,-0.0358,-0.0097,0.708,-0.0659,0.0187,0.7311,0.0097,0.0769,0.7944,0.1592,0.0641,0.7383,0.0308,0.0465,0.7551,0.1403,-0.0354,0.7044,0.0413,0.0,0.0,0.0,0.0,0.0,0.0,0.0,0.0,0.0,,
0.96,run,0.05,2.88,-0.21,-0.83,-7.71,0.0,0.0,0.0,0.084,-0.44,13.18,30.76,0.88,15.03,31.73,2.99,6.42,31.11,2.02,15.12,31.11,1.58,5.01,31.11,1.23,12.57,30.32,-0.22,15.17,37.76,0.92,16.02,37.68,2.74,17.16,38.12,1.86,16.28,37.59,1.69,14.66,37.59,-1.17,14.44,37.76,-0.0064,0.7304,-0.0644,0.0262,0.7459,0.0145,0.0784,0.8003,0.1761,0.053,0.7505,0.0365,0.0482,0.7641,0.1549,-0.0335,0.7172,0.06,0.0,0.0,0.026,0.013,0.0,0.006,0.006,0.019,0.019,0.006,0.013,0.045,0.0,0.058,0.084,0.026,0.045,0.045,-0.0046,0.2194,0.5093,0.0215,0.247,0.5262,0.0568,0.0859,0.5077,0.0414,0.2577,0.5185,0.0307,0.0644,0.5185,0.0414,0.2086,0.5016,-0.0434,-0.0243,0.303,-0.2759,-0.0217,0.3095,-0.15,0.2977,0.307,0.016,-0.0474,0.3053,-0.0674,0.2703,0.29,-0.2787,0.0917,0.2969,0.02,0.0019,0.0119,-0.0062,-0.0433,-0.0095,0.7188,-0.0646,0.0208,0.7391,0.0118,0.0768,0.7994,0.1673,0.0581,0.7444,0.0341,0.0453,0.7616,0.1464,-0.0351,0.7111,0.0506,0.0,0.0,0.0,0.0,0.0,0.0,0.0,0.0,0.0,,
1.0,run,0.1,2.87,0.53,-0.71,-11.12,0.0,0.0,0.0,0.084,-0.53,13.89,32.17,1.14,15.29,33.13,2.9,7.73,32.43,1.93,15.29,32.43,1.58,6.15,32.34,0.35,12.74,31.64,-0.27,15.65,39.26,0.92,16.42,39.18,2.69,18.66,39.62,1.77,16.63,39.09,1.51,16.16,39.09,-1.14,14.82,39.26,-0.0077,0.7392,-0.062,0.0262,0.7531,0.019,0.0767,0.8104,0.1841,0.0505,0.7569,0.0405,0.0431,0.7722,0.1598,-0.0325,0.724,0.0677,0.0,0.0,0.026,0.013,0.0,0.006,0.006,0.019,0.019,0.006,0.013,0.045,0.0,0.058,0.084,0.026,0.045,0.045,-0.0092,0.224,0.5323,0.0199,0.2546,0.5507,0.0552,0.1104,0.5323,0.0337,0.2577,0.5415,0.0307,0.0859,0.5415,0.0199,0.2163,0.5246,-0.0477,0.0003,0.2988,-0.1989,0.0137,0.3091,-0.1108,0.3009,0.3073,-0.0177,-0.0332,0.3004,-0.0472,0.2701,0.2897,-0.276,0.0931,0.2945,0.0154,-0.0059,-0.0037,-0.0144,-0.1347,-0.0064,0.7304,-0.0644,0.0262,0.7459,0.0145,0.0784,0.8003,0.1761,0.053,0.7505,0.0365,0.0482,0.7641,0.1549,-0.0335,0.7172,0.06,0.0,0.0,0.0,0.0,0.0,0.0,0.0,0.0,0.0,,
1.04,run,0.15,2.88,0.91,-0.56,-8.53,0.0,0.0,0.0,0.084,-0.35,14.33,33.49,1.05,15.29,34.45,2.9,9.23,33.75,1.67,15.56,33.84,1.41,7.29,33.66,-0.35,13.01,32.96,-0.28,16.05,40.76,0.97,16.77,40.68,2.65,19.98,41.12,1.68,16.91,40.59,1.4,17.66,40.59,-1.01,15.14,40.76,-0.008,0.7464,-0.0598,0.0278,0.7594,0.0222,0.0757,0.8179,0.1916,0.048,0.7619,0.044,0.0401,0.7774,0.1661,-0.0289,0.7298,0.0736,0.0,0.0,0.026,0.013,0.0,0.006,0.006,0.019,0.019,0.006,0.013,0.045,0.0,0.058,0.084,0.026,0.045,0.045,-0.0107,0.2362,0.5568,0.0245,0.2592,0.5752,0.0537,0.1335,0.5553,0.0322,0.2608,0.5645,0.0307,0.1058,0.563,0.0046,0.2194,0.5476,-0.0392,0.0466,0.3019,-0.1219,0.027,0.3091,-0.0833,0.2975,0.3021,-0.0182,-0.0116,0.2972,-0.033,0.2644,0.2839,-0.2511,0.0768,0.2931,0.0191,-0.0069,0.0092,-0.0123,-0.1941,-0.0077,0.7392,-0.062,0.0262,0.7531,0.019,0.0767,0.8104,0.1841,0.0505,0.7569,0.0405,0.0431,0.7722,0.1598,-0.0325,0.724,0.0677,0.0,0.0,0.0,0.0,0.0,0.0,0.0,0.0,0.0,,
1.08,run,0.36,3.0,5.49,2.01,-3.09,0.0,0.0,0.0,0.175,-0.53,14.94,34.89,0.97,16.0,35.86,2.9,10.63,35.16,1.67,15.73,35.24,1.41,8.53,34.98,-0.62,13.27,34.28,-0.24,16.42,42.26,1.09,17.03,42.18,2.7,20.25,42.62,1.6,17.15,42.09,1.39,17.97,42.09,-0.89,15.42,42.26,-0.0069,0.7531,-0.0565,0.0311,0.7642,0.0269,0.0771,0.8228,0.1996,0.0457,0.7663,0.0491,0.0397,0.7813,0.1731,-0.0254,0.735,0.0803,0.006,0.019,0.039,0.0,0.013,0.026,0.0,0.013,0.033,0.0,0.026,0.058,0.0,0.175,0.117,0.013,0.084,0.071,-0.0077,0.2439,0.5798,0.023,0.2592,0.5983,0.0537,0.1595,0.5783,0.0276,0.2654,0.589,0.0276,0.1258,0.586,-0.0077,0.224,0.5706,-0.0161,0.061,0.2966,-0.091,0.0189,0.3016,-0.0583,0.3049,0.2967,-0.0298,0.0089,0.299,-0.0345,0.259,0.284,-0.2213,0.0708,0.2904,0.0242,-0.0062,0.0159,-0.0098,-0.1489,-0.008,0.7464,-0.0598,0.0278,0.7594,0.0222,0.0757,0.8179,0.1916,0.048,0.7619,0.044,0.0401,0.7774,0.1661,-0.0289,0.7298,0.0736,0.0,0.0,0.0,0.0,0.0,0.0,0.0,0.0,0.0,,
1.12,run,0.93,2.95,11.9,-1.42,-0.71,0.0,0.0,0.0,0.175,-0.35,15.29,36.47,0.97,16.44,37.44,2.72,12.3,36.83,1.67,16.0,36.83,1.41,10.02,36.47,-0.7,13.54,35.95,-0.17,16.77,43.76,1.23,17.3,43.68,2.88,20.56,44.12,1.53,17.4,43.59,1.49,18.18,43.59,-0.65,15.66,43.76,-0.005,0.7594,-0.0529,0.0351,0.769,0.0324,0.0824,0.8283,0.2081,0.0438,0.7709,0.0557,0.0427,0.7851,0.1822,-0.0184,0.7393,0.0873,0.006,0.019,0.039,0.0,0.013,0.026,0.0,0.013,0.033,0.0,0.026,0.058,0.0,0.175,0.117,0.013,0.084,0.071,-0.0107,0.2546,0.6044,0.0215,0.2715,0.6228,0.0537,0.1841,0.6029,0.0276,0.2684,0.6136,0.0276,0.1473,0.609,-0.0123,0.2286,0.5937,-0.0227,0.083,0.2995,-0.0694,0.0592,0.3031,-0.0408,0.3054,0.2996,-0.0208,0.0177,0.3012,-0.0241,0.2617,0.285,-0.1721,0.0668,0.2895,0.0417,0.0042,0.0958,0.0351,-0.0539,-0.0069,0.7531,-0.0565,0.0311,0.7642,0.0269,0.0771,0.8228,0.1996,0.0457,0.7663,0.0491,0.0397,0.7813,0.1731,-0.0254,0.735,0.0803,0.0,0.0,0.0,0.0,0.0,0.0,0.0,0.0,0.0,,
1.16,run,1.65,2.86,17.96,-1.84,1.75,0.0,0.0,0.0,0.175,-0.44,15.47,37.88,0.97,16.52,38.85,2.55,13.54,38.14,1.67,16.08,38.14,1.41,11.25,37.88,-0.62,13.62,37.35,-0.02,17.17,45.26,1.4,17.66,45.18,3.04,20.89,45.62,1.44,17.73,45.09,1.65,18.37,45.09,-0.36,15.95,45.26,-0.0006,0.7667,-0.0498,0.0399,0.7757,0.0371,0.0867,0.8343,0.2194,0.0412,0.7769,0.0619,0.0471,0.7886,0.1954,-0.0103,0.7445,0.0963,0.006,0.019,0.039,0.0,0.013,0.026,0.0,0.013,0.033,0.0,0.026,0.058,0.0,0.175,0.117,0.013,0.084,0.071,-0.0077,0.2608,0.632,0.0215,0.2792,0.6504,0.0506,0.2132,0.632,0.0276,0.273,0.6412,0.0276,0.1733,0.6351,-0.0138,0.2332,0.6228,-0.0063,0.0773,0.2963,-0.0486,0.0655,0.2987,-0.0382,0.3051,0.3011,-0.0146,0.0268,0.2974,-0.0169,0.265,0.2813,-0.1253,0.0612,0.294,0.0916,0.0002,0.2077,-0.0247,-0.0125,-0.005,0.7594,-0.0529,0.0351,0.769,0.0324,0.0824,0.8283,0.2081,0.0438,0.7709,0.0557,0.0427,0.7851,0.1822,-0.0184,0.7393,0.0873,0.0,0.0,0.0,0.0,0.0,0.0,0.0,0.0,0.0,,
1.2,run,2.39,2.85,19.05,-0.21,1.41,0.0,0.0,0.0,0.319,-0.09,15.82,39.2,1.14,16.7,40.25,2.55,14.68,39.46,1.41,16.35,39.55,1.49,12.57,39.2,-0.35,13.89,38.76,0.18,17.48,46.76,1.6,17.93,46.68,3.25,20.99,47.12,1.36,17.93,46.59,1.87,18.38,46.59,-0.01,16.07,46.76,0.0052,0.7723,-0.05,0.0458,0.7805,0.0387,0.0928,0.8361,0.2285,0.0388,0.7805,0.0658,0.0533,0.7887,0.2063,-0.0003,0.7467,0.1024,0.006,0.033,0.045,0.0,0.026,0.039,0.006,0.058,0.052,0.013,0.045,0.058,0.0,0.319,0.214,0.0,0.117,0.071,-0.0092,0.2638,0.6565,0.0215,0.2807,0.675,0.0476,0.2347,0.655,0.0276,0.2746,0.6642,0.0276,0.1948,0.6596,-0.0123,0.2347,0.6473,-0.0101,0.0655,0.2981,-0.034,0.0515,0.2998,-0.0381,0.293,0.2959,-0.0102,0.0245,0.2933,-0.0118,0.2649,0.2876,-0.082,0.0485,0.2966,0.1547,-0.0073,0.3135,-0.0322,0.0306,-0.0006,0.7667,-0.0498,0.0399,0.7757,0.0371,0.0867,0.8343,0.2194,0.0412,0.7769,0.0619,0.0471,0.7886,0.1954,-0.0103,0.7445,0.0963,0.0,0.0,0.0,0.0,0.0,0.0,0.0,0.0,0.0,,
1.24,run,3.0,2.86,14.76,-0.02,1.42,0.0,0.0,0.0,0.319,-0.09,16.08,40.61,1.32,16.96,41.66,2.9,16.0,40.78,1.32,16.61,41.04,1.76,13.97,40.61,-0.18,14.24,40.17,0.31,17.7,48.26,1.7,18.16,48.18,3.38,21.28,48.62,1.28,18.13,48.09,1.92,18.56,48.09,0.34,16.25,48.26,0.0088,0.7764,-0.0478,0.0486,0.7847,0.0425,0.0967,0.8415,0.237,0.0366,0.7842,0.0701,0.0547,0.792,0.2136,0.0098,0.75,0.1075,0.006,0.033,0.045,0.0,0.026,0.039,0.006,0.058,0.052,0.013,0.045,0.058,0.0,0.319,0.214,0.0,0.117,0.071,-0.0031,0.27,0.6796,0.0245,0.2838,0.6995,0.0476,0.2546,0.678,0.023,0.2792,0.6888,0.0291,0.2178,0.6826,-0.0077,0.2393,0.6719,0.0159,0.0688,0.2949,-0.0123,0.0476,0.3019,-0.0267,0.2798,0.2933,-0.0244,0.0344,0.2973,-0.0025,0.2717,0.2876,-0.0402,0.0512,0.2996,0.2196,-0.0082,0.3326,-0.0037,0.0246,0.0052,0.7723,-0.05,0.0458,0.7805,0.0387,0.0928,0.8361,0.2285,0.0388,0.7805,0.0658,0.0533,0.7887,0.2063,-0.0003,0.7467,0.1024,0.0,0.0,0.0,0.0,0.0,0.0,0.0,0.0,0.0,,
1.28,run,3.51,2.91,12.48,1.61,-1.47,0.0,0.0,0.0,0.319,-0.09,16.26,42.01,1.41,17.05,43.07,2.9,17.14,42.1,1.32,16.7,42.36,1.67,14.77,42.01,0.0,14.24,41.48,0.35,17.81,49.76,1.75,18.34,49.68,3.43,21.59,50.12,1.23,18.31,49.59,1.91,18.8,49.59,0.59,16.51,49.76,0.0101,0.7783,-0.0437,0.0501,0.7879,0.047,0.0979,0.8471,0.2443,0.0352,0.7875,0.0729,0.0546,0.7964,0.2191,0.0169,0.7548,0.1107,0.006,0.033,0.045,0.0,0.026,0.039,0.006,0.058,0.052,0.013,0.045,0.058,0.0,0.319,0.214,0.0,0.117,0.071,-0.0031,0.2746,0.7041,0.0276,0.2884,0.724,0.0537,0.2777,0.701,0.0215,0.2838,0.7148,0.0337,0.2424,0.7072,-0.0046,0.2454,0.6964,0.0112,0.0644,0.2928,0.0022,0.0495,0.2977,0.0029,0.2769,0.2863,-0.0225,0.0403,0.2999,0.0144,0.2765,0.2877,-0.0173,0.0574,0.2961,0.2729,-0.008,0.2575,-0.0003,0.0248,0.0088,0.7764,-0.0478,0.0486,0.7847,0.0425,0.0967,0.8415,0.237,0.0366,0.7842,0.0701,0.0547,0.792,0.2136,0.0098,0.75,0.1075,0.0,0.0,0.0,0.0,0.0,0.0,0.0,0.0,0.0,,
1.32,run,3.86,3.06,8.53,3.47,0.52,0.0,0.0,0.0,0.552,0.26,16.35,43.33,1.49,17.05,44.38,3.08,18.28,43.33,1.32,16.96,43.77,1.93,15.64,43.42,0.44,14.41,42.98,0.45,17.93,51.26,1.8,18.48,51.18,3.44,21.84,51.62,1.2,18.44,51.09,1.95,18.96,51.09,0.77,16.7,51.26,0.0129,0.7805,-0.0406,0.0515,0.7905,0.0515,0.0983,0.8517,0.2511,0.0342,0.7898,0.0772,0.0558,0.7993,0.2248,0.0221,0.7582,0.115,0.006,0.052,0.065,0.0,0.039,0.111,0.0,0.169,0.149,0.0,0.071,0.104,0.0,0.552,0.24,0.006,0.091,0.111,-0.0031,0.2777,0.7286,0.0291,0.2899,0.7486,0.0537,0.2976,0.724,0.0215,0.2853,0.7378,0.0322,0.2562,0.7317,-0.0015,0.2454,0.7194,0.0078,0.0565,0.2965,0.0072,0.0404,0.2999,0.0021,0.2682,0.2863,-0.0157,0.0339,0.2957,0.0044,0.2451,0.2929,-0.0007,0.0402,0.2931,0.3174,-0.003,0.2178,0.0281,-0.0257,0.0101,0.7783,-0.0437,0.0501,0.7879,0.047,0.0979,0.8471,0.2443,0.0352,0.7875,0.0729,0.0546,0.7964,0.2191,0.0169,0.7548,0.1107,0.0,0.0,0.0,0.0,0.0,0.0,0.0,0.0,0.0,,
1.36,run,4.4,3.19,7.72,1.84,-1.53,0.0,0.0,0.0,0.552,0.26,16.44,45.7,1.67,17.23,46.76,3.16,19.51,45.44,1.32,17.05,46.23,1.76,16.0,45.79,0.7,14.68,45.35,0.46,17.97,52.76,1.82,18.56,52.68,3.45,22.06,53.12,1.17,18.55,52.59,1.93,19.16,52.59,0.93,16.94,52.76,0.0132,0.7812,-0.0353,0.052,0.7919,0.0565,0.0986,0.8557,0.2561,0.0335,0.7918,0.0807,0.0551,0.8029,0.2283,0.0266,0.7625,0.1168,0.006,0.052,0.065,0.0,0.039,0.111,0.0,0.169,0.149,0.0,0.071,0.104,0.0,0.552,0.24,0.006,0.091,0.111,0.0031,0.2792,0.7517,0.0307,0.2899,0.7716,0.0568,0.3175,0.7455,0.0215,0.2899,0.7624,0.0368,0.2715,0.7563,0.0061,0.2485,0.7455,0.0284,0.0453,0.2934,0.0108,0.0283,0.2958,0.0129,0.2621,0.2805,-0.011,0.0409,0.2986,0.0202,0.2288,0.2966,0.0281,0.0396,0.3025,0.3479,0.0099,0.1488,0.0606,0.0091,0.0129,0.7805,-0.0406,0.0515,0.7905,0.0515,0.0983,0.8517,0.2511,0.0342,0.7898,0.0772,0.0558,0.7993,0.2248,0.0221,0.7582,0.115,0.0,0.0,0.0,0.0,0.0,0.0,0.0,0.0,0.0,,
1.4,run,4.78,3.17,8.94,-0.68,-0.33,0.0,0.0,0.0,0.552,0.26,16.44,47.02,1.67,17.23,48.08,3.25,19.86,46.76,1.32,17.05,47.55,1.85,16.0,47.11,0.79,14.68,46.67,0.54,18.03,54.26,1.81,18.66,54.18,3.38,22.48,54.62,1.16,18.68,54.09,1.96,19.46,54.09,1.02,17.24,54.26,0.0155,0.7824,-0.0283,0.0517,0.7938,0.0653,0.0967,0.8633,0.2635,0.0332,0.7942,0.088,0.0559,0.8083,0.2345,0.0292,0.768,0.1223,0.006,0.058,0.078,0.006,0.058,0.104,0.0,0.331,0.143,0.006,0.071,0.136,0.006,0.526,0.189,0.006,0.156,0.123,0.0031,0.2807,0.7931,0.0337,0.293,0.813,0.0583,0.339,0.7823,0.0215,0.2915,0.8053,0.0337,0.2777,0.7977,0.0107,0.2531,0.7869,0.0199,0.0349,0.2932,0.0141,0.0263,0.2948,0.0123,0.229,0.2744,-0.0077,0.0319,0.3,0.0077,0.1732,0.2954,0.0294,0.0375,0.2995,0.3951,0.0209,0.1347,0.032,-0.0267,0.0132,0.7812,-0.0353,0.052,0.7919,0.0565,0.0986,0.8557,0.2561,0.0335,0.7918,0.0807,0.0551,0.8029,0.2283,0.0266,0.7625,0.1168,0.0,0.0,0.0,0.0,0.0,0.0,0.0,0.0,0.0,,
1.44,run,5.36,3.09,11.73,-1.56,-1.61,0.0,0.0,0.0,0.552,0.26,16.44,48.69,1.76,17.23,49.66,3.25,20.21,48.34,1.32,17.05,49.13,1.76,16.52,48.78,0.88,14.85,48.25,0.63,18.05,55.76,1.85,18.68,55.68,3.37,22.57,56.12,1.14,18.72,55.59,2.05,19.52,55.59,1.09,17.35,55.76,0.018,0.7827,-0.0255,0.0529,0.7942,0.0687,0.0964,0.865,0.2669,0.0327,0.7948,0.0907,0.0587,0.8095,0.2385,0.0311,0.77,0.124,0.006,0.058,0.078,0.006,0.058,0.104,0.0,0.331,0.143,0.006,0.071,0.136,0.006,0.526,0.189,0.006,0.156,0.123,0.0031,0.2807,0.8161,0.0337,0.293,0.836,0.0598,0.3451,0.8053,0.0215,0.2915,0.8283,0.0353,0.2777,0.8207,0.0123,0.2531,0.8099,0.0139,0.0245,0.2903,0.0098,0.0184,0.2915,0.0143,0.183,0.2771,-0.0054,0.0223,0.2951,0.011,0.1212,0.2919,0.0263,0.0262,0.2947,0.4278,0.0194,0.156,-0.0118,-0.0057,0.0155,0.7824,-0.0283,0.0517,0.7938,0.0653,0.0967,0.8633,0.2635,0.0332,0.7942,0.088,0.0559,0.8083,0.2345,0.0292,0.768,0.1223,0.0,0.0,0.0,0.0,0.0,0.0,0.0,0.0,0.0,,
1.48,run,5.78,3.06,10.52,-0.62,-0.52,0.0,0.0,0.0,0.552,0.26,16.44,49.92,1.76,17.14,50.89,3.25,20.3,49.57,1.32,17.05,50.54,1.85,16.7,50.1,0.97,15.03,49.66,0.73,18.07,57.26,1.9,18.71,57.18,3.43,22.63,57.62,1.14,18.72,57.09,2.15,19.5,57.09,1.25,17.4,57.26,0.0207,0.783,-0.0251,0.0543,0.7946,0.0709,0.0979,0.8659,0.2706,0.0326,0.7948,0.093,0.0615,0.809,0.242,0.0358,0.7709,0.1264,0.006,0.058,0.078,0.006,0.058,0.104,0.0,0.331,0.143,0.006,0.071,0.136,0.006,0.526,0.189,0.006,0.156,0.123,0.0031,0.2807,0.8452,0.0353,0.293,0.8636,0.0598,0.3513,0.833,0.0215,0.2915,0.856,0.0337,0.2869,0.8498,0.0138,0.2562,0.8376,0.0097,0.0171,0.2954,0.0117,0.0129,0.2913,0.01,0.1475,0.2813,-0.0038,0.0156,0.2939,0.0029,0.1139,0.2965,0.0233,0.0281,0.2936,0.4784,0.0126,0.2048,-0.0272,-0.0281,0.018,0.7827,-0.0255,0.0529,0.7942,0.0687,0.0964,0.865,0.2669,0.0327,0.7948,0.0907,0.0587,0.8095,0.2385,0.0311,0.77,0.124,0.0,0.0,0.0,0.0,0.0,0.0,0.0,0.0,0.0,,
1.52,run,6.09,3.15,8.36,2.4,0.81,0.0,0.0,0.0,0.552,0.44,16.44,51.33,1.76,17.14,52.12,3.25,20.3,50.8,1.32,17.05,51.94,2.02,16.7,51.59,1.14,15.12,51.06,0.75,18.03,58.76,1.93,18.66,58.68,3.45,22.64,59.12,1.15,18.69,58.59,2.17,19.5,58.59,1.38,17.45,58.76,0.0215,0.7824,-0.0242,0.055,0.7938,0.0729,0.0986,0.8662,0.2723,0.0328,0.7943,0.0943,0.0621,0.8092,0.2429,0.0393,0.7718,0.1261,0.006,0.058,0.111,0.0,0.052,0.189,0.0,0.331,0.208,0.006,0.084,0.163,0.006,0.52,0.221,0.0,0.208,0.123,0.0031,0.2807,0.8667,0.0353,0.2915,0.8851,0.0598,0.3528,0.8544,0.0215,0.2915,0.8805,0.0353,0.2899,0.8728,0.0153,0.2592,0.8621,0.0068,0.012,0.2868,0.0082,0.0033,0.2839,0.007,0.109,0.2769,-0.0026,0.0109,0.2972,0.0077,0.0912,0.2932,0.022,0.0311,0.297,0.515,0.0096,0.1836,-0.0109,-0.009,0.0207,0.783,-0.0251,0.0543,0.7946,0.0709,0.0979,0.8659,0.2706,0.0326,0.7948,0.093,0.0615,0.809,0.242,0.0358,0.7709,0.1264,0.0,0.0,0.0,0.0,0.0,0.0,0.0,0.0,0.0,,
1.56,run,6.4,3.1,8.18,-1.75,-0.83,0.0,0.0,0.0,0.552,0.62,16.44,52.65,1.76,17.14,53.44,3.25,20.3,52.03,1.32,17.05,53.26,2.02,16.7,53.0,1.23,15.12,52.38,0.75,17.97,60.26,1.92,18.58,60.18,3.46,22.66,60.62,1.16,18.64,60.09,2.15,19.53,60.09,1.49,17.51,60.26,0.0214,0.7812,-0.0224,0.0548,0.7923,0.0755,0.0987,0.8665,0.273,0.0331,0.7935,0.0955,0.0615,0.8096,0.2423,0.0424,0.7729,0.1251,0.006,0.058,0.111,0.0,0.052,0.189,0.0,0.331,0.208,0.006,0.084,0.163,0.006,0.52,0.221,0.0,0.208,0.123,0.0061,0.2807,0.8912,0.0353,0.2915,0.9066,0.0598,0.3528,0.8759,0.0215,0.2915,0.905,0.0383,0.2899,0.8989,0.0184,0.2608,0.8866,0.0162,0.0084,0.2925,0.0058,0.0023,0.2791,0.0049,0.0763,0.2742,-0.0019,0.0077,0.2998,0.0169,0.0638,0.3028,0.0269,0.0275,0.2997,0.542,0.0178,0.1459,0.0419,0.0142,0.0215,0.7824,-0.0242,0.055,0.7938,0.0729,0.0986,0.8662,0.2723,0.0328,0.7943,0.0943,0.0621,0.8092,0.2429,0.0393,0.7718,0.1261,0.0,0.0,0.0,0.0,0.0,0.0,0.0,0.0,0.0,,
1.6,run,6.81,3.03,9.73,-2.29,-1.84,0.0,0.0,0.0,0.552,0.62,16.35,53.96,1.76,17.05,54.76,3.25,20.3,53.26,1.32,17.05,54.58,2.02,16.7,54.4,1.41,15.12,53.79,0.77,17.88,61.76,1.89,18.55,61.68,3.4,22.7,62.12,1.18,18.64,61.59,2.17,19.53,61.59,1.49,17.59,61.76,0.0219,0.7797,-0.0209,0.054,0.7918,0.0768,0.0971,0.8673,0.2741,0.0336,0.7935,0.0959,0.0621,0.8096,0.243,0.0424,0.7743,0.1256,0.006,0.058,0.111,0.0,0.052,0.189,0.0,0.331,0.208,0.006,0.084,0.163,0.006,0.52,0.221,0.0,0.208,0.123,0.0092,0.2807,0.9143,0.0353,0.2915,0.9296,0.0598,0.3528,0.8974,0.0215,0.2915,0.9281,0.0383,0.2899,0.9235,0.0199,0.2608,0.9097,0.0229,0.0059,0.2913,0.004,0.0016,0.2819,0.0034,0.0534,0.2727,-0.0013,0.0054,0.2964,0.0118,0.0447,0.3043,0.0246,0.0192,0.2963,0.5696,0.0134,0.1428,-0.0306,-0.0145,0.0214,0.7812,-0.0224,0.0548,0.7923,0.0755,0.0987,0.8665,0.273,0.0331,0.7935,0.0955,0.0615,0.8096,0.2423,0.0424,0.7729,0.1251,0.0,0.0,0.0,0.0,0.0,0.0,0.0,0.0,0.0,,
1.64,run,6.98,3.1,5.17,1.55,-1.16,0.0,0.0,0.0,0.552,0.62,16.35,55.37,1.76,17.05,56.16,3.25,20.3,54.67,1.32,17.05,55.99,2.11,16.7,55.72,1.32,15.12,55.2,0.82,17.84,63.24,1.9,18.52,63.18,3.42,22.7,63.62,1.19,18.62,63.09,2.23,19.49,63.09,1.56,17.6,63.26,0.0233,0.7789,-0.0207,0.0543,0.7913,0.0777,0.0977,0.8672,0.2752,0.0341,0.793,0.0966,0.0637,0.8088,0.244,0.0445,0.7745,0.1263,0.006,0.065,0.143,0.0,0.052,0.24,0.0,0.396,0.247,0.0,0.078,0.169,0.0,0.474,0.286,0.013,0.156,0.149,0.0092,0.2792,0.9373,0.0353,0.2899,0.9526,0.0598,0.3528,0.9189,0.0215,0.2915,0.9511,0.0383,0.2899,0.948,0.023,0.2608,0.9342,0.016,-0.0016,0.2896,0.0028,-0.0046,0.283,0.0024,0.0374,0.2709,-0.0009,0.0038,0.2932,0.0083,0.0313,0.3044,0.0286,0.0135,0.2988,0.6053,0.0071,0.1699,-0.0399,-0.0322,0.0219,0.7797,-0.0209,0.054,0.7918,0.0768,0.0971,0.8673,0.2741,0.0336,0.7935,0.0959,0.0621,0.8096,0.243,0.0424,0.7743,0.1256,0.0,0.0,0.0,0.0,0.0,0.0,0.0,0.0,0.0,,
1.68,run,7.02,3.09,1.45,-0.68,-0.65,0.0,0.0,0.0,0.552,0.62,16.35,56.69,1.76,17.05,57.48,3.25,20.3,55.99,1.41,16.96,57.3,2.2,16.7,57.13,1.49,15.12,56.51,0.78,17.74,63.29,1.88,18.4,64.68,3.42,22.62,65.12,1.22,18.54,64.59,2.18,19.44,64.59,1.64,17.62,64.76,0.0223,0.777,-0.0201,0.0538,0.7891,0.0791,0.0977,0.8659,0.2753,0.0349,0.7916,0.0964,0.0623,0.8079,0.2423,0.0469,0.775,0.1243,0.006,0.065,0.143,0.0,0.052,0.24,0.0,0.396,0.247,0.0,0.078,0.169,0.0,0.474,0.286,0.013,0.156,0.149,0.0092,0.2792,0.9618,0.0353,0.2899,0.9771,0.0598,0.3528,0.9434,0.0215,0.2915,0.9756,0.0399,0.2899,0.971,0.0215,0.2608,0.9587,0.0112,-0.0011,0.295,0.002,-0.0032,0.2904,0.0017,0.0262,0.2819,-0.0006,0.0026,0.2975,0.0116,0.0219,0.2996,0.0143,0.0094,0.3015,0.6201,0.0135,0.0902,0.0271,-0.0202,0.0233,0.7789,-0.0207,0.0543,0.7913,0.0777,0.0977,0.8672,0.2752,0.0341,0.793,0.0966,0.0637,0.8088,0.244,0.0445,0.7745,0.1263,0.0,0.0,0.0,0.0,0.0,0.0,0.0,0.0,0.0,,
1.72,run,7.03,3.02,0.66,-2.64,-3.67,0.0,0.0,0.0,0.552,0.62,16.35,58.1,1.76,17.05,58.89,3.25,20.3,57.3,1.41,16.96,58.71,2.2,16.7,58.54,1.49,15.12,57.92,0.72,17.61,63.49,1.83,18.34,66.18,3.34,22.65,66.62,1.26,18.53,66.09,2.14,19.48,66.09,1.59,17.73,66.26,0.0206,0.7747,-0.0177,0.0523,0.788,0.0807,0.0954,0.8663,0.2752,0.0359,0.7915,0.0963,0.061,0.8086,0.2415,0.0455,0.7769,0.1232,0.006,0.065,0.143,0.0,0.052,0.24,0.0,0.396,0.247,0.0,0.078,0.169,0.0,0.474,0.286,0.013,0.156,0.149,0.0092,0.2792,0.9848,0.0353,0.2899,1.0002,0.0598,0.3528,0.9664,0.023,0.2899,0.9986,0.0414,0.2899,0.9956,0.0245,0.2608,0.9817,0.0079,-0.0008,0.2933,0.0014,-0.0022,0.29,0.0012,0.0183,0.2841,0.0053,-0.0039,0.295,0.0139,0.0153,0.3023,0.0216,0.0066,0.2978,0.6232,0.0128,0.0253,-0.0119,-0.0113,0.0223,0.777,-0.0201,0.0538,0.7891,0.0791,0.0977,0.8659,0.2753,0.0349,0.7916,0.0964,0.0623,0.8079,0.2423,0.0469,0.775,0.1243,0.0,0.0,0.0,0.0,0.0,0.0,0.0,0.0,0.0,,
1.76,run,7.0,3.22,-1.5,5.29,-3.26,0.0,0.0,0.0,0.552,0.62,16.35,59.33,1.49,16.96,60.29,3.25,20.21,58.71,1.41,16.96,60.12,2.2,16.7,59.94,1.49,15.12,59.33,0.7,17.53,63.57,1.79,18.28,67.68,3.25,22.67,68.12,1.3,18.52,67.59,2.1,19.49,67.59,1.52,17.8,67.76,0.02,0.7732,-0.0168,0.0512,0.7869,0.082,0.0929,0.8668,0.2748,0.0371,0.7912,0.0965,0.0601,0.8088,0.2404,0.0435,0.7782,0.1231,0.0,0.026,0.136,0.006,0.039,0.26,0.0,0.403,0.273,0.0,0.065,0.208,0.0,0.487,0.312,0.0,0.189,0.13,0.0092,0.2792,1.0094,0.0353,0.2899,1.0247,0.0598,0.3528,0.9894,0.023,0.2899,1.0232,0.0414,0.2899,1.0201,0.0245,0.2608,1.0063,0.0055,-0.0005,0.2968,0.001,-0.0016,0.2945,0.0008,0.0128,0.2846,0.0037,-0.0028,0.298,0.0097,0.0107,0.3031,0.0151,0.0046,0.3,0.6245,0.0061,0.0116,-0.046,-0.064,0.0206,0.7747,-0.0177,0.0523,0.788,0.0807,0.0954,0.8663,0.2752,0.0359,0.7915,0.0963,0.061,0.8086,0.2415,0.0455,0.7769,0.1232,0.0,0.0,0.0,0.0,0.0,0.0,0.0,0.0,0.0,,
1.8,run,6.9,3.08,-1.29,-5.6,-0.05,0.0,0.0,0.0,0.552,0.62,16.35,60.38,1.32,16.96,61.7,3.25,20.21,60.12,1.49,16.96,61.61,2.2,16.7,61.44,1.49,15.12,60.82,0.68,17.49,63.62,1.8,18.17,69.18,3.25,22.61,69.62,1.32,18.44,69.09,2.06,19.46,69.09,1.59,17.81,69.26,0.0193,0.7725,-0.0162,0.0514,0.785,0.0839,0.093,0.8655,0.2746,0.0378,0.7898,0.0975,0.0587,0.8083,0.239,0.0455,0.7784,0.1217,0.0,0.026,0.136,0.006,0.039,0.26,0.0,0.403,0.273,0.0,0.065,0.208,0.0,0.487,0.312,0.0,0.189,0.13,0.0092,0.2792,1.0308,0.0307,0.2884,1.0492,0.0598,0.3513,1.014,0.023,0.2899,1.0477,0.0414,0.2899,1.0446,0.0245,0.2608,1.0308,0.0039,-0.0004,0.2883,-0.0166,-0.0069,0.2982,0.0006,0.0032,0.2913,0.0026,-0.0019,0.3007,0.0068,0.0075,0.3042,0.0106,0.0032,0.302,0.6219,0.0239,-0.0262,0.0923,-0.057,0.02,0.7732,-0.0168,0.0512,0.7869,0.082,0.0929,0.8668,0.2748,0.0371,0.7912,0.0965,0.0601,0.8088,0.2404,0.0435,0.7782,0.1231,0.0,0.0,0.0,0.0,0.0,0.0,0.0,0.0,0.0,,
1.84,run,6.87,3.25,-0.34,3.05,-2.99,0.0,0.0,0.0,0.552,0.62,16.35,61.17,1.32,16.96,63.11,3.25,20.21,61.35,1.49,16.96,63.11,2.2,16.7,63.02,1.49,15.47,62.31,0.61,17.32,63.87,1.72,18.12,70.68,3.16,22.5,71.12,1.37,18.48,70.59,2.07,19.38,70.59,1.45,17.95,70.76,0.0175,0.7694,-0.0133,0.0492,0.7839,0.0841,0.0902,0.8637,0.2746,0.0392,0.7906,0.0956,0.0591,0.8069,0.2395,0.0416,0.7809,0.1206,0.0,0.026,0.136,0.006,0.039,0.26,0.0,0.403,0.273,0.0,0.065,0.208,0.0,0.487,0.312,0.0,0.189,0.13,0.0092,0.2792,1.0492,0.0276,0.2884,1.0738,0.0598,0.3513,1.0385,0.0245,0.2899,1.0738,0.0414,0.2899,1.0707,0.0245,0.2608,1.0569,0.0027,-0.0003,0.2704,-0.023,-0.0048,0.3002,0.0004,0.0023,0.2954,0.0075,-0.0014,0.3077,0.0048,0.0053,0.3101,0.0074,0.0023,0.3086,0.6128,0.0118,-0.0225,-0.0977,-0.0009,0.0193,0.7725,-0.0162,0.0514,0.785,0.0839,0.093,0.8655,0.2746,0.0378,0.7898,0.0975,0.0587,0.8083,0.239,0.0455,0.7784,0.1217,0.0,0.0,0.0,0.0,0.0,0.0,0.0,0.0,0.0,,
1.88,run,6.76,3.57,-3.73,11.32,-4.88,0.0,0.0,0.0,0.552,0.53,16.35,61.79,1.23,16.96,64.6,3.25,20.21,63.02,1.49,16.96,64.69,2.2,16.7,64.51,1.49,15.56,63.72,0.59,17.31,63.93,1.71,18.02,72.18,3.14,22.57,72.62,1.39,18.41,72.09,1.98,19.46,72.09,1.49,17.92,72.26,0.017,0.7692,-0.0126,0.0489,0.7822,0.0873,0.0897,0.8649,0.2738,0.0398,0.7892,0.0982,0.0565,0.8084,0.2374,0.0426,0.7804,0.1209,0.0,0.026,0.058,0.006,0.033,0.175,0.0,0.325,0.267,0.006,0.045,0.117,0.0,0.442,0.26,0.0,0.143,0.13,0.0092,0.2792,1.063,0.0276,0.2884,1.0983,0.0598,0.3513,1.06,0.0245,0.2899,1.0999,0.0414,0.2899,1.0983,0.0245,0.2669,1.083,0.0019,-0.0002,0.2418,-0.0161,-0.0034,0.3036,0.0003,0.0016,0.2885,0.0053,-0.0009,0.3146,0.0033,0.0037,0.3222,0.0052,0.0249,0.3153,0.6102,0.0265,-0.006,0.0532,-0.0522,0.0175,0.7694,-0.0133,0.0492,0.7839,0.0841,0.0902,0.8637,0.2746,0.0392,0.7906,0.0956,0.0591,0.8069,0.2395,0.0416,0.7809,0.1206,0.0,0.0,0.0,0.0,0.0,0.0,0.0,0.0,0.0,,
1.92,run,6.74,3.33,-1.07,-5.85,6.11,0.0,0.0,0.0,0.552,0.53,16.35,62.31,1.32,16.96,66.18,3.25,20.21,64.6,1.58,16.96,66.27,2.11,16.7,66.01,1.49,15.56,65.13,0.53,17.23,64.11,1.67,17.93,72.68,3.09,22.62,74.12,1.41,18.36,73.48,1.87,19.57,73.59,1.53,17.96,73.76,0.0153,0.7678,-0.0104,0.0478,0.7805,0.0903,0.0884,0.8659,0.2736,0.0403,0.7883,0.0997,0.0535,0.8104,0.236,0.0436,0.781,0.1201,0.0,0.026,0.058,0.006,0.033,0.175,0.0,0.325,0.267,0.006,0.045,0.117,0.0,0.442,0.26,0.0,0.143,0.13,0.0077,0.2792,1.0738,0.0261,0.2884,1.1244,0.0598,0.3513,1.0891,0.0245,0.2899,1.1275,0.0414,0.2899,1.1244,0.0245,0.2684,1.1075,-0.0044,-0.0001,0.2091,-0.017,-0.0024,0.3092,0.0002,0.0011,0.3101,0.0037,-0.0007,0.3226,0.0023,0.0026,0.3223,0.0036,0.0231,0.3117,0.6009,0.0542,-0.0651,0.1975,-0.0851,0.017,0.7692,-0.0126,0.0489,0.7822,0.0873,0.0897,0.8649,0.2738,0.0398,0.7892,0.0982,0.0565,0.8084,0.2374,0.0426,0.7804,0.1209,0.0,0.0,0.0,0.0,0.0,0.0,0.0,0.0,0.0,,
1.96,run,6.92,3.68,2.71,9.81,-5.56,0.0,0.0,0.0,0.552,0.53,16.35,62.58,1.32,16.96,67.59,3.25,20.21,66.09,1.58,16.96,67.76,2.02,16.7,67.5,1.49,15.56,66.53,0.46,16.99,64.46,1.6,17.9,72.53,3.06,22.37,75.62,1.44,18.44,73.16,1.96,19.36,75.09,1.45,18.1,75.0,0.013,0.7635,-0.0063,0.0456,0.7799,0.0886,0.0876,0.8613,0.2748,0.0411,0.7898,0.096,0.0561,0.8065,0.2385,0.0414,0.7837,0.1176,0.0,0.026,0.058,0.006,0.033,0.175,0.0,0.325,0.267,0.006,0.045,0.117,0.0,0.442,0.26,0.0,0.143,0.13,0.0077,0.2792,1.083,0.0276,0.2884,1.152,0.0598,0.3513,1.1167,0.0261,0.2899,1.1551,0.0399,0.2899,1.1505,0.0245,0.2684,1.1321,-0.0031,-0.0001,0.1811,-0.0061,-0.0016,0.3206,0.0001,0.0008,0.3212,0.0084,-0.0005,0.33,-0.0042,0.0018,0.324,0.0025,0.0162,0.3108,0.5985,0.0336,-0.0186,-0.1021,0.1066,0.0153,0.7678,-0.0104,0.0478,0.7805,0.0903,0.0884,0.8659,0.2736,0.0403,0.7883,0.0997,0.0535,0.8104,0.236,0.0436,0.781,0.1201,0.0,0.0,0.0,0.0,0.0,0.0,0.0,0.0,0.0,,
2.0,run,6.97,3.68,1.28,0.56,0.22,0.0,0.0,0.0,0.552,0.53,16.35,62.84,1.32,16.96,68.82,3.25,20.21,67.59,1.58,17.05,69.35,2.02,16.7,69.08,1.49,15.56,67.94,0.51,17.04,64.41,1.61,17.79,72.9,3.05,22.58,77.12,1.45,18.33,73.54,1.85,19.52,76.59,1.52,17.97,75.27,0.0146,0.7644,-0.0069,0.0459,0.7779,0.093,0.0872,0.8651,0.2742,0.0415,0.7877,0.1004,0.0529,0.8094,0.2366,0.0434,0.7812,0.1208,0.0,0.019,0.039,0.006,0.019,0.175,0.0,0.299,0.227,0.006,0.045,0.052,0.0,0.552,0.123,0.0,0.143,0.117,0.0077,0.2792,1.0876,0.0276,0.2884,1.1766,0.0598,0.3513,1.1428,0.0261,0.2899,1.1812,0.0383,0.2899,1.1766,0.0245,0.2684,1.1566,-0.0021,-0.0001,0.1439,-0.0043,-0.0012,0.3161,0.0001,0.0005,0.3222,0.0059,-0.0003,0.3284,-0.0086,0.0013,0.3241,0.0018,0.0113,0.3092,0.6149,0.0635,0.0473,0.1711,-0.0971,0.013,0.7635,-0.0063,0.0456,0.7799,0.0886,0.0876,0.8613,0.2748,0.0411,0.7898,0.096,0.0561,0.8065,0.2385,0.0414,0.7837,0.1176,0.0,0.0,0.0,0.0,0.0,0.0,0.0,0.0,0.0,,
2.04,run,7.08,3.86,1.86,4.76,-1.59,0.0,0.0,0.0,0.552,0.53,16.35,63.19,1.49,16.88,69.87,3.25,20.21,68.91,1.58,17.05,70.58,1.93,16.7,70.49,1.49,15.56,69.43,0.41,16.83,64.71,1.53,17.75,72.86,3.01,22.46,78.62,1.47,18.38,73.3,1.86,19.47,78.09,1.5,18.1,75.05,0.0117,0.7606,-0.0034,0.0438,0.7772,0.0925,0.0859,0.8629,0.2752,0.0421,0.7888,0.0977,0.0533,0.8085,0.2378,0.0429,0.7836,0.1182,0.0,0.019,0.039,0.006,0.019,0.175,0.0,0.299,0.227,0.006,0.045,0.052,0.0,0.552,0.123,0.0,0.143,0.117,0.0077,0.2792,1.0922,0.0276,0.2884,1.198,0.0598,0.3513,1.1689,0.0261,0.2915,1.2088,0.0383,0.2899,1.2042,0.0245,0.2684,1.1812,-0.0015,-0.0,0.1181,-0.003,-0.0008,0.3023,0.0001,0.0004,0.3239,0.0041,0.0056,0.334,-0.006,0.0009,0.3311,0.0012,0.0079,0.309,0.6188,0.0643,0.0224,0.0098,0.0039,0.0146,0.7644,-0.0069,0.0459,0.7779,0.093,0.0872,0.8651,0.2742,0.0415,0.7877,0.1004,0.0529,0.8094,0.2366,0.0434,0.7812,0.1208,0.0,0.0,0.0,0.0,0.0,0.0,0.0,0.0,0.0,,
2.08,run,7.21,3.89,3.19,0.87,-0.14,0.0,0.0,0.0,0.552,0.53,16.35,63.28,1.67,16.88,70.66,3.25,20.21,70.31,1.58,17.05,71.63,1.93,16.7,71.89,1.49,15.56,70.66,0.38,16.79,64.74,1.53,17.68,72.99,3.0,22.47,80.12,1.48,18.35,73.38,1.8,19.51,79.59,1.55,18.07,75.06,0.0109,0.7598,-0.003,0.0436,0.776,0.094,0.0856,0.8631,0.2756,0.0424,0.7881,0.0985,0.0516,0.8093,0.2373,0.0442,0.783,0.1183,0.0,0.019,0.039,0.006,0.019,0.175,0.0,0.299,0.227,0.006,0.045,0.052,0.0,0.552,0.123,0.0,0.143,0.117,0.0077,0.2792,1.0983,0.0307,0.2869,1.2164,0.0598,0.3513,1.1919,0.0261,0.2915,1.2303,0.0368,0.2899,1.2287,0.0245,0.2684,1.2072,-0.001,-0.0,0.1056,0.0093,-0.0063,0.2802,0.0,0.0003,0.3125,0.0029,0.0039,0.3139,-0.0099,0.0006,0.3232,0.0009,0.0056,0.3135,0.6288,0.0797,0.0324,0.0831,-0.0278,0.0117,0.7606,-0.0034,0.0438,0.7772,0.0925,0.0859,0.8629,0.2752,0.0421,0.7888,0.0977,0.0533,0.8085,0.2378,0.0429,0.7836,0.1182,0.0,0.0,0.0,0.0,0.0,0.0,0.0,0.0,0.0,,
2.12,run,7.24,4.11,-1.15,6.13,-2.31,0.0,0.0,0.0,0.552,0.26,16.35,63.54,1.93,16.88,71.19,3.25,20.21,71.63,1.58,17.05,72.33,1.93,16.7,73.3,1.49,15.56,71.63,0.33,16.69,64.9,1.49,17.65,73.05,2.97,22.48,81.62,1.49,18.37,73.34,1.8,19.55,81.09,1.55,18.11,75.02,0.0094,0.7579,-0.0011,0.0425,0.7755,0.0947,0.0848,0.8633,0.2764,0.0426,0.7885,0.0982,0.0513,0.8099,0.2382,0.0443,0.7837,0.1178,0.0,0.006,0.033,0.013,0.019,0.208,0.0,0.319,0.227,0.0,0.045,0.039,0.006,0.487,0.254,0.0,0.169,0.117,0.0077,0.2792,1.0999,0.0337,0.2869,1.2303,0.0598,0.3513,1.2164,0.0261,0.2915,1.2487,0.0368,0.2899,1.2533,0.0245,0.2684,1.2287,-0.0007,-0.0,0.0797,0.0181,-0.0044,0.248,0.0,0.0002,0.3109,0.002,0.0027,0.2888,-0.007,0.0004,0.3184,0.0006,0.0039,0.3001,0.64,0.0822,0.0557,0.0151,-0.0025,0.0109,0.7598,-0.003,0.0436,0.776,0.094,0.0856,0.8631,0.2756,0.0424,0.7881,0.0985,0.0516,0.8093,0.2373,0.0442,0.783,0.1183,0.0,0.0,0.0,0.0,0.0,0.0,0.0,0.0,0.0,,
2.16,run,7.29,4.1,1.35,-0.87,0.17,0.0,0.0,0.0,0.552,0.26,16.35,63.63,1.93,16.88,71.37,3.25,20.21,73.39,1.58,17.14,72.86,1.85,16.7,74.97,1.49,15.56,72.69,0.26,16.67,64.99,1.48,17.62,73.3,2.93,22.66,83.12,1.47,18.37,73.52,1.7,19.79,82.59,1.59,18.11,75.04,0.0074,0.7575,-0.0002,0.0422,0.775,0.0976,0.0838,0.8665,0.2774,0.042,0.7885,0.1002,0.0484,0.8144,0.2381,0.0453,0.7837,0.1181,0.0,0.006,0.033,0.013,0.019,0.208,0.0,0.319,0.227,0.0,0.045,0.039,0.006,0.487,0.254,0.0,0.169,0.117,0.0031,0.2792,1.1045,0.0383,0.2869,1.2395,0.0598,0.3513,1.2395,0.0261,0.2915,1.2609,0.0368,0.2899,1.2778,0.0245,0.2684,1.2456,-0.0178,-0.0,0.0731,0.0299,-0.0031,0.2082,0.0,0.0001,0.3041,0.0014,0.0019,0.2483,-0.0049,0.0003,0.3152,0.0004,0.0027,0.2735,0.6425,0.1011,-0.0201,0.1069,-0.0403,0.0094,0.7579,-0.0011,0.0425,0.7755,0.0947,0.0848,0.8633,0.2764,0.0426,0.7885,0.0982,0.0513,0.8099,0.2382,0.0443,0.7837,0.1178,0.0,0.0,0.0,0.0,0.0,0.0,0.0,0.0,0.0,,
2.2,run,7.18,4.33,-3.33,4.97,-4.66,0.0,0.0,0.0,0.552,0.26,16.35,63.63,1.93,16.88,71.46,3.25,20.21,74.79,1.58,17.31,72.95,1.76,16.7,76.46,1.49,15.56,73.12,0.2,16.6,65.24,1.43,17.65,73.45,2.88,22.78,84.62,1.47,18.44,73.61,1.71,19.94,84.09,1.53,18.2,75.07,0.0056,0.7564,0.0028,0.0409,0.7754,0.0994,0.0823,0.8687,0.2788,0.0419,0.7897,0.1012,0.0487,0.8171,0.2403,0.0436,0.7855,0.1185,0.0,0.006,0.033,0.013,0.019,0.208,0.0,0.319,0.227,0.0,0.045,0.039,0.006,0.487,0.254,0.0,0.169,0.117,0.0031,0.2792,1.106,0.0383,0.2869,1.2425,0.0598,0.3513,1.2701,0.0261,0.293,1.2701,0.0353,0.2899,1.307,0.0245,0.2684,1.264,-0.0125,-0.0,0.0559,0.021,-0.0022,0.1553,0.0,0.0001,0.3089,0.001,0.0061,0.2026,-0.0082,0.0002,0.3118,0.0003,0.0019,0.2491,0.6472,0.1006,0.0236,-0.0152,0.003,0.0074,0.7575,-0.0002,0.0422,0.775,0.0976,0.0838,0.8665,0.2774,0.042,0.7885,0.1002,0.0484,0.8144,0.2381,0.0453,0.7837,0.1181,0.0,0.0,0.0,0.0,0.0,0.0,0.0,0.0,0.0,,
2.24,run,7.3,4.55,4.42,4.92,0.05,0.0,0.0,0.0,0.663,0.26,16.35,63.81,1.76,16.88,71.89,3.25,20.21,76.11,1.58,17.49,72.95,1.85,16.7,77.78,1.49,15.56,73.21,0.12,16.67,65.39,1.41,17.67,73.9,2.8,23.19,86.12,1.42,18.46,74.03,1.57,20.41,85.47,1.49,18.23,75.29,0.0035,0.7577,0.0046,0.0404,0.7758,0.1047,0.0799,0.8762,0.2803,0.0407,0.7903,0.1063,0.0448,0.8256,0.2408,0.0425,0.7861,0.121,0.0,0.006,0.039,0.006,0.019,0.175,0.006,0.52,0.267,0.006,0.019,0.052,0.006,0.663,0.273,0.0,0.208,0.091,0.0031,0.2792,1.106,0.0383,0.2869,1.2441,0.0598,0.3513,1.2947,0.0261,0.2961,1.2717,0.0337,0.2899,1.333,0.0245,0.2684,1.2717,-0.0087,-0.0,0.0392,0.0147,-0.0015,0.1144,0.0,0.0001,0.3067,0.0007,0.0156,0.1475,-0.0114,0.0001,0.3144,0.0002,0.0013,0.2026,0.637,0.1208,-0.0581,0.0868,-0.0814,0.0056,0.7564,0.0028,0.0409,0.7754,0.0994,0.0823,0.8687,0.2788,0.0419,0.7897,0.1012,0.0487,0.8171,0.2403,0.0436,0.7855,0.1185,0.0,0.0,0.0,0.0,0.0,0.0,0.0,0.0,0.0,,
2.28,run,7.2,4.64,-3.23,1.23,-3.82,0.0,0.0,0.0,0.663,0.26,16.35,64.16,1.76,16.88,72.25,3.25,20.21,77.43,1.49,17.67,73.12,1.58,16.7,79.19,1.49,15.56,73.21,0.15,16.69,65.71,1.4,17.7,74.06,2.85,23.28,87.62,1.39,18.5,74.24,1.64,20.45,85.81,1.56,18.3,75.31,0.0043,0.7579,0.0084,0.04,0.7764,0.1066,0.0813,0.8778,0.2816,0.0399,0.7908,0.1087,0.047,0.8264,0.2448,0.0444,0.7873,0.1213,0.0,0.006,0.039,0.006,0.019,0.175,0.006,0.52,0.267,0.006,0.019,0.052,0.006,0.663,0.273,0.0,0.208,0.091,0.0031,0.2792,1.1091,0.0353,0.2869,1.2517,0.0598,0.3513,1.3177,0.0261,0.2991,1.2717,0.0353,0.2899,1.356,0.0245,0.2684,1.2732,-0.0061,-0.0,0.039,-0.0013,-0.0011,0.109,0.0,0.0,0.3015,0.0005,0.0225,0.1032,-0.0022,0.0001,0.3069,0.0001,0.0009,0.1476,0.648,0.1398,0.0772,0.0859,0.0008,0.0035,0.7577,0.0046,0.0404,0.7758,0.1047,0.0799,0.8762,0.2803,0.0407,0.7903,0.1063,0.0448,0.8256,0.2408,0.0425,0.7861,0.121,0.0,0.0,0.0,0.0,0.0,0.0,0.0,0.0,0.0,,
2.32,run,7.29,4.95,2.5,7.42,-2.14,0.0,0.0,0.0,0.663,0.18,16.35,64.25,1.76,16.88,72.6,3.08,20.21,78.84,1.49,17.67,73.65,1.67,16.7,80.6,1.49,15.56,73.39,0.05,16.7,66.02,1.35,17.79,74.53,2.72,23.78,89.12,1.34,18.6,74.66,1.52,21.0,85.9,1.41,18.42,75.61,0.0014,0.7582,0.012,0.0385,0.778,0.1121,0.0777,0.887,0.2839,0.0383,0.7928,0.1136,0.0434,0.8364,0.2459,0.0402,0.7895,0.1248,0.0,0.006,0.039,0.006,0.019,0.175,0.006,0.52,0.267,0.006,0.019,0.052,0.006,0.663,0.273,0.0,0.208,0.091,0.0031,0.2792,1.1152,0.0353,0.2869,1.2579,0.0598,0.3513,1.3407,0.0245,0.3022,1.2747,0.0307,0.2899,1.3806,0.0245,0.2684,1.2732,-0.0043,-0.0,0.0502,-0.0009,-0.0007,0.0992,0.0,0.0,0.2969,-0.0054,0.0272,0.0837,-0.0187,0.0001,0.3064,0.0001,0.0007,0.1033,0.639,0.1481,-0.0563,0.0215,-0.0667,0.0043,0.7579,0.0084,0.04,0.7764,0.1066,0.0813,0.8778,0.2816,0.0399,0.7908,0.1087,0.047,0.8264,0.2448,0.0444,0.7873,0.1213,0.0,0.0,0.0,0.0,0.0,0.0,0.0,0.0,0.0,,
2.36,run,7.47,5.03,5.53,2.45,-2.13,0.0,0.0,0.0,0.819,0.18,16.35,64.6,1.67,16.88,72.86,3.08,20.21,80.16,1.32,17.67,74.0,1.58,16.7,81.83,1.49,15.73,73.65,0.06,16.75,66.22,1.36,17.8,74.7,2.79,23.9,89.23,1.3,18.62,74.87,1.54,21.11,86.21,1.53,18.44,75.6,0.0018,0.759,0.0144,0.0388,0.7781,0.1142,0.0798,0.8891,0.2851,0.0372,0.793,0.1161,0.0439,0.8383,0.2495,0.0436,0.7899,0.1247,0.0,0.006,0.039,0.006,0.019,0.156,0.006,0.806,0.26,0.0,0.026,0.019,0.0,0.819,0.24,0.0,0.163,0.078,0.0015,0.2792,1.1167,0.0353,0.2869,1.264,0.0568,0.3513,1.3652,0.0245,0.3022,1.2839,0.0322,0.2899,1.4051,0.0245,0.2684,1.2763,-0.0084,-0.0,0.0405,-0.0006,-0.0005,0.091,-0.0108,0.0,0.294,-0.0038,0.019,0.0909,-0.0077,0.0001,0.3006,0.0001,0.0005,0.0831,0.6468,0.175,0.0437,0.1294,-0.0374,0.0014,0.7582,0.012,0.0385,0.778,0.1121,0.0777,0.887,0.2839,0.0383,0.7928,0.1136,0.0434,0.8364,0.2459,0.0402,0.7895,0.1248,0.0,0.0,0.0,0.0,0.0,0.0,0.0,0.0,0.0,,
2.4,run,7.45,5.24,-0.17,4.49,-2.13,0.0,0.0,0.0,0.819,0.18,16.35,64.86,1.67,16.88,73.12,3.08,20.21,81.65,1.32,17.93,74.36,1.58,16.7,82.88,1.49,16.0,73.74,0.05,16.71,66.56,1.32,17.84,74.94,2.77,24.11,89.32,1.28,18.68,75.08,1.56,21.29,86.4,1.46,18.54,75.75,0.0015,0.7584,0.0183,0.0378,0.7789,0.1169,0.0791,0.893,0.2861,0.0367,0.7942,0.1186,0.0445,0.8416,0.2517,0.0417,0.7916,0.1264,0.0,0.006,0.039,0.006,0.019,0.156,0.006,0.806,0.26,0.0,0.026,0.019,0.0,0.819,0.24,0.0,0.163,0.078,0.0015,0.2792,1.1229,0.0337,0.2869,1.2686,0.0568,0.3513,1.3883,0.0215,0.3022,1.2901,0.0307,0.2899,1.4266,0.0245,0.2715,1.2809,-0.0059,-0.0,0.0531,-0.0066,-0.0004,0.0822,-0.0075,0.0,0.2984,-0.015,0.0133,0.0883,-0.0116,0.0,0.2969,0.0001,0.0127,0.0767,0.6622,0.1821,0.0965,0.0428,-0.0371,0.0018,0.759,0.0144,0.0388,0.7781,0.1142,0.0798,0.8891,0.2851,0.0372,0.793,0.1161,0.0439,0.8383,0.2495,0.0436,0.7899,0.1247,0.0,0.0,0.0,0.0,0.0,0.0,0.0,0.0,0.0,,
2.44,run,7.54,5.43,2.02,5.7,-3.22,0.0,0.0,0.0,0.819,0.18,16.35,65.04,1.67,16.88,73.21,3.08,20.21,83.14,1.32,18.11,74.62,1.58,16.96,83.85,1.49,16.0,73.83,-0.03,16.75,66.86,1.31,17.92,75.35,2.73,24.5,89.52,1.22,18.75,75.48,1.46,21.74,86.57,1.43,18.65,75.93,-0.0007,0.759,0.0218,0.0376,0.7804,0.1218,0.0781,0.9,0.2884,0.035,0.7955,0.1233,0.0417,0.8498,0.2537,0.0408,0.7936,0.1286,0.0,0.006,0.039,0.006,0.019,0.156,0.006,0.806,0.26,0.0,0.026,0.019,0.0,0.819,0.24,0.0,0.163,0.078,0.0015,0.2792,1.1275,0.0337,0.2869,1.2732,0.0568,0.3513,1.4143,0.0215,0.3068,1.2962,0.0307,0.2899,1.445,0.0245,0.2761,1.2824,-0.0041,-0.0,0.0545,-0.0046,-0.0003,0.0749,-0.0053,0.0,0.3073,-0.0105,0.0267,0.085,-0.0081,0.0,0.2773,0.0,0.0262,0.0595,0.6605,0.2003,-0.0031,0.0783,-0.0371,0.0015,0.7584,0.0183,0.0378,0.7789,0.1169,0.0791,0.893,0.2861,0.0367,0.7942,0.1186,0.0445,0.8416,0.2517,0.0417,0.7916,0.1264,0.0,0.0,0.0,0.0,0.0,0.0,0.0,0.0,0.0,,
2.48,run,7.57,5.42,0.18,-0.26,-5.41,0.0,0.0,0.0,1.183,0.09,16.35,65.39,1.67,16.88,73.74,3.08,20.21,84.38,1.23,18.11,74.88,1.58,18.19,84.38,1.49,16.0,74.18,-0.04,16.79,67.07,1.3,17.98,75.62,2.74,24.77,89.65,1.18,18.8,75.76,1.43,21.99,86.8,1.45,18.72,76.04,-0.0012,0.7599,0.0244,0.0373,0.7814,0.1249,0.0782,0.9048,0.2899,0.0338,0.7964,0.1266,0.041,0.8544,0.2565,0.0414,0.7949,0.1299,0.0,0.006,0.045,0.006,0.033,0.091,0.006,1.183,0.254,0.0,0.013,0.013,0.013,0.546,0.254,0.0,0.195,0.065,0.0015,0.2792,1.1305,0.0337,0.2869,1.2747,0.0568,0.3513,1.4404,0.0215,0.3099,1.3008,0.0307,0.2945,1.4619,0.0245,0.2761,1.2839,-0.0029,-0.0,0.0496,-0.0032,-0.0002,0.0582,-0.0037,0.0,0.3124,-0.0073,0.0301,0.0767,-0.0057,0.0172,0.2571,0.0,0.0184,0.0474,0.6688,0.2165,0.0353,0.0995,-0.0562,-0.0007,0.759,0.0218,0.0376,0.7804,0.1218,0.0781,0.9,0.2884,0.035,0.7955,0.1233,0.0417,0.8498,0.2537,0.0408,0.7936,0.1286,0.0,0.0,0.0,0.0,0.0,0.0,0.0,0.0,0.0,,
2.52,run,7.66,5.55,2.08,2.99,-4.86,0.0,0.0,0.0,1.183,0.09,16.35,65.74,1.67,16.88,74.18,3.08,20.21,85.43,1.14,18.28,75.41,1.41,18.54,84.9,1.49,16.08,74.44,-0.1,16.76,67.14,1.27,18.05,75.67,2.68,24.91,89.79,1.17,18.88,75.78,1.42,22.13,86.85,1.41,18.8,76.1,-0.0029,0.7593,0.0252,0.0362,0.7827,0.1255,0.0765,0.9074,0.2917,0.0334,0.7978,0.1268,0.0405,0.8569,0.257,0.0404,0.7964,0.1305,0.0,0.006,0.045,0.006,0.033,0.091,0.006,1.183,0.254,0.0,0.013,0.013,0.013,0.546,0.254,0.0,0.195,0.065,0.0,0.2792,1.1367,0.0337,0.2869,1.2839,0.0568,0.3513,1.4619,0.0199,0.3099,1.3054,0.0307,0.316,1.4711,0.0245,0.2761,1.2901,-0.0078,-0.0,0.0577,-0.0023,-0.0001,0.0752,-0.0026,0.0,0.2992,-0.0109,0.0211,0.0709,-0.004,0.0926,0.2145,0.0,0.0129,0.0562,0.671,0.2156,0.0032,-0.0046,-0.0944,-0.0012,0.7599,0.0244,0.0373,0.7814,0.1249,0.0782,0.9048,0.2899,0.0338,0.7964,0.1266,0.041,0.8544,0.2565,0.0414,0.7949,0.1299,0.0,0.0,0.0,0.0,0.0,0.0,0.0,0.0,0.0,,
2.56,run,7.72,5.79,1.35,5.42,-3.59,0.0,0.0,0.0,1.183,0.0,16.35,65.92,1.67,16.88,74.36,3.08,21.18,86.13,1.05,18.54,75.5,1.32,18.9,85.25,1.49,16.08,74.44,-0.07,16.78,67.22,1.31,18.07,75.71,2.72,24.93,89.88,1.16,18.88,75.86,1.43,22.13,87.0,1.49,18.83,76.11,-0.0021,0.7597,0.0262,0.0373,0.7832,0.126,0.0777,0.9079,0.2928,0.0331,0.7978,0.1278,0.041,0.8568,0.2588,0.0425,0.7968,0.1307,0.0,0.006,0.045,0.006,0.033,0.091,0.006,1.183,0.254,0.0,0.013,0.013,0.013,0.546,0.254,0.0,0.195,0.065,0.0,0.2792,1.1428,0.0337,0.2869,1.2916,0.0568,0.3513,1.4803,0.0184,0.3129,1.3146,0.0276,0.3221,1.4803,0.0245,0.2777,1.2947,-0.0054,-0.0,0.0635,-0.0016,-0.0001,0.0816,-0.0018,0.0,0.2789,-0.0134,0.0263,0.0843,-0.0143,0.0879,0.1848,0.0,0.0148,0.0567,0.6791,0.2273,0.0364,0.0522,-0.0848,-0.0029,0.7593,0.0252,0.0362,0.7827,0.1255,0.0765,0.9074,0.2917,0.0334,0.7978,0.1268,0.0405,0.8569,0.257,0.0404,0.7964,0.1305,0.0,0.0,0.0,0.0,0.0,0.0,0.0,0.0,0.0,,
2.6,run,7.78,5.93,1.92,4.1,-4.89,0.0,0.0,0.0,1.183,0.09,16.35,66.09,1.58,16.88,74.36,3.08,21.71,86.75,0.97,18.63,75.67,1.32,19.42,85.34,1.49,16.44,74.44,-0.07,16.8,67.37,1.29,18.09,75.79,2.76,24.94,90.02,1.15,18.89,75.96,1.45,22.13,87.13,1.57,18.86,76.12,-0.002,0.76,0.0279,0.0369,0.7835,0.1269,0.0789,0.9079,0.2943,0.033,0.798,0.1289,0.0414,0.8568,0.2604,0.0447,0.7975,0.1308,0.006,0.006,0.039,0.006,0.045,0.163,0.0,0.656,0.208,0.006,0.0,0.006,0.0,0.357,0.143,0.0,0.136,0.052,-0.0015,0.2792,1.1459,0.0337,0.2869,1.2947,0.0568,0.3682,1.4926,0.0169,0.3175,1.3162,0.0261,0.3283,1.4864,0.0245,0.2777,1.2947,-0.0095,-0.0,0.0559,-0.0011,-0.0001,0.0685,-0.0013,0.063,0.241,-0.0151,0.0356,0.0648,-0.0158,0.0844,0.1523,0.0,0.0103,0.0397,0.6844,0.2483,0.0236,0.0945,-0.0626,-0.0021,0.7597,0.0262,0.0373,0.7832,0.126,0.0777,0.9079,0.2928,0.0331,0.7978,0.1278,0.041,0.8568,0.2588,0.0425,0.7968,0.1307,0.0,0.0,0.0,0.0,0.0,0.0,0.0,0.0,0.0,,
2.64,run,7.72,6.0,-0.83,2.07,-3.3,0.0,0.0,0.0,1.183,0.09,16.35,66.09,1.58,16.88,74.53,3.08,21.71,87.19,1.05,19.07,75.76,1.23,19.6,85.61,1.49,16.52,74.62,-0.06,16.81,67.57,1.29,18.13,75.92,2.73,25.04,90.08,1.16,18.91,76.11,1.46,22.2,87.2,1.55,18.94,76.2,-0.0018,0.7602,0.0302,0.0367,0.7842,0.1285,0.0781,0.9098,0.2951,0.0331,0.7984,0.1307,0.0417,0.8582,0.2612,0.0444,0.799,0.1317,0.006,0.006,0.039,0.006,0.045,0.163,0.0,0.656,0.208,0.006,0.0,0.006,0.0,0.357,0.143,0.0,0.136,0.052,0.0,0.2792,1.149,0.0322,0.2869,1.2947,0.0568,0.3774,1.5033,0.0153,0.3191,1.3192,0.0261,0.3375,1.488,0.0245,0.2838,1.2947,-0.0009,-0.0,0.0506,-0.0065,-0.0,0.048,-0.0009,0.0786,0.2089,-0.0163,0.0307,0.0568,-0.011,0.0936,0.1123,0.0,0.0302,0.0278,0.6899,0.2603,0.0336,0.0715,-0.0854,-0.002,0.76,0.0279,0.0369,0.7835,0.1269,0.0789,0.9079,0.2943,0.033,0.798,0.1289,0.0414,0.8568,0.2604,0.0447,0.7975,0.1308,0.0,0.0,0.0,0.0,0.0,0.0,0.0,0.0,0.0,,
2.68,run,7.67,6.02,-1.69,-0.68,0.02,0.0,0.0,0.0,1.183,0.09,16.35,66.27,1.58,16.88,74.71,3.08,21.71,87.36,1.14,19.07,75.85,1.23,19.6,85.61,1.49,16.52,74.79,-0.1,16.86,67.67,1.3,18.2,76.04,2.69,25.18,90.21,1.13,18.97,76.21,1.42,22.36,87.31,1.54,19.03,76.21,-0.0029,0.761,0.0314,0.0373,0.7855,0.1298,0.077,0.9123,0.2965,0.0324,0.7995,0.1319,0.0407,0.8611,0.2625,0.0439,0.8005,0.1319,0.006,0.006,0.039,0.006,0.045,0.163,0.0,0.656,0.208,0.006,0.0,0.006,0.0,0.357,0.143,0.0,0.136,0.052,0.0,0.2792,1.149,0.0322,0.2869,1.2977,0.0568,0.3774,1.511,0.0169,0.3267,1.3208,0.0245,0.3405,1.4926,0.0245,0.2853,1.2977,-0.0006,-0.0,0.0354,-0.0046,-0.0,0.0452,-0.0006,0.055,0.1752,-0.0056,0.0504,0.0456,-0.0135,0.0771,0.096,0.0,0.0269,0.031,0.6841,0.2662,-0.0145,0.036,-0.0576,-0.0018,0.7602,0.0302,0.0367,0.7842,0.1285,0.0781,0.9098,0.2951,0.0331,0.7984,0.1307,0.0417,0.8582,0.2612,0.0444,0.799,0.1317,0.0,0.0,0.0,0.0,0.0,0.0,0.0,0.0,0.0,,
2.72,run,7.63,6.07,-0.06,-0.22,-1.78,0.0,0.0,0.0,1.183,0.09,16.44,66.45,1.58,16.88,74.88,3.08,21.71,87.36,1.14,18.98,75.85,1.23,19.6,85.61,1.49,16.52,74.79,-0.1,16.89,67.71,1.33,18.25,76.02,2.67,25.19,90.27,1.13,19.01,76.18,1.44,22.36,87.39,1.53,19.09,76.14,-0.0029,0.7616,0.0319,0.0379,0.7864,0.1296,0.0764,0.9126,0.2973,0.0321,0.8002,0.1315,0.0411,0.8611,0.2634,0.0438,0.8017,0.1311,0.0,0.013,0.039,0.006,0.045,0.104,0.006,0.786,0.201,0.0,0.0,0.006,0.006,0.468,0.227,0.0,0.163,0.052,0.0,0.2792,1.152,0.0322,0.2869,1.3008,0.0568,0.3774,1.514,0.0184,0.3267,1.3223,0.0245,0.3405,1.4926,0.0245,0.2853,1.3008,-0.0005,-0.0,0.0363,-0.0032,-0.0,0.0431,-0.0004,0.0385,0.1341,0.0018,0.0353,0.0376,-0.0095,0.054,0.0672,0.0,0.0189,0.0332,0.6796,0.2685,-0.0296,-0.0118,0.0003,-0.0029,0.761,0.0314,0.0373,0.7855,0.1298,0.077,0.9123,0.2965,0.0324,0.7995,0.1319,0.0407,0.8611,0.2625,0.0439,0.8005,0.1319,0.0,0.0,0.0,0.0,0.0,0.0,0.0,0.0,0.0,,
2.76,run,7.62,6.17,-0.22,3.47,-1.07,0.0,0.0,0.0,1.183,0.0,16.44,66.45,1.58,16.88,74.88,3.08,21.71,87.45,1.14,18.9,76.11,1.23,19.6,85.61,1.49,16.52,74.79,-0.08,16.94,67.75,1.33,18.25,76.09,2.64,25.27,90.23,1.13,19.0,76.28,1.43,22.4,87.4,1.51,19.1,76.19,-0.0022,0.7625,0.0323,0.0381,0.7863,0.1305,0.0755,0.914,0.2968,0.0323,0.8001,0.1327,0.041,0.8618,0.2636,0.0431,0.8019,0.1317,0.0,0.013,0.039,0.006,0.045,0.104,0.006,0.786,0.201,0.0,0.0,0.006,0.006,0.468,0.227,0.0,0.163,0.052,0.0,0.2807,1.1551,0.0322,0.2869,1.3039,0.0568,0.3774,1.514,0.0184,0.3252,1.3223,0.0245,0.3405,1.4926,0.0245,0.2853,1.3008,-0.0003,0.0055,0.0363,-0.0022,-0.0,0.0411,-0.0003,0.0269,0.0939,0.0013,0.0192,0.0264,-0.0066,0.0378,0.047,0.0,0.0132,0.0232,0.6764,0.2722,-0.0011,-0.0039,-0.0311,-0.0029,0.7616,0.0319,0.0379,0.7864,0.1296,0.0764,0.9126,0.2973,0.0321,0.8002,0.1315,0.0411,0.8611,0.2634,0.0438,0.8017,0.1311,0.0,0.0,0.0,0.0,0.0,0.0,0.0,0.0,0.0,,
2.8,run,7.62,6.16,-0.29,0.72,1.19,0.0,0.0,0.0,1.183,0.09,16.44,66.45,1.58,16.88,74.97,3.08,21.71,87.45,1.14,18.9,76.11,1.23,19.6,85.61,1.49,16.52,74.79,-0.06,16.99,67.69,1.37,18.26,76.09,2.67,25.26,90.25,1.12,19.0,76.28,1.43,22.41,87.46,1.58,19.09,76.15,-0.0018,0.7635,0.0317,0.039,0.7865,0.1304,0.0762,0.9139,0.297,0.0319,0.8,0.1327,0.0408,0.862,0.2642,0.0451,0.8016,0.1312,0.0,0.013,0.039,0.006,0.045,0.104,0.006,0.786,0.201,0.0,0.0,0.006,0.006,0.468,0.227,0.0,0.163,0.052,-0.0015,0.2807,1.1551,0.0322,0.2869,1.3039,0.0568,0.3774,1.5156,0.0184,0.3237,1.3269,0.0245,0.3405,1.4926,0.0245,0.2853,1.3008,-0.0063,0.0038,0.0254,-0.0016,-0.0,0.0288,-0.0002,0.0189,0.0718,0.0009,0.0074,0.0367,-0.0046,0.0264,0.0329,0.0,0.0092,0.0163,0.6754,0.2814,-0.0039,0.0606,-0.0187,-0.0022,0.7625,0.0323,0.0381,0.7863,0.1305,0.0755,0.914,0.2968,0.0323,0.8001,0.1327,0.041,0.8618,0.2636,0.0431,0.8019,0.1317,0.0,0.0,0.0,0.0,0.0,0.0,0.0,0.0,0.0,,
2.84,run,7.64,6.08,0.58,-1.48,-2.52,0.0,0.0,0.0,1.183,0.09,16.44,66.45,1.58,16.88,75.06,3.08,21.71,87.45,1.14,18.81,76.11,1.23,19.6,85.61,1.49,16.52,74.79,-0.07,16.99,67.73,1.37,18.28,76.06,2.66,25.25,90.27,1.11,19.02,76.25,1.44,22.39,87.49,1.58,19.12,76.11,-0.0019,0.7635,0.0321,0.0391,0.7869,0.1301,0.076,0.9137,0.2973,0.0317,0.8004,0.1323,0.0411,0.8616,0.2646,0.0452,0.8021,0.1308,0.0,0.013,0.039,0.006,0.058,0.058,0.006,0.656,0.182,0.0,0.0,0.006,0.006,0.416,0.247,0.0,0.201,0.045,0.0,0.2807,1.1551,0.0322,0.2869,1.3054,0.0568,0.3774,1.5156,0.0184,0.3237,1.3269,0.0245,0.3405,1.4926,0.0245,0.2853,1.3008,0.0014,0.0027,0.0178,-0.0011,-0.0,0.0259,-0.0001,0.0132,0.0503,0.0006,0.0052,0.0257,-0.0032,0.0185,0.0231,0.0,0.0065,0.0114,0.676,0.28,-0.0051,0.0126,0.0207,-0.0018,0.7635,0.0317,0.039,0.7865,0.1304,0.0762,0.9139,0.297,0.0319,0.8,0.1327,0.0408,0.862,0.2642,0.0451,0.8016,0.1312,0.0,0.0,0.0,0.0,0.0,0.0,0.0,0.0,0.0,,
2.88,run,7.62,6.08,-0.33,-0.68,0.97,0.0,0.0,0.0,1.183,0.09,16.44,66.62,1.58,16.88,75.06,3.08,21.71,87.45,1.14,18.81,76.03,1.23,19.6,85.61,1.49,16.52,74.79,-0.05,17.0,67.77,1.35,18.27,76.15,2.61,25.37,90.22,1.12,19.03,76.35,1.43,22.47,87.46,1.5,19.14,76.23,-0.0015,0.7636,0.0326,0.0387,0.7868,0.1312,0.0746,0.9158,0.2967,0.0321,0.8005,0.1336,0.0409,0.8631,0.2643,0.0428,0.8025,0.1321,0.0,0.013,0.039,0.006,0.058,0.058,0.006,0.656,0.182,0.0,0.0,0.006,0.006,0.416,0.247,0.0,0.201,0.045,0.0,0.2807,1.1551,0.0322,0.2869,1.307,0.0568,0.3774,1.5156,0.0184,0.3221,1.3269,0.0245,0.3405,1.4926,0.0245,0.2853,1.3008,0.0009,0.0019,0.0125,-0.0008,-0.0,0.0238,-0.0001,0.0092,0.0352,0.0004,-0.0021,0.018,-0.0023,0.013,0.0161,0.0,0.0045,0.008,0.6777,0.273,0.0101,-0.0259,-0.0441,-0.0019,0.7635,0.0321,0.0391,0.7869,0.1301,0.076,0.9137,0.2973,0.0317,0.8004,0.1323,0.0411,0.8616,0.2646,0.0452,0.8021,0.1308,0.0,0.0,0.0,0.0,0.0,0.0,0.0,0.0,0.0,,
2.92,run,7.63,6.14,-0.04,1.07,-1.52,0.0,0.0,0.0,1.183,0.09,16.44,66.62,1.58,16.88,75.06,3.08,21.71,87.45,1.14,18.81,76.2,1.23,19.6,85.61,1.49,16.52,74.79,-0.05,17.02,67.71,1.38,18.29,76.06,2.64,25.29,90.26,1.11,19.03,76.27,1.45,22.41,87.5,1.56,19.14,76.13,-0.0015,0.764,0.0319,0.0395,0.7871,0.1301,0.0755,0.9144,0.2972,0.0318,0.8005,0.1326,0.0414,0.862,0.2647,0.0446,0.8025,0.1309,0.0,0.013,0.039,0.006,0.058,0.058,0.006,0.656,0.182,0.0,0.0,0.006,0.006,0.416,0.247,0.0,0.201,0.045,0.0,0.2807,1.1582,0.0322,0.2869,1.307,0.0568,0.3774,1.5156,0.0184,0.3221,1.3254,0.0245,0.3405,1.4926,0.0245,0.2853,1.3008,0.0007,0.0013,0.0196,-0.0005,-0.0,0.0167,-0.0001,0.0065,0.0246,0.0003,-0.0015,0.0072,-0.0016,0.0091,0.0113,0.0,0.0032,0.0056,0.6759,0.2731,-0.0057,-0.0119,0.017,-0.0015,0.7636,0.0326,0.0387,0.7868,0.1312,0.0746,0.9158,0.2967,0.0321,0.8005,0.1336,0.0409,0.8631,0.2643,0.0428,0.8025,0.1321,0.0,0.0,0.0,0.0,0.0,0.0,0.0,0.0,0.0,,
2.96,run,7.63,6.14,0.02,0.97,-0.45,0.0,0.0,0.0,1.183,0.09,16.44,66.62,1.58,16.88,75.06,3.08,21.71,87.45,1.14,18.81,76.11,1.23,19.6,85.69,1.49,16.52,74.79,-0.05,17.04,67.72,1.38,18.28,76.13,2.63,25.35,90.24,1.12,19.02,76.34,1.42,22.46,87.48,1.55,19.13,76.19,-0.0013,0.7644,0.032,0.0394,0.7869,0.1309,0.0751,0.9154,0.2969,0.0319,0.8004,0.1335,0.0406,0.8629,0.2645,0.0443,0.8023,0.1317,0.006,0.013,0.033,0.0,0.052,0.084,0.006,0.799,0.227,0.0,0.0,0.006,0.006,0.5,0.189,0.0,0.208,0.052,0.0,0.2807,1.1582,0.0322,0.2869,1.307,0.0568,0.3774,1.5156,0.0184,0.3221,1.3284,0.0245,0.3405,1.4926,0.0245,0.2853,1.3008,0.0005,0.0009,0.0137,-0.0004,-0.0,0.0117,-0.0001,0.0045,0.0172,0.0002,-0.001,0.0166,-0.0011,0.0063,0.0079,0.0,0.0022,0.0039,0.6762,0.2786,-0.0007,0.0187,-0.0266,-0.0015,0.764,0.0319,0.0395,0.7871,0.1301,0.0755,0.9144,0.2972,0.0318,0.8005,0.1326,0.0414,0.862,0.2647,0.0446,0.8025,0.1309,0.0,0.0,0.0,0.0,0.0,0.0,0.0,0.0,0.0,,
3.0,run,7.62,6.09,-0.27,-0.91,-0.18,0.0,0.0,0.0,1.183,0.09,16.44,66.62,1.58,16.88,75.06,3.08,21.71,87.45,1.14,18.81,76.11,1.23,19.6,85.96,1.49,16.52,74.79,-0.05,17.05,67.71,1.38,18.29,76.11,2.64,25.34,90.25,1.11,19.02,76.34,1.43,22.46,87.51,1.57,19.13,76.16,-0.0014,0.7645,0.0319,0.0396,0.7871,0.1307,0.0753,0.9153,0.297,0.0317,0.8004,0.1334,0.0408,0.8628,0.2648,0.0448,0.8023,0.1313,0.006,0.013,0.033,0.0,0.052,0.084,0.006,0.799,0.227,0.0,0.0,0.006,0.006,0.5,0.189,0.0,0.208,0.052,0.0,0.2807,1.1582,0.0322,0.2869,1.307,0.0568,0.3774,1.5156,0.0184,0.3221,1.3269,0.0245,0.3405,1.4941,0.0245,0.2853,1.3008,0.0003,0.0006,0.0096,-0.0003,-0.0,0.0082,-0.0,0.0032,0.0121,0.0001,-0.0007,0.0058,-0.0008,0.0044,0.0113,0.0,0.0016,0.0027,0.6762,0.2787,0.0003,0.017,-0.0078,-0.0013,0.7644,0.032,0.0394,0.7869,0.1309,0.0751,0.9154,0.2969,0.0319,0.8004,0.1335,0.0406,0.8629,0.2645,0.0443,0.8023,0.1317,0.0,0.0,0.0,0.0,0.0,0.0,0.0,0.0,0.0,,
3.04,run,7.63,6.07,0.64,-0.98,-1.89,0.0,0.0,0.0,1.183,0.09,16.44,66.62,1.58,16.88,75.06,3.08,21.71,87.45,1.14,18.81,76.29,1.23,19.6,85.96,1.49,16.52,74.79,-0.06,17.04,67.73,1.38,18.29,76.13,2.62,25.37,90.25,1.11,19.04,76.34,1.43,22.49,87.51,1.54,19.14,76.17,-0.0018,0.7644,0.0321,0.0393,0.7871,0.1309,0.0749,0.9157,0.2971,0.0316,0.8007,0.1334,0.0407,0.8634,0.2649,0.0441,0.8025,0.1314,0.006,0.013,0.033,0.0,0.052,0.084,0.006,0.799,0.227,0.0,0.0,0.006,0.006,0.5,0.189,0.0,0.208,0.052,0.0,0.2807,1.1582,0.0322,0.2869,1.307,0.0568,0.3774,1.5156,0.0184,0.3221,1.3269,0.0245,0.3405,1.4987,0.0245,0.2853,1.3008,0.0002,0.0004,0.0067,-0.0002,-0.0,0.0057,-0.0,0.0022,0.0084,0.0001,-0.0005,0.0041,-0.0005,0.0031,0.0251,0.0,0.0011,0.0019,0.6754,0.2744,-0.0048,-0.0159,-0.0032,-0.0014,0.7645,0.0319,0.0396,0.7871,0.1307,0.0753,0.9153,0.297,0.0317,0.8004,0.1334,0.0408,0.8628,0.2648,0.0448,0.8023,0.1313,0.0,0.0,0.0,0.0,0.0,0.0,0.0,0.0,0.0,,
3.08,run,7.6,6.11,-0.33,0.8,0.74,0.0,0.0,0.0,1.183,0.09,16.44,66.62,1.58,16.88,75.06,3.08,21.71,87.45,1.14,18.81,76.2,1.23,19.6,85.96,1.49,16.52,74.79,-0.05,17.03,67.74,1.38,18.28,76.14,2.61,25.38,90.22,1.12,19.03,76.35,1.43,22.49,87.5,1.52,19.14,76.2,-0.0014,0.7643,0.0322,0.0393,0.787,0.1311,0.0746,0.9161,0.2967,0.0319,0.8006,0.1336,0.0408,0.8635,0.2647,0.0435,0.8026,0.1317,0.006,0.013,0.033,0.0,0.045,0.071,0.006,0.773,0.234,0.0,0.006,0.006,0.006,0.526,0.143,0.0,0.201,0.045,0.0,0.2807,1.1582,0.0322,0.2869,1.307,0.0568,0.3774,1.5156,0.0184,0.3221,1.33,0.0245,0.3405,1.4987,0.0245,0.2853,1.3008,0.0002,0.0003,0.0047,-0.0001,-0.0,0.004,-0.0,0.0016,0.0059,0.0001,-0.0004,0.0144,-0.0004,0.0022,0.0176,0.0,0.0008,0.0013,0.6768,0.2721,0.0112,-0.0171,-0.033,-0.0018,0.7644,0.0321,0.0393,0.7871,0.1309,0.0749,0.9157,0.2971,0.0316,0.8007,0.1334,0.0407,0.8634,0.2649,0.0441,0.8025,0.1314,0.0,0.0,0.0,0.0,0.0,0.0,0.0,0.0,0.0,,
3.12,run,7.59,6.12,-0.3,0.65,-1.26,0.0,0.0,0.0,1.183,0.09,16.44,66.62,1.58,16.88,75.06,3.08,21.71,87.45,1.14,18.81,76.2,1.23,19.6,85.96,1.49,16.52,74.79,-0.06,17.05,67.68,1.39,18.29,76.09,2.64,25.33,90.26,1.1,19.03,76.31,1.43,22.46,87.52,1.58,19.12,76.13,-0.0016,0.7646,0.0316,0.0398,0.7871,0.1305,0.0754,0.9151,0.2971,0.0316,0.8006,0.1331,0.0408,0.8629,0.2649,0.0452,0.8023,0.1309,0.006,0.013,0.033,0.0,0.045,0.071,0.006,0.773,0.234,0.0,0.006,0.006,0.006,0.526,0.143,0.0,0.201,0.045,0.0,0.2807,1.1582,0.0322,0.2869,1.307,0.0568,0.3774,1.5156,0.0184,0.3221,1.3284,0.0245,0.3405,1.4987,0.0245,0.2853,1.3008,0.0001,0.0002,0.0033,-0.0001,-0.0,0.0028,-0.0,0.0011,0.0041,0.0001,-0.0002,0.0043,-0.0003,0.0015,0.0123,0.0,0.0005,0.0009,0.6743,0.2757,-0.0057,0.0139,0.0128,-0.0014,0.7643,0.0322,0.0393,0.787,0.1311,0.0746,0.9161,0.2967,0.0319,0.8006,0.1336,0.0408,0.8635,0.2647,0.0435,0.8026,0.1317,0.0,0.0,0.0,0.0,0.0,0.0,0.0,0.0,0.0,,
3.16,run,7.58,6.07,-0.09,-0.76,-0.66,0.0,0.0,0.0,1.183,0.09,16.44,66.62,1.58,16.88,75.06,3.08,21.71,87.45,1.14,18.81,76.11,1.23,19.6,85.96,1.49,16.52,74.79,-0.06,17.06,67.71,1.38,18.29,76.16,2.62,25.39,90.24,1.11,19.03,76.38,1.41,22.52,87.5,1.54,19.13,76.19,-0.0016,0.7648,0.0319,0.0395,0.787,0.1313,0.0747,0.9163,0.2969,0.0317,0.8006,0.1339,0.0403,0.8639,0.2647,0.0441,0.8024,0.1317,0.006,0.013,0.033,0.0,0.045,0.071,0.006,0.773,0.234,0.0,0.006,0.006,0.006,0.526,0.143,0.0,0.201,0.045,0.0,0.2807,1.1582,0.0322,0.2869,1.307,0.0568,0.3774,1.5156,0.0184,0.3221,1.3284,0.0245,0.3405,1.4987,0.0245,0.2853,1.3008,0.0001,0.0002,0.0023,-0.0001,-0.0,0.002,-0.0,0.0008,0.0029,0.0,-0.0002,0.003,-0.0002,0.0011,0.0086,0.0,0.0004,0.0007,0.6729,0.2765,-0.0052,0.0114,-0.0219,-0.0016,0.7646,0.0316,0.0398,0.7871,0.1305,0.0754,0.9151,0.2971,0.0316,0.8006,0.1331,0.0408,0.8629,0.2649,0.0452,0.8023,0.1309,0.0,0.0,0.0,0.0,0.0,0.0,0.0,0.0,0.0,,
3.2,run,7.6,6.06,0.37,-0.55,-0.12,0.0,0.0,0.0,1.183,0.09,16.44,66.62,1.58,16.88,75.06,3.08,21.71,87.45,1.14,18.81,76.29,1.23,19.6,85.96,1.49,16.52,74.79,-0.06,17.06,67.71,1.38,18.29,76.14,2.61,25.39,90.24,1.11,19.04,76.36,1.42,22.51,87.51,1.53,19.14,76.18,-0.0016,0.7647,0.0319,0.0395,0.7872,0.131,0.0746,0.9162,0.2969,0.0317,0.8007,0.1337,0.0406,0.8638,0.2648,0.0438,0.8026,0.1315,0.006,0.013,0.026,0.0,0.052,0.084,0.006,0.786,0.227,0.0,0.0,0.0,0.006,0.526,0.195,0.0,0.195,0.045,0.0,0.2807,1.1582,0.0322,0.2869,1.307,0.0568,0.3774,1.5156,0.0184,0.3221,1.3269,0.0245,0.3405,1.4987,0.0245,0.2853,1.3008,0.0001,0.0001,0.0016,-0.0,-0.0,0.0014,-0.0,0.0005,0.002,0.0,-0.0001,-0.0037,-0.0001,0.0007,0.006,0.0,0.0003,0.0005,0.6725,0.2723,-0.0016,-0.0133,-0.0115,-0.0016,0.7648,0.0319,0.0395,0.787,0.1313,0.0747,0.9163,0.2969,0.0317,0.8006,0.1339,0.0403,0.8639,0.2647,0.0441,0.8024,0.1317,0.0,0.0,0.0,0.0,0.0,0.0,0.0,0.0,0.0,,
3.24,run,7.61,6.08,0.57,0.4,-1.49,0.0,0.0,0.0,1.183,0.09,16.44,66.62,1.58,16.88,75.06,3.08,21.71,87.45,1.14,18.81,76.2,1.23,19.6,86.04,1.49,16.52,74.79,-0.05,17.05,67.71,1.39,18.29,76.1,2.62,25.35,90.24,1.11,19.04,76.32,1.43,22.46,87.51,1.55,19.14,76.15,-0.0014,0.7645,0.0318,0.0397,0.7871,0.1306,0.0749,0.9154,0.2969,0.0318,0.8007,0.1332,0.0409,0.863,0.2648,0.0443,0.8026,0.1312,0.006,0.013,0.026,0.0,0.052,0.084,0.006,0.786,0.227,0.0,0.0,0.0,0.006,0.526,0.195,0.0,0.195,0.045,0.0,0.2807,1.1582,0.0322,0.2869,1.307,0.0568,0.3774,1.5156,0.0184,0.3221,1.33,0.0245,0.3405,1.4987,0.0245,0.2853,1.3008,0.0,0.0001,0.0011,-0.0,-0.0,0.001,-0.0,0.0004,0.0014,0.0,-0.0001,0.0089,-0.0001,0.0005,0.0042,0.0,0.0002,0.0003,0.6738,0.272,0.0065,-0.0097,-0.0021,-0.0016,0.7647,0.0319,0.0395,0.7872,0.131,0.0746,0.9162,0.2969,0.0317,0.8007,0.1337,0.0406,0.8638,0.2648,0.0438,0.8026,0.1315,0.0,0.0,0.0,0.0,0.0,0.0,0.0,0.0,0.0,,
3.28,run,7.6,6.1,0.08,0.7,0.41,0.0,0.0,0.0,1.183,0.09,16.44,66.62,1.58,16.88,75.06,3.08,21.71,87.45,1.14,18.81,76.11,1.23,19.6,86.04,1.49,16.52,74.79,-0.05,17.06,67.71,1.38,18.28,76.15,2.62,25.39,90.22,1.11,19.03,76.38,1.42,22.51,87.5,1.54,19.13,76.19,-0.0014,0.7647,0.0319,0.0395,0.7869,0.1312,0.0748,0.9162,0.2967,0.0318,0.8005,0.1339,0.0405,0.8637,0.2647,0.044,0.8023,0.1317,0.006,0.013,0.026,0.0,0.052,0.084,0.006,0.786,0.227,0.0,0.0,0.0,0.006,0.526,0.195,0.0,0.195,0.045,0.0,0.2807,1.1582,0.0322,0.2869,1.307,0.0568,0.3774,1.5156,0.0184,0.3221,1.3284,0.0245,0.3405,1.5002,0.0245,0.2853,1.3008,0.0,0.0001,0.0008,-0.0,-0.0,0.0007,-0.0,0.0003,0.001,0.0,-0.0001,0.0005,-0.0001,0.0004,0.0087,0.0,0.0001,0.0002,0.6749,0.2736,0.01,0.007,-0.0261,-0.0014,0.7645,0.0318,0.0397,0.7871,0.1306,0.0749,0.9154,0.2969,0.0318,0.8007,0.1332,0.0409,0.863,0.2648,0.0443,0.8026,0.1312,0.0,0.0,0.0,0.0,0.0,0.0,0.0,0.0,0.0,,
3.32,run,7.63,6.08,0.4,-0.29,-1.26,0.0,0.0,0.0,1.183,0.09,16.44,66.62,1.58,16.88,75.06,3.08,21.71,87.45,1.14,18.81,76.29,1.23,19.6,86.04,1.49,16.52,74.79,-0.05,17.07,67.69,1.39,18.29,76.11,2.64,25.36,90.25,1.11,19.03,76.35,1.43,22.48,87.53,1.57,19.13,76.14,-0.0016,0.7648,0.0316,0.0398,0.7871,0.1308,0.0753,0.9156,0.297,0.0316,0.8006,0.1335,0.0407,0.8633,0.265,0.045,0.8023,0.1311,0.006,0.013,0.026,0.006,0.058,0.065,0.006,0.741,0.24,0.0,0.006,0.0,0.006,0.487,0.163,0.0,0.24,0.045,0.0,0.2807,1.1582,0.0322,0.2869,1.307,0.0568,0.3774,1.5156,0.0184,0.3221,1.3269,0.0245,0.3405,1.5002,0.0245,0.2853,1.3008,0.0,0.0,0.0006,-0.0,-0.0,0.0005,-0.0,0.0002,0.0007,0.0,-0.0,-0.0054,-0.0,0.0003,0.0061,0.0,0.0001,0.0002,0.6743,0.2755,0.0015,0.0122,0.0072,-0.0014,0.7647,0.0319,0.0395,0.7869,0.1312,0.0748,0.9162,0.2967,0.0318,0.8005,0.1339,0.0405,0.8637,0.2647,0.044,0.8023,0.1317,0.0,0.0,0.0,0.0,0.0,0.0,0.0,0.0,0.0,,
3.36,run,7.62,6.08,0.21,-0.22,-0.22,0.0,0.0,0.0,1.183,0.09,16.44,66.62,1.58,16.88,75.06,3.08,21.71,87.45,1.14,18.81,76.2,1.23,19.6,86.04,1.49,16.52,74.79,-0.05,17.05,67.72,1.38,18.29,76.14,2.62,25.39,90.23,1.11,19.03,76.36,1.42,22.5,87.51,1.54,19.14,76.19,-0.0014,0.7646,0.032,0.0395,0.787,0.1311,0.0748,0.9161,0.2968,0.0318,0.8006,0.1337,0.0406,0.8636,0.2648,0.044,0.8025,0.1316,0.006,0.013,0.026,0.006,0.058,0.065,0.006,0.741,0.24,0.0,0.006,0.0,0.006,0.487,0.163,0.0,0.24,0.045,0.0,0.2807,1.1582,0.0322,0.2869,1.307,0.0568,0.3774,1.5156,0.0184,0.3221,1.33,0.0245,0.3405,1.5002,0.0245,0.2853,1.3008,0.0,0.0,0.0004,-0.0,-0.0,0.0003,-0.0,0.0001,0.0005,0.0,-0.0,0.0066,-0.0,0.0002,0.0043,0.0,0.0001,0.0001,0.6762,0.2737,0.0069,-0.005,-0.0219,-0.0016,0.7648,0.0316,0.0398,0.7871,0.1308,0.0753,0.9156,0.297,0.0316,0.8006,0.1335,0.0407,0.8633,0.265,0.045,0.8023,0.1311,0.0,0.0,0.0,0.0,0.0,0.0,0.0,0.0,0.0,,
3.4,run,7.62,6.09,0.04,0.39,-1.05,0.0,0.0,0.0,1.183,0.09,16.44,66.62,1.58,16.88,75.06,3.08,21.71,87.45,1.14,18.81,76.2,1.23,19.6,86.04,1.49,16.52,74.79,-0.05,17.06,67.7,1.39,18.29,76.12,2.63,25.37,90.24,1.11,19.04,76.35,1.43,22.48,87.52,1.56,19.14,76.16,-0.0015,0.7647,0.0318,0.0397,0.7871,0.1308,0.0751,0.9158,0.2969,0.0317,0.8006,0.1335,0.0408,0.8634,0.2649,0.0445,0.8025,0.1313,0.006,0.013,0.026,0.006,0.058,0.065,0.006,0.741,0.24,0.0,0.006,0.0,0.006,0.487,0.163,0.0,0.24,0.045,0.0,0.2807,1.1582,0.0322,0.2869,1.307,0.0568,0.3774,1.5156,0.0184,0.3221,1.3284,0.0245,0.3405,1.5002,0.0245,0.2853,1.3008,0.0,0.0,0.0003,-0.0,-0.0,0.0002,-0.0,0.0001,0.0003,0.0,-0.0,0.0003,-0.0,0.0001,0.003,0.0,0.0,0.0001,0.676,0.273,0.0036,-0.0039,-0.0038,-0.0014,0.7646,0.032,0.0395,0.787,0.1311,0.0748,0.9161,0.2968,0.0318,0.8006,0.1337,0.0406,0.8636,0.2648,0.044,0.8025,0.1316,0.0,0.0,0.0,0.0,0.0,0.0,0.0,0.0,0.0,,
3.44,run,7.62,6.08,0.02,0.0,-0.15,0.0,0.0,0.0,1.183,0.09,16.44,66.62,1.58,16.88,75.06,3.08,21.71,87.45,1.14,18.81,76.2,1.23,19.6,86.04,1.49,16.52,74.79,-0.05,17.06,67.7,1.39,18.29,76.14,2.62,25.39,90.23,1.11,19.03,76.38,1.42,22.51,87.51,1.55,19.13,76.18,-0.0015,0.7648,0.0318,0.0396,0.787,0.1311,0.0749,0.9162,0.2969,0.0317,0.8006,0.1338,0.0405,0.8638,0.2648,0.0443,0.8024,0.1316,0.006,0.013,0.026,0.0,0.045,0.091,0.006,0.773,0.195,0.0,0.006,0.006,0.006,0.552,0.175,0.0,0.169,0.052,0.0,0.2807,1.1582,0.0322,0.2869,1.307,0.0568,0.3774,1.5156,0.0184,0.3221,1.3284,0.0245,0.3405,1.5002,0.0245,0.2853,1.3008,0.0,0.0,0.0002,-0.0,-0.0,0.0002,-0.0,0.0001,0.0002,0.0,-0.0,0.0002,-0.0,0.0001,0.0021,0.0,0.0,0.0001,0.6757,0.2742,0.0007,0.0067,-0.0183,-0.0015,0.7647,0.0318,0.0397,0.7871,0.1308,0.0751,0.9158,0.2969,0.0317,0.8006,0.1335,0.0408,0.8634,0.2649,0.0445,0.8025,0.1313,0.0,0.0,0.0,0.0,0.0,0.0,0.0,0.0,0.0,,
3.48,run,7.64,6.06,0.37,-0.31,-1.22,0.0,0.0,0.0,1.183,0.09,16.44,66.62,1.58,16.88,75.06,3.08,21.71,87.45,1.14,18.81,76.2,1.23,19.6,86.04,1.49,16.52,74.79,-0.05,17.06,67.7,1.39,18.29,76.11,2.63,25.37,90.24,1.11,19.03,76.34,1.43,22.48,87.52,1.56,19.13,76.16,-0.0015,0.7647,0.0317,0.0397,0.7871,0.1308,0.0751,0.9158,0.297,0.0317,0.8006,0.1335,0.0407,0.8634,0.2649,0.0446,0.8024,0.1312,0.006,0.013,0.026,0.0,0.045,0.091,0.006,0.773,0.195,0.0,0.006,0.006,0.006,0.552,0.175,0.0,0.169,0.052,0.0,0.2807,1.1582,0.0322,0.2869,1.307,0.0568,0.3774,1.5156,0.0184,0.3221,1.3284,0.0245,0.3405,1.5002,0.0245,0.2853,1.3008,0.0,0.0,0.0001,-0.0,-0.0,0.0001,-0.0,0.0,0.0002,0.0,-0.0,0.0002,-0.0,0.0001,0.0015,0.0,0.0,0.0,0.6759,0.273,0.0003,0.0001,-0.0026,-0.0015,0.7648,0.0318,0.0396,0.787,0.1311,0.0749,0.9162,0.2969,0.0317,0.8006,0.1338,0.0405,0.8638,0.2648,0.0443,0.8024,0.1316,0.0,0.0,0.0,0.0,0.0,0.0,0.0,0.0,0.0,,
3.52,run,7.63,6.06,0.15,0.03,-0.21,0.0,0.0,0.0,1.183,0.09,16.44,66.62,1.58,16.88,75.06,3.08,21.71,87.45,1.14,18.81,76.2,1.23,19.6,86.04,1.49,16.52,74.79,-0.05,17.06,67.71,1.39,18.29,76.14,2.62,25.39,90.22,1.11,19.03,76.37,1.42,22.5,87.51,1.54,19.13,76.19,-0.0014,0.7646,0.0319,0.0396,0.787,0.131,0.0748,0.9162,0.2968,0.0318,0.8006,0.1338,0.0407,0.8636,0.2648,0.044,0.8024,0.1316,0.006,0.013,0.026,0.0,0.045,0.091,0.006,0.773,0.195,0.0,0.006,0.006,0.006,0.552,0.175,0.0,0.169,0.052,0.0,0.2807,1.1582,0.0322,0.2869,1.307,0.0568,0.3774,1.5156,0.0184,0.3221,1.3284,0.0245,0.3405,1.5002,0.0245,0.2853,1.3008,0.0,0.0,0.0001,-0.0,-0.0,0.0001,-0.0,0.0,0.0001,0.0,-0.0,0.0001,-0.0,0.0,0.001,0.0,0.0,0.0,0.6771,0.2717,0.0064,-0.0054,-0.0213,-0.0015,0.7647,0.0317,0.0397,0.7871,0.1308,0.0751,0.9158,0.297,0.0317,0.8006,0.1335,0.0407,0.8634,0.2649,0.0446,0.8024,0.1312,0.0,0.0,0.0,0.0,0.0,0.0,0.0,0.0,0.0,,
3.56,run,7.63,6.07,-0.03,0.29,-0.79,0.0,0.0,0.0,1.183,0.09,16.44,66.62,1.58,16.88,75.06,3.08,21.71,87.45,1.14,18.81,76.2,1.23,19.6,86.04,1.49,16.52,74.79,-0.05,17.06,67.69,1.39,18.29,76.11,2.63,25.36,90.24,1.11,19.03,76.34,1.43,22.48,87.52,1.56,19.13,76.16,-0.0014,0.7647,0.0317,0.0398,0.7871,0.1307,0.0752,0.9157,0.2969,0.0318,0.8006,0.1334,0.0408,0.8632,0.2649,0.0446,0.8024,0.1313,0.006,0.013,0.026,0.0,0.052,0.084,0.006,0.786,0.195,0.0,0.006,0.006,0.006,0.494,0.123,0.0,0.195,0.045,0.0,0.2807,1.1582,0.0322,0.2869,1.307,0.0568,0.3774,1.5156,0.0184,0.3221,1.3284,0.0245,0.3405,1.5002,0.0245,0.2853,1.3008,0.0,0.0,0.0001,-0.0,-0.0,0.0001,-0.0,0.0,0.0001,0.0,-0.0,0.0001,-0.0,0.0,0.0007,0.0,0.0,0.0,0.6767,0.272,0.0027,0.0005,-0.0037,-0.0014,0.7646,0.0319,0.0396,0.787,0.131,0.0748,0.9162,0.2968,0.0318,0.8006,0.1338,0.0407,0.8636,0.2648,0.044,0.8024,0.1316,0.0,0.0,0.0,0.0,0.0,0.0,0.0,0.0,0.0,,
3.6,run,7.64,6.06,0.21,-0.01,-0.64,0.0,0.0,0.0,1.183,0.09,16.44,66.62,1.58,16.88,75.06,3.08,21.71,87.45,1.14,18.81,76.2,1.23,19.6,86.04,1.49,16.52,74.79,-0.05,17.06,67.69,1.39,18.29,76.13,2.62,25.38,90.23,1.11,19.03,76.36,1.42,22.5,87.51,1.55,19.13,76.18,-0.0015,0.7647,0.0317,0.0397,0.787,0.131,0.075,0.916,0.2969,0.0318,0.8005,0.1337,0.0406,0.8636,0.2648,0.0444,0.8023,0.1315,0.006,0.013,0.026,0.0,0.052,0.084,0.006,0.786,0.195,0.0,0.006,0.006,0.006,0.494,0.123,0.0,0.195,0.045,0.0,0.2807,1.1582,0.0322,0.2869,1.307,0.0568,0.3774,1.5156,0.0184,0.3221,1.3284,0.0245,0.3405,1.5002,0.0245,0.2853,1.3008,0.0,0.0,0.0,-0.0,-0.0,0.0,-0.0,0.0,0.0001,0.0,-0.0,0.0001,-0.0,0.0,0.0005,0.0,0.0,0.0,0.6764,0.2728,-0.0005,0.005,-0.0138,-0.0014,0.7647,0.0317,0.0398,0.7871,0.1307,0.0752,0.9157,0.2969,0.0318,0.8006,0.1334,0.0408,0.8632,0.2649,0.0446,0.8024,0.1313,0.0,0.0,0.0,0.0,0.0,0.0,0.0,0.0,0.0,,
3.64,run,7.65,6.05,0.34,-0.35,-0.49,0.0,0.0,0.0,1.183,0.09,16.44,66.62,1.58,16.88,75.06,3.08,21.71,87.45,1.14,18.81,76.2,1.23,19.6,86.04,1.49,16.52,74.79,-0.05,17.06,67.7,1.39,18.29,76.12,2.63,25.37,90.23,1.11,19.03,76.35,1.43,22.49,87.51,1.56,19.13,76.17,-0.0014,0.7647,0.0317,0.0397,0.787,0.1308,0.0751,0.9159,0.2968,0.0318,0.8006,0.1336,0.0408,0.8634,0.2649,0.0444,0.8024,0.1314,0.006,0.013,0.026,0.0,0.052,0.084,0.006,0.786,0.195,0.0,0.006,0.006,0.006,0.494,0.123,0.0,0.195,0.045,0.0,0.2807,1.1582,0.0322,0.2869,1.307,0.0568,0.3774,1.5156,0.0184,0.3221,1.3284,0.0245,0.3405,1.5002,0.0245,0.2853,1.3008,0.0,0.0,0.0,-0.0,-0.0,0.0,-0.0,0.0,0.0,0.0,-0.0,0.0,-0.0,0.0,0.0004,0.0,0.0,0.0,0.6773,0.2719,0.0037,-0.0002,-0.0111,-0.0015,0.7647,0.0317,0.0397,0.787,0.131,0.075,0.916,0.2969,0.0318,0.8005,0.1337,0.0406,0.8636,0.2648,0.0444,0.8023,0.1315,0.0,0.0,0.0,0.0,0.0,0.0,0.0,0.0,0.0,,
3.68,run,7.65,6.06,0.23,0.1,-0.88,0.0,0.0,0.0,1.183,0.09,16.44,66.62,1.58,16.88,75.06,3.08,21.71,87.45,1.14,18.81,76.2,1.23,19.6,86.04,1.49,16.52,74.79,-0.05,17.05,67.7,1.39,18.29,76.11,2.63,25.37,90.23,1.11,19.03,76.35,1.43,22.48,87.51,1.55,19.13,76.17,-0.0014,0.7646,0.0317,0.0397,0.787,0.1308,0.0751,0.9158,0.2968,0.0318,0.8006,0.1335,0.0409,0.8632,0.2649,0.0444,0.8024,0.1314,0.006,0.019,0.026,0.0,0.052,0.091,0.006,0.702,0.182,0.0,0.006,0.006,0.006,0.533,0.123,0.0,0.189,0.045,0.0,0.2807,1.1582,0.0322,0.2869,1.307,0.0568,0.3774,1.5156,0.0184,0.3221,1.3284,0.0245,0.3405,1.5002,0.0245,0.2853,1.3008,0.0,0.0,0.0,-0.0,-0.0,0.0,-0.0,0.0,0.0,0.0,-0.0,0.0,-0.0,0.0,0.0002,0.0,0.0,0.0,0.6779,0.2708,0.0059,-0.0062,-0.0085,-0.0014,0.7647,0.0317,0.0397,0.787,0.1308,0.0751,0.9159,0.2968,0.0318,0.8006,0.1336,0.0408,0.8634,0.2649,0.0444,0.8024,0.1314,0.0,0.0,0.0,0.0,0.0,0.0,0.0,0.0,0.0,,
3.72,run,7.65,6.06,0.05,0.17,-0.29,0.0,0.0,0.0,1.183,0.09,16.44,66.62,1.58,16.88,75.06,3.08,21.71,87.45,1.14,18.81,76.2,1.23,19.6,86.04,1.49,16.52,74.79,-0.05,17.06,67.69,1.39,18.28,76.12,2.63,25.38,90.23,1.11,19.03,76.36,1.43,22.49,87.51,1.55,19.13,76.18,-0.0014,0.7647,0.0317,0.0397,0.787,0.1309,0.0751,0.9159,0.2968,0.0318,0.8005,0.1336,0.0407,0.8634,0.2648,0.0444,0.8023,0.1315,0.006,0.019,0.026,0.0,0.052,0.091,0.006,0.702,0.182,0.0,0.006,0.006,0.006,0.533,0.123,0.0,0.189,0.045,0.0,0.2807,1.1582,0.0322,0.2869,1.307,0.0568,0.3774,1.5156,0.0184,0.3221,1.3284,0.0245,0.3405,1.5002,0.0245,0.2853,1.3008,0.0,0.0,0.0,-0.0,-0.0,0.0,-0.0,0.0,0.0,0.0,-0.0,0.0,-0.0,0.0,0.0002,0.0,0.0,0.0,0.678,0.2714,0.004,0.0018,-0.0153,-0.0014,0.7646,0.0317,0.0397,0.787,0.1308,0.0751,0.9158,0.2968,0.0318,0.8006,0.1335,0.0409,0.8632,0.2649,0.0444,0.8024,0.1314,0.0,0.0,0.0,0.0,0.0,0.0,0.0,0.0,0.0,,
3.76,run,7.65,6.05,0.24,-0.03,-0.8,0.0,0.0,0.0,1.183,0.09,16.44,66.62,1.58,16.88,75.06,3.08,21.71,87.45,1.14,18.81,76.2,1.23,19.6,86.04,1.49,16.52,74.79,-0.05,17.06,67.68,1.39,18.29,76.11,2.63,25.36,90.24,1.11,19.03,76.34,1.43,22.48,87.51,1.56,19.13,76.16,-0.0014,0.7646,0.0316,0.0398,0.787,0.1307,0.0752,0.9156,0.2969,0.0318,0.8005,0.1334,0.0408,0.8632,0.2649,0.0447,0.8023,0.1313,0.006,0.019,0.026,0.0,0.052,0.091,0.006,0.702,0.182,0.0,0.006,0.006,0.006,0.533,0.123,0.0,0.189,0.045,0.0,0.2807,1.1582,0.0322,0.2869,1.307,0.0568,0.3774,1.5156,0.0184,0.3221,1.3284,0.0245,0.3405,1.5002,0.0245,0.2853,1.3008,0.0,0.0,0.0,-0.0,-0.0,0.0,-0.0,0.0,0.0,0.0,-0.0,0.0,-0.0,0.0,0.0001,0.0,0.0,0.0,0.678,0.2714,0.0009,0.003,-0.005,-0.0014,0.7647,0.0317,0.0397,0.787,0.1309,0.0751,0.9159,0.2968,0.0318,0.8005,0.1336,0.0407,0.8634,0.2648,0.0444,0.8023,0.1315,0.0,0.0,0.0,0.0,0.0,0.0,0.0,0.0,0.0,,
3.8,run,7.66,6.04,0.31,-0.14,-0.47,0.0,0.0,0.0,1.183,0.09,16.44,66.62,1.58,16.88,75.06,3.08,21.71,87.45,1.14,18.81,76.2,1.23,19.6,86.04,1.49,16.52,74.79,-0.05,17.05,67.69,1.39,18.28,76.12,2.63,25.37,90.23,1.11,19.03,76.36,1.43,22.48,87.51,1.55,19.13,76.18,-0.0013,0.7646,0.0317,0.0397,0.787,0.1308,0.0751,0.9159,0.2968,0.0318,0.8005,0.1336,0.0408,0.8633,0.2648,0.0444,0.8023,0.1315,0.006,0.013,0.026,0.006,0.065,0.091,0.013,0.734,0.214,0.0,0.006,0.0,0.006,0.435,0.169,0.0,0.208,0.058,0.0,0.2807,1.1582,0.0322,0.2869,1.307,0.0568,0.3774,1.5156,0.0184,0.3221,1.3284,0.0245,0.3405,1.5002,0.0245,0.2853,1.3008,0.0,0.0,0.0,-0.0,-0.0,0.0,-0.0,0.0,0.0,0.0,-0.0,0.0,-0.0,0.0,0.0001,0.0,0.0,0.0,0.6786,0.271,0.0041,-0.0006,-0.0139,-0.0014,0.7646,0.0316,0.0398,0.787,0.1307,0.0752,0.9157,0.2969,0.0318,0.8005,0.1334,0.0408,0.8632,0.2649,0.0447,0.8023,0.1313,0.0,0.0,0.0,0.0,0.0,0.0,0.0,0.0,0.0,,
3.84,run,7.66,6.05,0.12,0.1,-0.75,0.0,0.0,0.0,1.183,0.09,16.44,66.62,1.58,16.88,75.06,3.08,21.71,87.45,1.14,18.81,76.2,1.23,19.6,86.04,1.49,16.52,74.79,-0.05,17.05,67.69,1.39,18.28,76.11,2.63,25.36,90.23,1.11,19.03,76.34,1.43,22.47,87.51,1.56,19.13,76.16,-0.0013,0.7646,0.0316,0.0398,0.787,0.1307,0.0752,0.9156,0.2968,0.0318,0.8005,0.1334,0.0409,0.8631,0.2649,0.0446,0.8023,0.1313,0.006,0.013,0.026,0.006,0.065,0.091,0.013,0.734,0.214,0.0,0.006,0.0,0.006,0.435,0.169,0.0,0.208,0.058,0.0,0.2807,1.1582,0.0322,0.2869,1.307,0.0568,0.3774,1.5156,0.0184,0.3221,1.3284,0.0245,0.3405,1.5002,0.0245,0.2853,1.3008,0.0,0.0,0.0,-0.0,-0.0,0.0,-0.0,0.0,0.0,0.0,-0.0,0.0,-0.0,0.0,0.0001,0.0,0.0,0.0,0.6792,0.2702,0.0055,-0.0025,-0.0082,-0.0013,0.7646,0.0317,0.0397,0.787,0.1308,0.0751,0.9159,0.2968,0.0318,0.8005,0.1336,0.0408,0.8633,0.2648,0.0444,0.8023,0.1315,0.0,0.0,0.0,0.0,0.0,0.0,0.0,0.0,0.0,,
3.88,run,7.66,6.05,0.18,0.13,-0.49,0.0,0.0,0.0,1.183,0.09,16.44,66.62,1.58,16.88,75.06,3.08,21.71,87.45,1.14,18.81,76.2,1.23,19.6,86.04,1.49,16.52,74.79,-0.05,17.05,67.69,1.39,18.28,76.12,2.63,25.37,90.23,1.11,19.03,76.35,1.43,22.48,87.51,1.56,19.12,76.17,-0.0013,0.7646,0.0316,0.0398,0.787,0.1308,0.0751,0.9158,0.2968,0.0318,0.8005,0.1336,0.0408,0.8633,0.2648,0.0445,0.8023,0.1315,0.006,0.013,0.026,0.006,0.065,0.091,0.013,0.734,0.214,0.0,0.006,0.0,0.006,0.435,0.169,0.0,0.208,0.058,0.0,0.2807,1.1582,0.0322,0.2869,1.307,0.0568,0.3774,1.5156,0.0184,0.3221,1.3284,0.0245,0.3405,1.5002,0.0245,0.2853,1.3008,0.0,0.0,0.0,-0.0,-0.0,0.0,-0.0,0.0,0.0,0.0,-0.0,0.0,-0.0,0.0,0.0,0.0,0.0,0.0,0.6791,0.2708,0.002,0.0018,-0.013,-0.0013,0.7646,0.0316,0.0398,0.787,0.1307,0.0752,0.9156,0.2968,0.0318,0.8005,0.1334,0.0409,0.8631,0.2649,0.0446,0.8023,0.1313,0.0,0.0,0.0,0.0,0.0,0.0,0.0,0.0,0.0,,
3.92,run,7.67,6.05,0.27,-0.06,-0.67,0.0,0.0,0.0,1.183,0.09,16.44,66.62,1.58,16.88,75.06,3.08,21.71,87.45,1.14,18.81,76.2,1.23,19.6,86.04,1.49,16.52,74.79,-0.05,17.05,67.69,1.39,18.28,76.11,2.63,25.36,90.23,1.11,19.03,76.34,1.43,22.47,87.51,1.56,19.12,76.16,-0.0013,0.7646,0.0316,0.0398,0.787,0.1307,0.0752,0.9157,0.2968,0.0318,0.8005,0.1335,0.0409,0.8632,0.2649,0.0447,0.8023,0.1314,0.0,0.013,0.033,0.006,0.052,0.091,0.013,0.76,0.182,0.0,0.006,0.006,0.006,0.533,0.175,0.0,0.175,0.045,0.0,0.2807,1.1582,0.0322,0.2869,1.307,0.0568,0.3774,1.5156,0.0184,0.3221,1.3284,0.0245,0.3405,1.5002,0.0245,0.2853,1.3008,0.0,0.0,0.0,-0.0,-0.0,0.0,-0.0,0.0,0.0,0.0,-0.0,0.0,-0.0,0.0,0.0,0.0,0.0,0.0,0.6794,0.271,0.0031,0.0022,-0.0086,-0.0013,0.7646,0.0316,0.0398,0.787,0.1308,0.0751,0.9158,0.2968,0.0318,0.8005,0.1336,0.0408,0.8633,0.2648,0.0445,0.8023,0.1315,0.0,0.0,0.0,0.0,0.0,0.0,0.0,0.0,0.0,,
3.96,run,7.67,6.05,0.14,-0.0,-0.66,0.0,0.0,0.0,1.183,0.09,16.44,66.62,1.58,16.88,75.06,3.08,21.71,87.45,1.14,18.81,76.2,1.23,19.6,86.04,1.49,16.52,74.79,-0.05,17.05,67.69,1.39,18.28,76.11,2.63,25.36,90.23,1.11,19.03,76.35,1.43,22.47,87.51,1.56,19.12,76.17,-0.0013,0.7646,0.0316,0.0398,0.787,0.1307,0.0752,0.9157,0.2968,0.0319,0.8005,0.1335,0.0409,0.8632,0.2648,0.0446,0.8023,0.1314,0.0,0.013,0.033,0.006,0.052,0.091,0.013,0.76,0.182,0.0,0.006,0.006,0.006,0.533,0.175,0.0,0.175,0.045,0.0,0.2807,1.1582,0.0322,0.2869,1.307,0.0568,0.3774,1.5156,0.0184,0.3221,1.3284,0.0245,0.3405,1.5002,0.0245,0.2853,1.3008,0.0,0.0,0.0,-0.0,-0.0,0.0,-0.0,0.0,0.0,0.0,-0.0,0.0,-0.0,0.0,0.0,0.0,0.0,0.0,0.68,0.2703,0.0047,-0.001,-0.0117,-0.0013,0.7646,0.0316,0.0398,0.787,0.1307,0.0752,0.9157,0.2968,0.0318,0.8005,0.1335,0.0409,0.8632,0.2649,0.0447,0.8023,0.1314,0.0,0.0,0.0,0.0,0.0,0.0,0.0,0.0,0.0,,
4.0,run,7.67,6.05,0.1,0.15,-0.39,0.0,0.0,0.0,1.183,0.09,16.44,66.62,1.58,16.88,75.06,3.08,21.71,87.45,1.14,18.81,76.2,1.23,19.6,86.04,1.49,16.52,74.79,-0.05,17.05,67.69,1.39,18.28,76.11,2.63,25.37,90.23,1.11,19.03,76.35,1.43,22.48,87.51,1.56,19.12,76.17,-0.0013,0.7646,0.0316,0.0398,0.787,0.1307,0.0752,0.9157,0.2968,0.0318,0.8005,0.1335,0.0408,0.8632,0.2648,0.0446,0.8023,0.1314,0.0,0.013,0.033,0.006,0.052,0.091,0.013,0.76,0.182,0.0,0.006,0.006,0.006,0.533,0.175,0.0,0.175,0.045,0.0,0.2807,1.1582,0.0322,0.2869,1.307,0.0568,0.3774,1.5156,0.0184,0.3221,1.3284,0.0245,0.3405,1.5002,0.0245,0.2853,1.3008,0.0,0.0,0.0,-0.0,-0.0,0.0,-0.0,0.0,0.0,0.0,-0.0,0.0,-0.0,0.0,0.0,0.0,0.0,0.0,0.6799,0.2704,0.0024,-0.0001,-0.0115,-0.0013,0.7646,0.0316,0.0398,0.787,0.1307,0.0752,0.9157,0.2968,0.0319,0.8005,0.1335,0.0409,0.8632,0.2648,0.0446,0.8023,0.1314,0.0,0.0,0.0,0.0,0.0,0.0,0.0,0.0,0.0,,
4.04,run,7.68,6.05,0.21,0.12,-0.81,0.0,0.0,0.0,1.183,0.09,16.44,66.62,1.58,16.88,75.06,3.08,21.71,87.45,1.14,18.81,76.2,1.23,19.6,86.04,1.49,16.52,74.79,-0.05,17.05,67.68,1.39,18.28,76.11,2.64,25.36,90.23,1.11,19.03,76.34,1.43,22.47,87.51,1.57,19.12,76.16,-0.0013,0.7646,0.0316,0.0398,0.787,0.1307,0.0753,0.9156,0.2969,0.0318,0.8005,0.1334,0.0409,0.8631,0.2649,0.0448,0.8022,0.1313,0.006,0.013,0.026,0.0,0.052,0.084,0.006,0.806,0.182,0.0,0.0,0.006,0.006,0.507,0.156,0.0,0.221,0.065,0.0,0.2807,1.1582,0.0322,0.2869,1.307,0.0568,0.3774,1.5156,0.0184,0.3221,1.3284,0.0245,0.3405,1.5002,0.0245,0.2853,1.3008,0.0,0.0,0.0,-0.0,-0.0,0.0,-0.0,0.0,0.0,0.0,-0.0,0.0,-0.0,0.0,0.0,0.0,0.0,0.0,0.68,0.2709,0.0017,0.0026,-0.0069,-0.0013,0.7646,0.0316,0.0398,0.787,0.1307,0.0752,0.9157,0.2968,0.0318,0.8005,0.1335,0.0408,0.8632,0.2648,0.0446,0.8023,0.1314,0.0,0.0,0.0,0.0,0.0,0.0,0.0,0.0,0.0,,
4.08,run,7.68,6.04,0.28,-0.06,-0.46,0.0,0.0,0.0,1.183,0.09,16.44,66.62,1.58,16.88,75.06,3.08,21.71,87.45,1.14,18.81,76.2,1.23,19.6,86.04,1.49,16.52,74.79,-0.05,17.05,67.69,1.39,18.28,76.12,2.63,25.37,90.23,1.11,19.02,76.35,1.43,22.48,87.51,1.56,19.12,76.17,-0.0013,0.7646,0.0316,0.0398,0.787,0.1308,0.0752,0.9158,0.2968,0.0319,0.8004,0.1335,0.0408,0.8632,0.2648,0.0446,0.8022,0.1315,0.006,0.013,0.026,0.0,0.052,0.084,0.006,0.806,0.182,0.0,0.0,0.006,0.006,0.507,0.156,0.0,0.221,0.065,0.0,0.2807,1.1582,0.0322,0.2869,1.307,0.0568,0.3774,1.5156,0.0184,0.3221,1.3284,0.0245,0.3405,1.5002,0.0245,0.2853,1.3008,0.0,0.0,0.0,-0.0,-0.0,0.0,-0.0,0.0,0.0,0.0,-0.0,0.0,-0.0,0.0,0.0,0.0,0.0,0.0,0.6805,0.2707,0.0037,0.0021,-0.0142,-0.0013,0.7646,0.0316,0.0398,0.787,0.1307,0.0753,0.9156,0.2969,0.0318,0.8005,0.1334,0.0409,0.8631,0.2649,0.0448,0.8022,0.1313,0.0,0.0,0.0,0.0,0.0,0.0,0.0,0.0,0.0,,
4.12,run,7.68,6.04,0.13,-0.03,-0.75,0.0,0.0,0.0,1.183,0.09,16.44,66.62,1.58,16.88,75.06,3.08,21.71,87.45,1.14,18.81,76.2,1.23,19.6,86.04,1.49,16.52,74.79,-0.04,17.05,67.69,1.39,18.28,76.1,2.64,25.36,90.23,1.11,19.02,76.34,1.43,22.47,87.52,1.57,19.12,76.16,-0.0013,0.7645,0.0316,0.0398,0.787,0.1306,0.0753,0.9156,0.2968,0.0319,0.8005,0.1334,0.041,0.863,0.2649,0.0447,0.8022,0.1313,0.006,0.013,0.026,0.0,0.052,0.084,0.006,0.806,0.182,0.0,0.0,0.006,0.006,0.507,0.156,0.0,0.221,0.065,0.0,0.2807,1.1582,0.0322,0.2869,1.307,0.0568,0.3774,1.5156,0.0184,0.3221,1.3284,0.0245,0.3405,1.5002,0.0245,0.2853,1.3008,0.0,0.0,0.0,-0.0,-0.0,0.0,-0.0,0.0,0.0,0.0,-0.0,0.0,-0.0,0.0,0.0,0.0,0.0,0.0,0.6811,0.2701,0.0049,-0.0011,-0.0081,-0.0013,0.7646,0.0316,0.0398,0.787,0.1308,0.0752,0.9158,0.2968,0.0319,0.8004,0.1335,0.0408,0.8632,0.2648,0.0446,0.8022,0.1315,0.0,0.0,0.0,0.0,0.0,0.0,0.0,0.0,0.0,,
4.16,run,7.69,6.05,0.15,0.1,-0.47,0.0,0.0,0.0,1.183,0.09,16.44,66.62,1.58,16.88,75.06,3.08,21.71,87.45,1.14,18.81,76.2,1.23,19.6,86.04,1.49,16.52,74.79,-0.05,17.05,67.69,1.39,18.28,76.11,2.63,25.37,90.23,1.11,19.02,76.35,1.43,22.48,87.51,1.56,19.12,76.17,-0.0013,0.7645,0.0316,0.0398,0.787,0.1307,0.0752,0.9157,0.2968,0.0319,0.8004,0.1335,0.0409,0.8632,0.2648,0.0446,0.8022,0.1315,0.013,0.013,0.033,0.0,0.052,0.091,0.013,0.799,0.221,0.0,0.006,0.006,0.0,0.526,0.143,0.0,0.175,0.052,0.0,0.2807,1.1582,0.0322,0.2869,1.307,0.0568,0.3774,1.5156,0.0184,0.3221,1.3284,0.0245,0.3405,1.5002,0.0245,0.2853,1.3008,0.0,0.0,0.0,-0.0,-0.0,0.0,-0.0,0.0,0.0,0.0,-0.0,0.0,-0.0,0.0,0.0,0.0,0.0,0.0,0.6813,0.27,0.0023,-0.0006,-0.013,-0.0013,0.7645,0.0316,0.0398,0.787,0.1306,0.0753,0.9156,0.2968,0.0319,0.8005,0.1334,0.041,0.863,0.2649,0.0447,0.8022,0.1313,0.0,0.0,0.0,0.0,0.0,0.0,0.0,0.0,0.0,,
4.2,run,7.69,6.04,0.24,0.01,-0.59,0.0,0.0,0.0,1.183,0.09,16.44,66.62,1.58,16.88,75.06,3.08,21.71,87.45,1.14,18.81,76.2,1.23,19.6,86.04,1.49,16.52,74.79,-0.04,17.05,67.68,1.39,18.28,76.1,2.64,25.36,90.23,1.11,19.02,76.34,1.43,22.47,87.51,1.57,19.12,76.16,-0.0013,0.7645,0.0316,0.0398,0.787,0.1306,0.0754,0.9156,0.2968,0.0318,0.8004,0.1334,0.0409,0.8631,0.2649,0.0448,0.8022,0.1313,0.013,0.013,0.033,0.0,0.052,0.091,0.013,0.799,0.221,0.0,0.006,0.006,0.0,0.526,0.143,0.0,0.175,0.052,0.0,0.2807,1.1582,0.0322,0.2869,1.307,0.0568,0.3774,1.5156,0.0184,0.3221,1.3284,0.0245,0.3405,1.5002,0.0245,0.2853,1.3008,0.0,0.0,0.0,-0.0,-0.0,0.0,-0.0,0.0,0.0,0.0,-0.0,0.0,-0.0,0.0,0.0,0.0,0.0,0.0,0.6814,0.2704,0.0025,0.0018,-0.0082,-0.0013,0.7645,0.0316,0.0398,0.787,0.1307,0.0752,0.9157,0.2968,0.0319,0.8004,0.1335,0.0409,0.8632,0.2648,0.0446,0.8022,0.1315,0.0,0.0,0.0,0.0,0.0,0.0,0.0,0.0,0.0,,
4.24,run,7.69,6.04,0.24,-0.06,-0.65,0.0,0.0,0.0,1.183,0.09,16.44,66.62,1.58,16.88,75.06,3.08,21.71,87.45,1.14,18.81,76.2,1.23,19.6,86.04,1.49,16.52,74.79,-0.04,17.05,67.68,1.39,18.28,76.1,2.64,25.36,90.23,1.12,19.02,76.34,1.43,22.47,87.51,1.57,19.12,76.17,-0.0012,0.7645,0.0316,0.0398,0.7869,0.1306,0.0753,0.9156,0.2968,0.0319,0.8004,0.1334,0.041,0.863,0.2649,0.0447,0.8022,0.1314,0.013,0.013,0.033,0.0,0.052,0.091,0.013,0.799,0.221,0.0,0.006,0.006,0.0,0.526,0.143,0.0,0.175,0.052,0.0,0.2807,1.1582,0.0322,0.2869,1.307,0.0568,0.3774,1.5156,0.0184,0.3221,1.3284,0.0245,0.3405,1.5002,0.0245,0.2853,1.3008,0.0,0.0,0.0,-0.0,-0.0,0.0,-0.0,0.0,0.0,0.0,-0.0,0.0,-0.0,0.0,0.0,0.0,0.0,0.0,0.6819,0.27,0.0043,0.0002,-0.0103,-0.0013,0.7645,0.0316,0.0398,0.787,0.1306,0.0754,0.9156,0.2968,0.0318,0.8004,0.1334,0.0409,0.8631,0.2649,0.0448,0.8022,0.1313,0.0,0.0,0.0,0.0,0.0,0.0,0.0,0.0,0.0,,
4.28,run,7.69,6.04,0.27,-0.06,-0.49,0.0,0.0,0.0,1.183,0.18,16.44,66.62,1.58,16.88,75.06,3.08,21.71,87.45,1.14,18.81,76.2,1.23,19.6,86.04,1.49,16.52,74.79,-0.04,17.05,67.68,1.39,18.28,76.1,2.64,25.36,90.23,1.12,19.02,76.34,1.43,22.47,87.51,1.56,19.12,76.17,-0.0012,0.7645,0.0316,0.0398,0.7869,0.1306,0.0753,0.9156,0.2968,0.0319,0.8004,0.1334,0.041,0.8631,0.2649,0.0447,0.8022,0.1314,0.006,0.013,0.033,0.0,0.058,0.084,0.006,0.793,0.227,0.0,0.0,0.006,0.006,0.481,0.163,0.0,0.195,0.065,0.0,0.2807,1.1582,0.0322,0.2869,1.307,0.0568,0.3774,1.5156,0.0184,0.3221,1.3284,0.0245,0.3405,1.5002,0.0245,0.2853,1.3008,0.0,0.0,0.0,-0.0,-0.0,0.0,-0.0,0.0,0.0,0.0,-0.0,0.0,-0.0,0.0,0.0,0.0,0.0,0.0,0.6822,0.2697,0.0041,-0.0011,-0.0114,-0.0012,0.7645,0.0316,0.0398,0.7869,0.1306,0.0753,0.9156,0.2968,0.0319,0.8004,0.1334,0.041,0.863,0.2649,0.0447,0.8022,0.1314,0.0,0.0,0.0,0.0,0.0,0.0,0.0,0.0,0.0,,
4.32,run,7.71,6.04,0.35,0.22,-0.52,0.0,0.0,0.0,1.183,0.09,16.44,66.62,1.58,16.88,75.06,3.08,21.71,87.45,1.14,18.81,76.2,1.23,19.6,86.04,1.49,16.52,74.79,-0.04,17.05,67.69,1.39,18.28,76.1,2.64,25.35,90.23,1.11,19.02,76.34,1.43,22.46,87.51,1.57,19.12,76.17,-0.0012,0.7645,0.0316,0.0398,0.7869,0.1306,0.0754,0.9155,0.2968,0.0318,0.8004,0.1334,0.041,0.8629,0.2648,0.0448,0.8022,0.1314,0.006,0.013,0.033,0.0,0.058,0.084,0.006,0.793,0.227,0.0,0.0,0.006,0.006,0.481,0.163,0.0,0.195,0.065,0.0015,0.2807,1.1582,0.0322,0.2869,1.307,0.0568,0.3774,1.5156,0.0184,0.3221,1.3284,0.0245,0.3405,1.5002,0.0245,0.2853,1.3008,0.0058,0.0,0.0,-0.0,-0.0,0.0,-0.0,0.0,0.0,0.0,-0.0,0.0,-0.0,0.0,0.0,0.0,0.0,0.0,0.6822,0.2701,0.0047,-0.0011,-0.0086,-0.0012,0.7645,0.0316,0.0398,0.7869,0.1306,0.0753,0.9156,0.2968,0.0319,0.8004,0.1334,0.041,0.8631,0.2649,0.0447,0.8022,0.1314,0.0,0.0,0.0,0.0,0.0,0.0,0.0,0.0,0.0,,
4.36,run,7.71,6.04,0.13,-0.01,0.06,0.0,0.0,0.0,1.183,0.09,16.44,66.62,1.58,16.88,75.06,3.08,21.71,87.45,1.14,18.81,76.2,1.23,19.6,86.04,1.49,16.52,74.79,-0.04,17.05,67.68,1.4,18.28,76.1,2.64,25.35,90.23,1.12,19.02,76.34,1.44,22.46,87.52,1.57,19.12,76.16,-0.0012,0.7645,0.0315,0.0399,0.7869,0.1306,0.0755,0.9155,0.2968,0.0319,0.8004,0.1334,0.0411,0.8629,0.2649,0.045,0.8021,0.1313,0.006,0.013,0.033,0.0,0.058,0.084,0.006,0.793,0.227,0.0,0.0,0.006,0.006,0.481,0.163,0.0,0.195,0.065,0.0,0.2807,1.1582,0.0322,0.2869,1.307,0.0568,0.3774,1.5156,0.0184,0.3221,1.3284,0.0245,0.3405,1.5002,0.0245,0.2853,1.3008,-0.001,0.0,0.0,-0.0,-0.0,0.0,-0.0,0.0,0.0,0.0,-0.0,0.0,-0.0,0.0,0.0,0.0,0.0,0.0,0.6836,0.2701,0.0061,0.0038,-0.009,-0.0012,0.7645,0.0316,0.0398,0.7869,0.1306,0.0754,0.9155,0.2968,0.0318,0.8004,0.1334,0.041,0.8629,0.2648,0.0448,0.8022,0.1314,0.0,0.0,0.0,0.0,0.0,0.0,0.0,0.0,0.0,,
4.4,run,7.73,6.03,0.56,-0.12,-1.39,0.0,0.0,0.0,1.183,0.09,16.44,66.62,1.58,16.88,75.06,3.08,21.71,87.45,1.14,18.81,76.2,1.23,19.6,86.04,1.49,16.52,74.79,-0.04,17.04,67.67,1.4,18.28,76.08,2.65,25.34,90.24,1.11,19.02,76.32,1.44,22.45,87.52,1.58,19.12,76.15,-0.0012,0.7644,0.0315,0.0399,0.7869,0.1304,0.0756,0.9152,0.2969,0.0318,0.8004,0.1332,0.0411,0.8627,0.2649,0.0451,0.8021,0.1312,0.006,0.013,0.026,0.006,0.045,0.065,0.006,0.741,0.234,0.0,0.0,0.006,0.006,0.526,0.156,0.0,0.163,0.045,0.0,0.2807,1.1582,0.0322,0.2869,1.307,0.0568,0.3774,1.5156,0.0184,0.3221,1.3284,0.0245,0.3405,1.5002,0.0245,0.2853,1.3008,-0.0007,0.0,0.0,-0.0,-0.0,0.0,-0.0,0.0,0.0,0.0,-0.0,0.0,-0.0,0.0,0.0,0.0,0.0,0.0,0.6839,0.2696,0.0023,-0.0002,0.001,-0.0012,0.7645,0.0315,0.0399,0.7869,0.1306,0.0755,0.9155,0.2968,0.0319,0.8004,0.1334,0.0411,0.8629,0.2649,0.045,0.8021,0.1313,0.0,0.0,0.0,0.0,0.0,0.0,0.0,0.0,0.0,,
4.44,run,7.71,6.03,-0.06,-0.0,-0.24,0.0,0.0,0.0,1.183,0.09,16.44,66.62,1.58,16.88,75.06,3.08,21.71,87.45,1.14,18.81,76.11,1.23,19.6,86.04,1.49,16.52,74.79,-0.04,17.04,67.69,1.39,18.28,76.12,2.64,25.37,90.22,1.12,19.02,76.36,1.43,22.47,87.51,1.56,19.12,76.19,-0.0011,0.7644,0.0317,0.0397,0.7869,0.1308,0.0753,0.9158,0.2967,0.032,0.8003,0.1336,0.041,0.8632,0.2648,0.0445,0.8022,0.1317,0.006,0.013,0.026,0.006,0.045,0.065,0.006,0.741,0.234,0.0,0.0,0.006,0.006,0.526,0.156,0.0,0.163,0.045,0.0,0.2807,1.1582,0.0322,0.2869,1.307,0.0568,0.3774,1.5156,0.0184,0.3221,1.3284,0.0245,0.3405,1.5002,0.0245,0.2853,1.3008,-0.0005,0.0,0.0,-0.0,-0.0,0.0,-0.0,0.0,0.0,0.0,-0.0,0.0,-0.0,0.0,0.0,0.0,0.0,0.0,0.6849,0.2692,0.0097,-0.0021,-0.0243,-0.0012,0.7644,0.0315,0.0399,0.7869,0.1304,0.0756,0.9152,0.2969,0.0318,0.8004,0.1332,0.0411,0.8627,0.2649,0.0451,0.8021,0.1312,0.0,0.0,0.0,0.0,0.0,0.0,0.0,0.0,0.0,,
4.48,run,7.72,6.04,0.21,0.15,-0.78,0.0,0.0,0.0,1.183,0.09,16.44,66.62,1.58,16.88,75.06,3.08,21.71,87.45,1.14,18.81,76.2,1.23,19.6,86.04,1.49,16.52,74.79,-0.04,17.05,67.67,1.4,18.29,76.1,2.64,25.36,90.23,1.11,19.02,76.34,1.44,22.47,87.52,1.57,19.12,76.16,-0.0013,0.7645,0.0314,0.0399,0.787,0.1305,0.0755,0.9156,0.2969,0.0318,0.8004,0.1334,0.0411,0.863,0.2649,0.045,0.8021,0.1313,0.006,0.013,0.026,0.006,0.045,0.065,0.006,0.741,0.234,0.0,0.0,0.006,0.006,0.526,0.156,0.0,0.163,0.045,0.0,0.2807,1.1582,0.0322,0.2869,1.307,0.0568,0.3774,1.5156,0.0184,0.3221,1.3269,0.0245,0.3405,1.5002,0.0245,0.2853,1.3008,-0.0003,0.0,0.0,-0.0,-0.0,0.0,-0.0,0.0,0.0,0.0,-0.0,-0.0057,-0.0,0.0,0.0,0.0,0.0,0.0,0.6839,0.2691,-0.0011,-0.0001,-0.0042,-0.0011,0.7644,0.0317,0.0397,0.7869,0.1308,0.0753,0.9158,0.2967,0.032,0.8003,0.1336,0.041,0.8632,0.2648,0.0445,0.8022,0.1317,0.0,0.0,0.0,0.0,0.0,0.0,0.0,0.0,0.0,,
4.52,run,7.74,6.04,0.82,0.36,-0.66,0.0,0.0,0.0,1.183,0.09,16.44,66.62,1.58,16.88,75.06,3.08,21.71,87.45,1.14,18.81,76.29,1.23,19.6,86.04,1.49,16.52,74.79,-0.04,17.05,67.68,1.39,18.28,76.1,2.64,25.36,90.23,1.12,19.02,76.34,1.44,22.47,87.52,1.57,19.12,76.17,-0.0012,0.7645,0.0315,0.0398,0.7869,0.1306,0.0755,0.9156,0.2968,0.0319,0.8004,0.1334,0.041,0.863,0.2649,0.0449,0.8021,0.1314,0.0,0.013,0.026,0.0,0.052,0.071,0.006,0.793,0.189,0.0,0.0,0.006,0.006,0.52,0.163,0.0,0.195,0.052,0.0,0.2807,1.1582,0.0322,0.2869,1.307,0.0568,0.3774,1.5156,0.0184,0.3221,1.3284,0.0245,0.3405,1.5002,0.0245,0.2853,1.3008,-0.0002,0.0,0.0,-0.0,-0.0,0.0,-0.0,0.0,0.0,0.0,-0.0,0.0017,-0.0,0.0,0.0,0.0,0.0,0.0,0.6845,0.2701,0.0037,0.0026,-0.0135,-0.0013,0.7645,0.0314,0.0399,0.787,0.1305,0.0755,0.9156,0.2969,0.0318,0.8004,0.1334,0.0411,0.863,0.2649,0.045,0.8021,0.1313,0.0,0.0,0.0,0.0,0.0,0.0,0.0,0.0,0.0,,
4.56,run,7.72,6.03,-0.21,-0.42,-0.56,0.0,0.0,0.0,1.183,0.18,16.44,66.62,1.58,16.88,75.06,3.08,21.71,87.45,1.14,18.81,76.2,1.23,19.6,86.04,1.49,16.52,74.79,-0.03,17.04,67.68,1.4,18.27,76.08,2.65,25.33,90.22,1.12,19.01,76.32,1.44,22.43,87.52,1.58,19.11,76.16,-0.001,0.7643,0.0315,0.0399,0.7868,0.1304,0.0757,0.9151,0.2967,0.032,0.8003,0.1332,0.0413,0.8624,0.2649,0.0452,0.8021,0.1313,0.0,0.013,0.026,0.0,0.052,0.071,0.006,0.793,0.189,0.0,0.0,0.006,0.006,0.52,0.163,0.0,0.195,0.052,0.0,0.2807,1.1582,0.0322,0.2869,1.307,0.0568,0.3774,1.5156,0.0184,0.3221,1.33,0.0245,0.3405,1.5002,0.0245,0.2853,1.3008,-0.0002,0.0,0.0,-0.0,-0.0,0.0,-0.0,0.0,0.0,0.0,-0.0,0.007,-0.0,0.0,0.0,0.0,0.0,0.0,0.6866,0.2699,0.0143,0.0063,-0.0115,-0.0012,0.7645,0.0315,0.0398,0.7869,0.1306,0.0755,0.9156,0.2968,0.0319,0.8004,0.1334,0.041,0.863,0.2649,0.0449,0.8021,0.1314,0.0,0.0,0.0,0.0,0.0,0.0,0.0,0.0,0.0,,
4.6,run,7.72,6.04,0.26,0.24,-1.58,0.0,0.0,0.0,1.183,0.09,16.44,66.62,1.58,16.88,75.06,3.08,21.71,87.45,1.14,18.81,76.11,1.23,19.6,86.04,1.49,16.52,74.79,-0.05,17.04,67.68,1.39,18.28,76.1,2.64,25.36,90.24,1.11,19.02,76.34,1.43,22.47,87.51,1.57,19.12,76.18,-0.0013,0.7644,0.0316,0.0398,0.787,0.1306,0.0753,0.9156,0.2969,0.0318,0.8004,0.1334,0.0409,0.8631,0.2648,0.0447,0.8022,0.1315,0.0,0.013,0.026,0.0,0.052,0.071,0.006,0.793,0.189,0.0,0.0,0.006,0.006,0.52,0.163,0.0,0.195,0.052,0.0015,0.2807,1.1582,0.0322,0.2869,1.307,0.0568,0.3774,1.5156,0.0184,0.3221,1.3284,0.0245,0.3405,1.5002,0.0245,0.2853,1.3008,0.0047,0.0,0.0,-0.0,-0.0,0.0,-0.0,0.0,0.0,0.0,-0.0,0.0001,-0.0,0.0,0.0,0.0,0.0,0.0,0.6843,0.269,-0.0036,-0.0073,-0.0098,-0.001,0.7643,0.0315,0.0399,0.7868,0.1304,0.0757,0.9151,0.2967,0.032,0.8003,0.1332,0.0413,0.8624,0.2649,0.0452,0.8021,0.1313,0.0,0.0,0.0,0.0,0.0,0.0,0.0,0.0,0.0,,
4.64,run,7.73,6.05,0.21,0.2,0.67,0.0,0.0,0.0,1.183,0.0,16.44,66.62,1.58,16.88,75.06,3.08,21.71,87.45,1.14,18.81,76.2,1.23,19.6,86.04,1.49,16.52,74.79,-0.04,17.05,67.68,1.39,18.28,76.13,2.63,25.39,90.22,1.12,19.02,76.38,1.43,22.49,87.51,1.56,19.12,76.2,-0.0012,0.7646,0.0316,0.0398,0.7869,0.1309,0.0753,0.9161,0.2967,0.0319,0.8004,0.1338,0.0409,0.8635,0.2648,0.0446,0.8021,0.1317,0.0,0.013,0.026,0.0,0.052,0.078,0.006,0.696,0.195,0.0,0.006,0.0,0.006,0.507,0.169,0.0,0.214,0.052,0.0,0.2807,1.1582,0.0322,0.2869,1.307,0.0568,0.3774,1.5156,0.0184,0.3221,1.3269,0.0245,0.3405,1.5002,0.0245,0.2853,1.3008,-0.0024,0.0,0.0,-0.0,-0.0,0.0,-0.0,0.0,0.0,0.0,-0.0,-0.0057,-0.0,0.0,0.0,0.0,0.0,0.0,0.6847,0.2697,0.0045,0.0042,-0.0275,-0.0013,0.7644,0.0316,0.0398,0.787,0.1306,0.0753,0.9156,0.2969,0.0318,0.8004,0.1334,0.0409,0.8631,0.2648,0.0447,0.8022,0.1315,0.0,0.0,0.0,0.0,0.0,0.0,0.0,0.0,0.0,,
4.68,run,7.75,6.05,0.83,0.27,-1.49,0.0,0.0,0.0,1.183,0.09,16.44,66.62,1.58,16.88,75.06,3.08,21.71,87.45,1.14,18.81,76.29,1.23,19.6,86.04,1.49,16.52,74.79,-0.04,17.04,67.67,1.4,18.29,76.06,2.66,25.32,90.24,1.11,19.03,76.29,1.45,22.43,87.54,1.6,19.12,76.12,-0.0012,0.7644,0.0314,0.04,0.787,0.1301,0.076,0.9149,0.297,0.0318,0.8005,0.1329,0.0414,0.8624,0.2652,0.0457,0.8021,0.1309,0.0,0.013,0.026,0.0,0.052,0.078,0.006,0.696,0.195,0.0,0.006,0.0,0.006,0.507,0.169,0.0,0.214,0.052,-0.0015,0.2807,1.1582,0.0322,0.2869,1.307,0.0568,0.3774,1.5156,0.0184,0.3221,1.3284,0.0245,0.3405,1.5002,0.0245,0.2853,1.3008,-0.0074,0.0,0.0,-0.0,-0.0,0.0,-0.0,0.0,0.0,0.0,-0.0,0.0018,-0.0,0.0,0.0,0.0,0.0,0.0,0.6857,0.2708,0.0037,0.0035,0.0118,-0.0012,0.7646,0.0316,0.0398,0.7869,0.1309,0.0753,0.9161,0.2967,0.0319,0.8004,0.1338,0.0409,0.8635,0.2648,0.0446,0.8021,0.1317,0.0,0.0,0.0,0.0,0.0,0.0,0.0,0.0,0.0,,
4.72,run,7.73,6.03,-0.11,-0.52,-0.09,0.0,0.0,0.0,1.183,0.09,16.44,66.62,1.58,16.88,75.06,3.08,21.71,87.45,1.14,18.81,76.11,1.23,19.6,86.04,1.49,16.52,74.79,-0.03,17.04,67.7,1.39,18.27,76.11,2.64,25.36,90.22,1.12,19.01,76.35,1.44,22.46,87.51,1.57,19.11,76.19,-0.001,0.7644,0.0317,0.0398,0.7868,0.1307,0.0755,0.9156,0.2967,0.032,0.8003,0.1335,0.0411,0.8629,0.2648,0.0448,0.8021,0.1316,0.0,0.013,0.026,0.0,0.052,0.078,0.006,0.696,0.195,0.0,0.006,0.0,0.006,0.507,0.169,0.0,0.214,0.052,0.0,0.2807,1.1582,0.0322,0.2869,1.307,0.0568,0.3774,1.5156,0.0184,0.3221,1.33,0.0245,0.3405,1.5002,0.0245,0.2853,1.3008,0.0005,0.0,0.0,-0.0,-0.0,0.0,-0.0,0.0,0.0,0.0,-0.0,0.007,-0.0,0.0,0.0,0.0,0.0,0.0,0.6873,0.2708,0.0144,0.0047,-0.0259,-0.0012,0.7644,0.0314,0.04,0.787,0.1301,0.076,0.9149,0.297,0.0318,0.8005,0.1329,0.0414,0.8624,0.2652,0.0457,0.8021,0.1309,0.0,0.0,0.0,0.0,0.0,0.0,0.0,0.0,0.0,,
4.76,run,7.73,6.04,-0.01,-0.06,-1.01,0.0,0.0,0.0,1.183,0.09,16.44,66.62,1.58,16.88,75.06,3.08,21.71,87.45,1.14,18.81,76.29,1.23,19.6,86.04,1.49,16.52,74.79,-0.04,17.04,67.68,1.39,18.29,76.09,2.64,25.36,90.24,1.11,19.02,76.33,1.44,22.46,87.52,1.57,19.12,76.16,-0.0013,0.7644,0.0315,0.0398,0.787,0.1305,0.0755,0.9155,0.2969,0.0318,0.8005,0.1333,0.0412,0.863,0.265,0.045,0.8022,0.1313,0.013,0.013,0.026,0.006,0.052,0.065,0.013,0.682,0.234,0.0,0.0,0.0,0.006,0.52,0.156,0.0,0.24,0.052,0.0,0.2807,1.1582,0.0322,0.2869,1.307,0.0568,0.3774,1.5156,0.0184,0.3221,1.3269,0.0245,0.3405,1.5002,0.0245,0.2853,1.3008,0.0004,0.0,0.0,-0.0,-0.0,0.0,-0.0,0.0,0.0,0.0,-0.0,-0.0066,-0.0,0.0,0.0,0.0,0.0,0.0,0.6855,0.2687,-0.0019,-0.0091,-0.0016,-0.001,0.7644,0.0317,0.0398,0.7868,0.1307,0.0755,0.9156,0.2967,0.032,0.8003,0.1335,0.0411,0.8629,0.2648,0.0448,0.8021,0.1316,0.0,0.0,0.0,0.0,0.0,0.0,0.0,0.0,0.0,,
4.8,run,7.76,6.05,0.77,0.7,-0.64,0.0,0.0,0.0,1.183,0.0,16.44,66.62,1.58,16.88,75.06,3.08,21.71,87.45,1.14,18.81,76.2,1.23,19.6,86.04,1.49,16.52,74.79,-0.04,17.04,67.69,1.39,18.28,76.1,2.64,25.36,90.23,1.12,19.02,76.33,1.43,22.47,87.51,1.57,19.12,76.18,-0.0012,0.7644,0.0316,0.0398,0.7869,0.1306,0.0754,0.9156,0.2968,0.0319,0.8004,0.1333,0.041,0.8631,0.2648,0.0448,0.8022,0.1315,0.013,0.013,0.026,0.006,0.052,0.065,0.013,0.682,0.234,0.0,0.0,0.0,0.006,0.52,0.156,0.0,0.24,0.052,0.0,0.2807,1.1582,0.0322,0.2869,1.307,0.0568,0.3774,1.5156,0.0184,0.3221,1.33,0.0245,0.3405,1.5002,0.0245,0.2853,1.3008,0.0003,0.0,0.0,-0.0,-0.0,0.0,-0.0,0.0,0.0,0.0,-0.0,0.0069,-0.0,0.0,0.0,0.0,0.0,0.0,0.6854,0.2697,-0.0001,-0.0011,-0.0177,-0.0013,0.7644,0.0315,0.0398,0.787,0.1305,0.0755,0.9155,0.2969,0.0318,0.8005,0.1333,0.0412,0.863,0.265,0.045,0.8022,0.1313,0.0,0.0,0.0,0.0,0.0,0.0,0.0,0.0,0.0,,
4.84,run,7.77,6.05,0.61,0.0,0.16,0.0,0.0,0.0,1.183,0.09,16.44,66.62,1.58,16.88,75.06,3.08,21.71,87.45,1.14,18.81,76.2,1.23,19.6,86.04,1.49,16.52,74.79,-0.03,17.05,67.68,1.4,18.28,76.09,2.66,25.34,90.22,1.12,19.02,76.33,1.45,22.44,87.53,1.59,19.11,76.16,-0.0009,0.7645,0.0315,0.04,0.7868,0.1305,0.0759,0.9153,0.2968,0.032,0.8003,0.1333,0.0413,0.8626,0.2651,0.0454,0.802,0.1313,0.013,0.013,0.026,0.006,0.052,0.065,0.013,0.682,0.234,0.0,0.0,0.0,0.006,0.52,0.156,0.0,0.24,0.052,-0.0015,0.2807,1.1582,0.0322,0.2869,1.307,0.0568,0.3774,1.5156,0.0184,0.3221,1.3284,0.0245,0.3405,1.5002,0.0245,0.2853,1.3008,-0.0053,0.0,0.0,-0.0,-0.0,0.0,-0.0,0.0,0.0,0.0,-0.0,-0.0007,-0.0,0.0,0.0,0.0,0.0,0.0,0.6882,0.271,0.0135,0.0122,-0.0111,-0.0012,0.7644,0.0316,0.0398,0.7869,0.1306,0.0754,0.9156,0.2968,0.0319,0.8004,0.1333,0.041,0.8631,0.2648,0.0448,0.8022,0.1315,0.0,0.0,0.0,0.0,0.0,0.0,0.0,0.0,0.0,,
4.88,run,7.78,6.04,0.44,-0.09,-1.52,0.0,0.0,0.0,1.183,0.09,16.44,66.62,1.58,16.88,75.06,3.08,21.71,87.45,1.14,18.81,76.11,1.23,19.6,86.04,1.49,16.52,74.79,-0.04,17.04,67.69,1.4,18.28,76.08,2.66,25.32,90.24,1.12,19.02,76.32,1.45,22.43,87.53,1.59,19.11,76.15,-0.001,0.7643,0.0316,0.0399,0.7869,0.1303,0.0759,0.915,0.2969,0.0319,0.8003,0.1331,0.0414,0.8623,0.2651,0.0456,0.8021,0.1312,0.0,0.019,0.033,0.0,0.058,0.084,0.013,0.65,0.175,0.0,0.006,0.0,0.006,0.487,0.123,0.0,0.221,0.052,0.0,0.2807,1.1582,0.0322,0.2869,1.307,0.0568,0.3774,1.5156,0.0184,0.3221,1.3284,0.0245,0.3405,1.5002,0.0245,0.2853,1.3008,0.0024,0.0,0.0,-0.0,-0.0,0.0,-0.0,0.0,0.0,0.0,-0.0,-0.0005,-0.0,0.0,0.0,0.0,0.0,0.0,0.689,0.2712,0.0107,0.0001,0.0028,-0.0009,0.7645,0.0315,0.04,0.7868,0.1305,0.0759,0.9153,0.2968,0.032,0.8003,0.1333,0.0413,0.8626,0.2651,0.0454,0.802,0.1313,0.0,0.0,0.0,0.0,0.0,0.0,0.0,0.0,0.0,,
4.92,run,7.78,6.06,0.0,-0.02,0.16,0.0,0.0,0.0,1.183,0.09,16.44,66.62,1.58,16.88,75.06,3.08,21.71,87.45,1.14,18.81,76.2,1.23,19.6,86.04,1.49,16.52,74.79,-0.04,17.05,67.7,1.39,18.28,76.13,2.64,25.38,90.22,1.12,19.02,76.38,1.44,22.48,87.52,1.57,19.12,76.2,-0.001,0.7645,0.0317,0.0397,0.7869,0.1309,0.0755,0.916,0.2967,0.0319,0.8003,0.1338,0.0411,0.8633,0.2649,0.0448,0.8021,0.1318,0.0,0.019,0.033,0.0,0.058,0.084,0.013,0.65,0.175,0.0,0.006,0.0,0.006,0.487,0.123,0.0,0.221,0.052,0.0,0.2807,1.1582,0.0322,0.2869,1.307,0.0568,0.3774,1.5156,0.0184,0.3221,1.3269,0.0245,0.3405,1.5002,0.0245,0.2853,1.3008,0.0017,0.0,0.0,-0.0,-0.0,0.0,-0.0,0.0,0.0,0.0,-0.0,-0.006,-0.0,0.0,0.0,0.0,0.0,0.0,0.6894,0.2702,0.0076,-0.0015,-0.0265,-0.001,0.7643,0.0316,0.0399,0.7869,0.1303,0.0759,0.915,0.2969,0.0319,0.8003,0.1331,0.0414,0.8623,0.2651,0.0456,0.8021,0.1312,0.0,0.0,0.0,0.0,0.0,0.0,0.0,0.0,0.0,,
4.96,run,7.79,6.06,0.56,0.34,-0.98,0.0,0.0,0.0,1.183,0.09,16.44,66.62,1.58,16.88,75.06,3.08,21.71,87.45,1.14,18.81,76.2,1.23,19.6,86.04,1.49,16.52,74.79,-0.04,17.04,67.68,1.4,18.29,76.07,2.66,25.33,90.25,1.11,19.02,76.31,1.45,22.44,87.54,1.6,19.12,76.15,-0.0011,0.7643,0.0315,0.04,0.7871,0.1303,0.0759,0.9152,0.297,0.0318,0.8004,0.1331,0.0414,0.8626,0.2651,0.0456,0.8022,0.1311,0.0,0.019,0.033,0.0,0.058,0.084,0.013,0.65,0.175,0.0,0.006,0.0,0.006,0.487,0.123,0.0,0.221,0.052,0.0,0.2807,1.1582,0.0322,0.2869,1.307,0.0568,0.3774,1.5156,0.0184,0.3221,1.3284,0.0245,0.3405,1.5002,0.0245,0.2853,1.3008,0.0012,0.0,0.0,-0.0,-0.0,0.0,-0.0,0.0,0.0,0.0,-0.0,0.0016,-0.0,0.0,0.0,0.0,0.0,0.0,0.6894,0.2712,0.0,-0.0003,0.0028,-0.001,0.7645,0.0317,0.0397,0.7869,0.1309,0.0755,0.916,0.2967,0.0319,0.8003,0.1338,0.0411,0.8633,0.2649,0.0448,0.8021,0.1318,0.0,0.0,0.0,0.0,0.0,0.0,0.0,0.0,0.0,,
5.0,run,7.79,6.05,0.32,-0.17,-0.41,0.0,0.0,0.0,1.183,0.09,16.44,66.62,1.58,16.88,75.06,3.08,21.71,87.45,1.14,18.81,76.2,1.23,19.6,86.04,1.49,16.52,74.79,-0.03,17.04,67.69,1.39,18.28,76.1,2.65,25.35,90.23,1.12,19.02,76.35,1.44,22.45,87.53,1.59,19.11,76.18,-0.001,0.7644,0.0317,0.0398,0.7869,0.1306,0.0758,0.9155,0.2968,0.0319,0.8003,0.1335,0.0412,0.8628,0.265,0.0453,0.8021,0.1315,0.0,0.013,0.026,0.0,0.052,0.071,0.0,0.747,0.227,0.0,0.0,0.006,0.006,0.474,0.156,0.0,0.169,0.058,0.0,0.2807,1.1582,0.0322,0.2869,1.307,0.0568,0.3774,1.5156,0.0184,0.3221,1.3284,0.0245,0.3405,1.5002,0.0245,0.2853,1.3008,0.0008,0.0,0.0,-0.0,-0.0,0.0,-0.0,0.0,0.0,0.0,-0.0,0.0011,-0.0,0.0,0.0,0.0,0.0,0.0,0.6907,0.272,0.0097,0.0059,-0.0171,-0.0011,0.7643,0.0315,0.04,0.7871,0.1303,0.0759,0.9152,0.297,0.0318,0.8004,0.1331,0.0414,0.8626,0.2651,0.0456,0.8022,0.1311,0.0,0.0,0.0,0.0,0.0,0.0,0.0,0.0,0.0,,
5.04,run,7.78,6.04,-0.06,-0.41,-0.52,0.7,0.0,0.0,1.183,0.09,16.44,66.62,1.58,16.88,75.06,3.08,21.71,87.45,1.14,18.81,76.2,1.23,19.6,86.04,1.49,16.52,74.79,-0.09,17.01,67.44,1.39,18.26,75.85,2.64,25.2,90.19,1.18,19.0,76.07,1.4,22.35,87.38,1.55,19.1,76.05,-0.0026,0.7639,0.0288,0.0397,0.7865,0.1276,0.0755,0.9127,0.2963,0.0336,0.8,0.1302,0.04,0.8609,0.2633,0.0444,0.8018,0.13,0.0,0.013,0.026,0.0,0.052,0.071,0.0,0.747,0.227,0.0,0.0,0.006,0.006,0.474,0.156,0.0,0.169,0.058,0.0,0.2807,1.1582,0.0322,0.2869,1.307,0.0568,0.3774,1.5156,0.0184,0.3221,1.3284,0.0245,0.3405,1.5002,0.0245,0.2853,1.3008,0.0006,0.0,0.0,-0.0,-0.0,0.0,-0.0,0.0,0.0,0.0,-0.0,0.0008,-0.0,0.0,0.0,0.0,0.0,0.0,0.6905,0.2704,0.0056,-0.003,-0.0071,-0.001,0.7644,0.0317,0.0398,0.7869,0.1306,0.0758,0.9155,0.2968,0.0319,0.8003,0.1335,0.0412,0.8628,0.265,0.0453,0.8021,0.1315,0.0,0.0,0.0148,0.0,0.0,0.0,0.0,0.0,0.0,,
5.08,run,7.78,6.05,0.35,0.23,-1.41,1.5,0.0,0.0,1.183,0.0,16.44,66.62,1.58,16.88,75.06,3.08,21.71,87.45,1.14,18.81,76.03,1.23,19.6,86.04,1.49,16.52,74.79,-0.15,16.98,67.21,1.38,18.22,75.63,2.63,25.05,90.14,1.23,18.98,75.84,1.34,22.26,87.22,1.5,19.07,75.97,-0.0042,0.7633,0.026,0.0395,0.7858,0.1251,0.075,0.91,0.2958,0.0353,0.7996,0.1275,0.0384,0.8593,0.2614,0.043,0.8013,0.129,0.0,0.013,0.026,0.0,0.052,0.071,0.0,0.747,0.227,0.0,0.0,0.006,0.006,0.474,0.156,0.0,0.169,0.058,0.0,0.2807,1.1582,0.0322,0.2869,1.307,0.0568,0.3774,1.5156,0.0184,0.3221,1.3284,0.0245,0.3405,1.5002,0.0245,0.2853,1.3008,0.0004,0.0,0.0,-0.0,-0.0,0.0,-0.0,0.0,0.0,0.0,-0.0,0.0005,-0.0,0.0,0.0,0.0,0.0,0.0,0.6894,0.2697,-0.0011,-0.0071,-0.0091,-0.0026,0.7639,0.0288,0.0397,0.7865,0.1276,0.0755,0.9127,0.2963,0.0336,0.8,0.1302,0.04,0.8609,0.2633,0.0444,0.8018,0.13,0.0,0.0,0.0296,0.0,0.0,0.0,0.0,0.0,0.0,,
5.12,run,7.79,6.07,0.34,0.67,0.29,2.2,0.0,0.0,1.183,-0.09,16.44,66.62,1.58,16.88,75.06,3.08,21.71,87.45,1.14,18.81,76.03,1.23,19.6,86.04,1.49,16.52,74.79,-0.19,16.97,66.98,1.38,18.18,75.45,2.61,24.93,90.07,1.29,18.95,75.66,1.29,22.2,87.09,1.46,19.04,75.91,-0.0055,0.7631,0.0233,0.0393,0.7851,0.123,0.0747,0.9078,0.2949,0.0369,0.799,0.1254,0.037,0.8581,0.2599,0.0417,0.8007,0.1283,0.0,0.013,0.006,0.006,0.045,0.006,0.006,0.637,0.156,0.006,0.0,0.006,0.006,0.396,0.065,0.0,0.182,0.033,-0.0015,0.2807,1.1582,0.0322,0.2869,1.307,0.0568,0.3774,1.5156,0.0184,0.3221,1.3254,0.0245,0.3405,1.5002,0.0245,0.2853,1.3008,-0.0055,0.0,0.0,-0.0,-0.0,0.0,-0.0,0.0,0.0,0.0,-0.0,-0.0111,-0.0,0.0,0.0,0.0,0.0,0.0,0.69,0.2703,0.0061,0.0041,-0.0246,-0.0042,0.7633,0.026,0.0395,0.7858,0.1251,0.075,0.91,0.2958,0.0353,0.7996,0.1275,0.0384,0.8593,0.2614,0.043,0.8013,0.129,0.0,0.0,0.0444,0.0,0.0,0.0,0.0,0.0,0.0,,
5.16,run,7.79,6.07,0.17,0.19,-0.68,3.0,0.0,0.0,1.183,0.0,16.44,66.62,1.58,16.88,75.06,3.08,21.71,87.45,1.23,18.81,75.76,1.14,19.6,86.04,1.49,16.52,74.79,-0.23,16.95,66.75,1.38,18.15,75.21,2.63,24.74,90.03,1.34,18.93,75.4,1.27,22.07,87.0,1.46,19.01,75.78,-0.0067,0.7628,0.0206,0.0394,0.7846,0.1201,0.0752,0.9043,0.2945,0.0382,0.7987,0.1223,0.0362,0.8559,0.2589,0.0418,0.8001,0.1268,0.0,0.013,0.006,0.006,0.045,0.006,0.006,0.637,0.156,0.006,0.0,0.006,0.006,0.396,0.065,0.0,0.182,0.033,-0.0031,0.2807,1.1582,0.0322,0.2869,1.307,0.0568,0.3774,1.5156,0.0184,0.3221,1.3254,0.0245,0.3405,1.5002,0.0245,0.2853,1.3008,-0.0096,0.0,0.0,-0.0,-0.0,0.0,-0.0,0.0,0.0,0.0,-0.0,-0.0078,-0.0,0.0,0.0,0.0,0.0,0.0,0.6908,0.2725,0.0059,0.0117,0.0051,-0.0055,0.7631,0.0233,0.0393,0.7851,0.123,0.0747,0.9078,0.2949,0.0369,0.799,0.1254,0.037,0.8581,0.2599,0.0417,0.8007,0.1283,0.0,0.0,0.0592,0.0,0.0,0.0,0.0,0.0,0.0,,
