t_s,phase,roll_deg,pitch_deg,gyro_x_dps,gyro_y_dps,gyro_z_dps,height_ref_mm,vx_ref_mps,vy_ref_mps,max_cur_a,q0_deg,q1_deg,q2_deg,q3_deg,q4_deg,q5_deg,q6_deg,q7_deg,q8_deg,q9_deg,q10_deg,q11_deg,q12_deg,q13_deg,q14_deg,q15_deg,q16_deg,q17_deg,cmd0_deg,cmd1_deg,cmd2_deg,cmd3_deg,cmd4_deg,cmd5_deg,cmd6_deg,cmd7_deg,cmd8_deg,cmd9_deg,cmd10_deg,cmd11_deg,cmd12_deg,cmd13_deg,cmd14_deg,cmd15_deg,cmd16_deg,cmd17_deg,act0,act1,act2,act3,act4,act5,act6,act7,act8,act9,act10,act11,act12,act13,act14,act15,act16,act17,cur0_a,cur1_a,cur2_a,cur3_a,cur4_a,cur5_a,cur6_a,cur7_a,cur8_a,cur9_a,cur10_a,cur11_a,cur12_a,cur13_a,cur14_a,cur15_a,cur16_a,cur17_a,obs0,obs1,obs2,obs3,obs4,obs5,obs6,obs7,obs8,obs9,obs10,obs11,obs12,obs13,obs14,obs15,obs16,obs17,obs18,obs19,obs20,obs21,obs22,obs23,obs24,obs25,obs26,obs27,obs28,obs29,obs30,obs31,obs32,obs33,obs34,obs35,obs36,obs37,obs38,obs39,obs40,obs41,obs42,obs43,obs44,obs45,obs46,obs47,obs48,obs49,obs50,obs51,obs52,obs53,obs54,obs55,obs56,obs57,obs58,obs59,obs60,obs61,obs62,obs63,obs64,obs65,obs66,obs67,obs68,obs69,obs70,obs71,rot60_k,mirror
0.0,run,6.71,3.13,-0.55,0.19,-0.4,0.0,0.0,0.0,0.033,0.0,20.21,69.61,0.35,20.13,69.08,0.35,20.13,69.96,0.09,21.09,69.17,0.0,20.48,69.79,-0.09,20.13,69.26,-1.5,18.89,68.02,-1.15,18.63,70.58,1.85,18.89,71.29,1.59,19.59,70.67,-1.5,19.15,68.02,-1.59,18.8,70.58,-1.0,-1.0,-0.5122,-1.0,-1.0,1.0,1.0,-1.0,1.0,1.0,-1.0,1.0,-0.0469,-1.0,-0.5547,-1.0,-1.0,1.0,0.013,0.0,0.006,0.006,0.0,0.013,0.0,0.0,0.006,0.006,0.006,0.013,0.013,0.006,0.033,0.006,0.0,0.0,0.0,-0.0031,0.0015,0.0,0.0,0.0,0.0,-0.0046,0.0,0.0,0.0,0.0,0.0,-0.0015,0.0046,0.0,-0.0031,0.0031,0.0,-0.0075,0.0037,0.0,0.0,0.0,0.0,-0.0112,0.0,0.0,0.0,0.0,0.0,-0.0032,0.0112,0.0,-0.0075,0.0075,0.0,0.0,0.0003,0.0091,0.0359,0.0,0.0,0.0,0.0,0.0,0.0,0.0,0.0,0.0,0.0,0.0,0.0,0.0,0.0,0.0,0.0,0.0,0.0,0.0,0.0,0.0,0.0,0.0,0.0,0.0,0.0,0.0,0.0,0.0,0.0,0.0,0,
0.04,run,6.67,3.12,-0.43,-0.13,0.91,0.0,0.0,0.0,0.033,-0.09,20.13,69.61,0.26,19.78,69.08,0.35,19.86,70.05,0.09,21.09,69.35,-0.35,20.13,69.79,-0.35,20.04,69.26,-3.0,20.39,69.52,-2.65,17.13,72.08,0.35,17.39,69.79,3.09,18.09,72.17,-3.0,17.65,69.52,-3.09,17.3,72.08,-1.0,1.0,1.0,-1.0,-1.0,1.0,-1.0,-1.0,-1.0,1.0,-1.0,1.0,-1.0,0.1093,1.0,-1.0,-1.0,1.0,0.013,0.0,0.006,0.006,0.0,0.013,0.0,0.0,0.006,0.006,0.006,0.013,0.013,0.006,0.033,0.006,0.0,0.0,0.0,-0.0031,0.0015,0.0,0.0,0.0,0.0,-0.0046,0.0031,0.0,0.0,0.0,0.0,-0.0031,0.0046,0.0,-0.0031,0.0031,0.0,-0.0052,0.0026,0.0,0.0,0.0,0.0,-0.0079,0.005,0.0,0.0,0.0,0.0,-0.0047,0.0079,0.0,-0.0052,0.0052,-0.0041,0.0005,-0.0096,0.0033,-0.007,-1.0,-1.0,-0.5122,-1.0,-1.0,1.0,1.0,-1.0,1.0,1.0,-1.0,1.0,-0.0469,-1.0,-0.5547,-1.0,-1.0,1.0,0.0,0.0,0.0,0.0,0.0,0.0,0.0,0.0,0.0,0.0,0.0,0.0,0.0,0,
0.08,run,6.64,3.07,-0.65,-2.38,-1.02,0.0,0.0,0.0,0.033,-1.05,19.69,69.26,-0.18,19.16,69.79,0.44,19.16,70.58,1.05,20.57,70.14,-1.05,19.51,69.52,-1.23,19.42,69.43,-1.5,18.89,71.02,-4.15,15.63,73.58,-1.15,18.89,71.29,4.59,16.59,73.67,-4.5,19.15,71.02,-4.59,15.8,73.58,0.2223,0.5243,0.3801,-1.0,-1.0,1.0,-1.0,1.0,1.0,1.0,-1.0,1.0,-1.0,1.0,1.0,-1.0,-1.0,1.0,0.013,0.0,0.006,0.006,0.0,0.013,0.0,0.0,0.006,0.006,0.006,0.013,0.013,0.006,0.033,0.006,0.0,0.0,-0.0015,-0.0046,0.0015,-0.0015,-0.0061,0.0,0.0,-0.0092,0.0046,0.0,0.0,0.0031,-0.0061,-0.0092,0.0046,-0.0046,-0.0046,0.0031,-0.0058,-0.0094,0.0018,-0.0058,-0.023,0.0,0.0,-0.0227,0.0093,0.0,0.0,0.0115,-0.023,-0.0263,0.0055,-0.0173,-0.0094,0.0037,-0.0071,-0.0003,-0.0076,-0.0022,0.0159,-1.0,1.0,1.0,-1.0,-1.0,1.0,-1.0,-1.0,-1.0,1.0,-1.0,1.0,-1.0,0.1093,1.0,-1.0,-1.0,1.0,0.0,0.0,0.0,0.0,0.0,0.0,0.0,0.0,0.0,0.0,0.0,0.0,0.0,0,
0.12,run,6.6,3.24,-0.11,3.49,-9.76,0.0,0.0,0.0,0.033,-1.76,19.25,69.17,-0.97,18.28,70.75,0.88,18.54,71.1,2.02,19.78,71.1,-1.93,18.9,69.35,-2.11,18.63,70.4,-3.0,20.39,72.52,-5.65,14.13,75.08,-2.65,20.39,72.79,6.09,15.09,75.17,-3.0,17.65,69.52,-6.09,14.3,75.08,-1.0,1.0,0.4118,-1.0,-1.0,1.0,-1.0,1.0,1.0,1.0,-1.0,1.0,0.6454,0.5561,-1.0,-1.0,-1.0,1.0,0.006,0.0,0.006,0.019,0.0,0.033,0.006,0.0,0.0,0.019,0.026,0.013,0.013,0.0,0.019,0.019,0.006,0.013,-0.0184,-0.0123,-0.0046,-0.0092,-0.0169,0.0123,0.0015,-0.0215,0.0138,0.0169,-0.0092,0.0169,-0.0184,-0.0199,0.0,-0.0199,-0.0153,0.0061,-0.0669,-0.0352,-0.0216,-0.0326,-0.0561,0.0457,0.0057,-0.0617,0.0408,0.0629,-0.0343,0.0595,-0.0618,-0.0584,-0.0133,-0.0692,-0.0466,0.014,-0.0102,-0.0048,-0.0113,-0.0415,-0.0178,0.2223,0.5243,0.3801,-1.0,-1.0,1.0,-1.0,1.0,1.0,1.0,-1.0,1.0,-1.0,1.0,1.0,-1.0,-1.0,1.0,0.0,0.0,0.0,0.0,0.0,0.0,0.0,0.0,0.0,0.0,0.0,0.0,0.0,0,
0.16,run,6.69,3.1,2.92,-3.94,-13.01,0.0,0.0,0.0,0.033,-2.37,18.98,69.17,-2.02,17.23,72.07,0.88,18.28,71.46,3.16,18.54,72.25,-2.99,18.37,69.35,-3.43,17.67,71.54,-4.5,21.89,71.53,-7.15,12.63,76.58,-4.15,18.89,71.29,7.59,13.59,76.67,-1.5,19.15,71.02,-7.59,12.8,76.58,-1.0,1.0,0.0768,-1.0,-0.7383,1.0,-0.8646,0.3227,0.0471,1.0,-1.0,1.0,0.2321,1.0,1.0,-1.0,-1.0,1.0,0.006,0.0,0.006,0.019,0.0,0.033,0.006,0.0,0.0,0.019,0.026,0.013,0.013,0.0,0.019,0.019,0.006,0.013,-0.0307,-0.0199,-0.0061,-0.023,-0.0322,0.0291,0.0092,-0.0322,0.023,0.0337,-0.023,0.0337,-0.0337,-0.0307,-0.0031,-0.0353,-0.0291,0.023,-0.0926,-0.0532,-0.0208,-0.0744,-0.0965,0.095,0.0326,-0.0832,0.0629,0.107,-0.0755,0.1046,-0.1005,-0.081,-0.0208,-0.1057,-0.0841,0.0728,-0.0138,0.0105,-0.002,0.061,-0.1704,-1.0,1.0,0.4118,-1.0,-1.0,1.0,-1.0,1.0,1.0,1.0,-1.0,1.0,0.6454,0.5561,-1.0,-1.0,-1.0,1.0,0.0,0.0,0.0,0.0,0.0,0.0,0.0,0.0,0.0,0.0,0.0,0.0,0.0,0,
0.2,run,6.45,3.08,-3.88,-2.2,-12.27,0.0,0.0,0.0,0.033,-3.08,18.98,69.52,-3.34,15.91,73.3,0.88,18.19,71.98,4.48,17.4,73.56,-3.6,17.58,69.96,-4.48,16.88,72.77,-6.0,23.39,73.03,-8.65,11.13,78.08,-5.65,20.39,72.79,9.09,12.09,78.17,0.0,17.76,72.52,-9.09,11.3,78.08,-0.9259,0.9801,1.0,-1.0,-1.0,1.0,-1.0,1.0,1.0,1.0,-1.0,1.0,0.399,0.7775,0.6663,-1.0,-1.0,1.0,0.006,0.0,0.006,0.019,0.0,0.033,0.006,0.0,0.0,0.019,0.026,0.013,0.013,0.0,0.019,0.019,0.006,0.013,-0.0414,-0.0245,-0.0061,-0.0414,-0.0506,0.0522,0.0092,-0.0368,0.0291,0.0537,-0.0445,0.0537,-0.0522,-0.0399,-0.0031,-0.0583,-0.046,0.043,-0.1053,-0.0546,-0.0146,-0.1215,-0.137,0.1533,0.0228,-0.0756,0.0672,0.1501,-0.1339,0.1484,-0.1398,-0.0914,-0.0145,-0.1608,-0.1225,0.1261,-0.0053,-0.002,0.0509,-0.0688,-0.2271,-1.0,1.0,0.0768,-1.0,-0.7383,1.0,-0.8646,0.3227,0.0471,1.0,-1.0,1.0,0.2321,1.0,1.0,-1.0,-1.0,1.0,0.0,0.0,0.0,0.0,0.0,0.0,0.0,0.0,0.0,0.0,0.0,0.0,0.0,0,
0.24,run,6.59,3.25,3.21,4.46,-12.11,0.0,0.0,0.0,0.058,-3.78,19.16,70.31,-4.66,14.68,74.71,0.09,18.46,72.51,5.8,16.08,74.97,-3.96,17.4,70.93,-5.98,15.29,74.09,-7.5,21.89,71.53,-10.15,9.63,79.58,-7.15,21.89,74.29,10.59,10.59,79.67,1.5,16.26,71.02,-10.59,9.8,79.58,-1.0,0.4695,-0.124,-1.0,-0.4506,1.0,-1.0,1.0,1.0,1.0,-1.0,1.0,0.6779,0.2604,-1.0,-1.0,-1.0,1.0,0.0,0.033,0.0,0.019,0.006,0.019,0.026,0.058,0.0,0.013,0.019,0.006,0.0,0.006,0.0,0.013,0.013,0.019,-0.0537,-0.0245,0.0,-0.0644,-0.0736,0.0736,0.0092,-0.0383,0.0383,0.0767,-0.0644,0.0767,-0.0629,-0.0537,0.0077,-0.0767,-0.0598,0.0644,-0.1198,-0.0382,0.0128,-0.1715,-0.1823,0.188,0.016,-0.0587,0.0816,0.1915,-0.1686,0.1903,-0.1382,-0.1158,0.0302,-0.1817,-0.1376,0.169,-0.0269,-0.0037,-0.0677,-0.0384,-0.2142,-0.9259,0.9801,1.0,-1.0,-1.0,1.0,-1.0,1.0,1.0,1.0,-1.0,1.0,0.399,0.7775,0.6663,-1.0,-1.0,1.0,0.0,0.0,0.0,0.0,0.0,0.0,0.0,0.0,0.0,0.0,0.0,0.0,0.0,0,
0.28,run,6.42,3.53,-5.36,8.87,-14.58,0.0,0.0,0.0,0.058,-5.19,19.86,71.19,-6.15,13.45,76.11,-1.05,19.34,72.77,7.29,14.68,76.29,-3.87,17.4,71.54,-7.29,13.89,75.5,-9.0,23.39,73.03,-11.65,8.13,81.08,-8.65,20.39,72.79,12.09,9.09,81.17,0.0,17.76,72.52,-12.09,8.3,81.08,-1.0,1.0,0.7271,-1.0,-0.5722,1.0,-1.0,-1.0,-1.0,1.0,-1.0,1.0,-1.0,1.0,1.0,-1.0,-1.0,1.0,0.0,0.033,0.0,0.019,0.006,0.019,0.026,0.058,0.0,0.013,0.019,0.006,0.0,0.006,0.0,0.013,0.013,0.019,-0.066,-0.0215,0.0138,-0.0874,-0.0951,0.0982,-0.0046,-0.0337,0.0476,0.0997,-0.0874,0.1012,-0.069,-0.0568,0.0245,-0.1028,-0.0874,0.0874,-0.1299,-0.0153,0.0608,-0.2063,-0.2082,0.2236,-0.0406,-0.0238,0.0916,0.2203,-0.2043,0.2253,-0.1197,-0.0926,0.0844,-0.225,-0.1999,0.2046,-0.0146,0.0111,0.056,0.0779,-0.2114,-1.0,0.4695,-0.124,-1.0,-0.4506,1.0,-1.0,1.0,1.0,1.0,-1.0,1.0,0.6779,0.2604,-1.0,-1.0,-1.0,1.0,0.0,0.0,0.0,0.0,0.0,0.0,0.0,0.0,0.0,0.0,0.0,0.0,0.0,0,
0.32,run,6.3,3.5,-3.97,-0.1,-12.42,0.0,0.0,0.0,0.058,-6.33,20.3,71.98,-7.56,12.13,77.43,-2.29,20.13,73.39,8.61,13.27,77.7,-3.34,16.79,72.16,-8.61,12.39,76.9,-7.5,24.89,71.53,-13.15,6.63,79.58,-10.15,21.89,74.29,13.59,7.59,82.67,-1.5,16.26,74.02,-13.59,6.8,82.58,0.8926,0.9999,0.0213,-1.0,-0.7036,-0.9256,-1.0,1.0,1.0,1.0,-1.0,1.0,-1.0,0.0775,1.0,-1.0,-1.0,1.0,0.0,0.033,0.0,0.019,0.006,0.019,0.026,0.058,0.0,0.013,0.019,0.006,0.0,0.006,0.0,0.013,0.013,0.019,-0.0905,-0.0092,0.0291,-0.1135,-0.1166,0.1227,-0.0245,-0.0184,0.0522,0.1258,-0.112,0.1243,-0.0675,-0.0568,0.0353,-0.1258,-0.112,0.112,-0.1822,0.0349,0.0996,-0.2414,-0.2256,0.2478,-0.1025,0.0403,0.0813,0.2512,-0.2343,0.2432,-0.0781,-0.0648,0.099,-0.243,-0.2312,0.2344,-0.0289,0.0353,-0.0935,0.1548,-0.2544,-1.0,1.0,0.7271,-1.0,-0.5722,1.0,-1.0,-1.0,-1.0,1.0,-1.0,1.0,-1.0,1.0,1.0,-1.0,-1.0,1.0,0.0,0.0,0.0,0.0,0.0,0.0,0.0,0.0,0.0,0.0,0.0,0.0,0.0,0,
0.36,run,6.21,3.62,-3.6,3.69,-15.23,0.0,0.0,0.0,0.091,-7.47,21.01,72.51,-8.96,10.81,78.75,-3.52,20.57,73.92,9.93,11.95,79.1,-2.46,16.35,72.86,-10.11,11.07,78.31,-9.0,23.39,73.03,-14.65,5.13,81.08,-11.65,20.39,75.79,15.09,6.09,84.17,-3.0,17.76,72.52,-15.09,5.3,84.08,-1.0,-0.5958,0.4514,-1.0,-0.5019,1.0,-1.0,-0.423,1.0,1.0,-1.0,1.0,-1.0,1.0,-1.0,-1.0,-1.0,1.0,0.0,0.091,0.0,0.013,0.019,0.013,0.045,0.071,0.0,0.013,0.019,0.006,0.006,0.0,0.0,0.013,0.019,0.013,-0.1104,-0.0015,0.043,-0.1381,-0.1396,0.1457,-0.046,-0.0046,0.0629,0.1488,-0.1365,0.1488,-0.0583,-0.0675,0.046,-0.1488,-0.1381,0.1365,-0.2029,0.0535,0.1219,-0.2618,-0.2449,0.2605,-0.153,0.0805,0.0975,0.2629,-0.2568,0.2631,-0.0199,-0.086,0.1099,-0.2571,-0.2604,0.2569,-0.0396,0.0325,-0.0693,-0.0018,-0.2169,0.8926,0.9999,0.0213,-1.0,-0.7036,-0.9256,-1.0,1.0,1.0,1.0,-1.0,1.0,-1.0,0.0775,1.0,-1.0,-1.0,1.0,0.0,0.0,0.0,0.0,0.0,0.0,0.0,0.0,0.0,0.0,0.0,0.0,0.0,0,
0.4,run,6.07,3.56,-5.78,-1.84,-15.87,0.0,0.0,0.0,0.091,-8.35,21.8,72.77,-10.37,9.84,79.8,-4.92,20.74,74.27,11.43,10.46,80.51,-1.93,16.08,73.56,-11.51,9.67,79.8,-10.5,21.89,71.53,-16.15,6.63,82.58,-13.15,18.89,74.29,16.59,4.59,85.67,-4.5,16.26,74.02,-16.59,3.8,85.58,-1.0,0.461,-0.9191,-1.0,0.6034,1.0,-1.0,-1.0,-0.1246,1.0,-1.0,1.0,-1.0,0.1975,1.0,-1.0,-1.0,1.0,0.0,0.091,0.0,0.013,0.019,0.013,0.045,0.071,0.0,0.013,0.019,0.006,0.006,0.0,0.0,0.013,0.019,0.013,-0.1304,0.0107,0.0522,-0.1626,-0.1626,0.1687,-0.0675,0.0031,0.0721,0.1718,-0.1595,0.1733,-0.043,-0.0752,0.0583,-0.1749,-0.1611,0.1611,-0.2168,0.0834,0.1198,-0.2752,-0.2576,0.2685,-0.1876,0.0851,0.1027,0.2702,-0.266,0.2761,0.0436,-0.0889,0.1229,-0.2777,-0.2685,0.2718,-0.0479,0.0438,-0.0629,0.0644,-0.2659,-1.0,-0.5958,0.4514,-1.0,-0.5019,1.0,-1.0,-0.423,1.0,1.0,-1.0,1.0,-1.0,1.0,-1.0,-1.0,-1.0,1.0,0.0,0.0,0.0,0.0,0.0,0.0,0.0,0.0,0.0,0.0,0.0,0.0,0.0,0,
0.44,run,6.24,3.4,3.81,-5.11,-14.2,0.0,0.0,0.0,0.091,-8.96,22.41,72.86,-11.78,8.26,80.68,-6.24,20.74,74.88,12.74,9.05,81.91,-1.76,16.08,73.83,-12.92,8.35,81.3,-9.0,20.39,73.03,-17.65,5.13,81.08,-14.65,17.39,75.79,18.09,3.09,87.17,-6.0,14.76,75.52,-18.09,2.3,87.08,-0.0355,-0.2051,0.3286,-1.0,-0.7316,-1.0,-1.0,0.2226,0.3932,1.0,-1.0,1.0,-1.0,-0.9088,1.0,-1.0,-1.0,1.0,0.0,0.091,0.0,0.013,0.019,0.013,0.045,0.071,0.0,0.013,0.019,0.006,0.006,0.0,0.0,0.013,0.019,0.013,-0.1457,0.0245,0.0568,-0.1871,-0.1795,0.1871,-0.092,0.0061,0.0782,0.1979,-0.1856,0.1979,-0.0337,-0.0798,0.0706,-0.1994,-0.1856,0.1871,-0.2093,0.1102,0.1011,-0.2847,-0.2436,0.257,-0.2234,0.071,0.0949,0.287,-0.284,0.2853,0.065,-0.0795,0.1321,-0.2865,-0.28,0.2881,-0.06,0.0383,-0.1008,-0.0322,-0.2769,-1.0,0.461,-0.9191,-1.0,0.6034,1.0,-1.0,-1.0,-0.1246,1.0,-1.0,1.0,-1.0,0.1975,1.0,-1.0,-1.0,1.0,0.0,0.0,0.0,0.0,0.0,0.0,0.0,0.0,0.0,0.0,0.0,0.0,0.0,0,
0.48,run,6.16,3.34,-2.72,-1.9,-16.13,0.0,0.0,0.0,0.091,-9.67,22.76,72.86,-13.18,7.12,81.47,-7.65,20.39,75.23,14.24,7.65,83.32,-1.85,15.64,74.44,-14.33,7.03,82.53,-10.5,18.89,71.53,-19.15,3.63,82.58,-16.15,15.89,77.29,19.59,1.59,88.67,-7.5,16.26,77.02,-19.59,0.8,85.58,-1.0,-1.0,-0.1812,-1.0,-0.0483,0.9132,-1.0,-0.8307,1.0,1.0,-1.0,1.0,-1.0,1.0,1.0,-1.0,-1.0,-0.0487,0.013,0.058,0.006,0.019,0.019,0.006,0.045,0.0,0.006,0.013,0.026,0.006,0.013,0.0,0.006,0.013,0.033,0.0,-0.1565,0.0353,0.0583,-0.2117,-0.2071,0.2025,-0.115,0.0061,0.089,0.2209,-0.2102,0.2224,-0.0307,-0.0798,0.0752,-0.224,-0.2086,0.2132,-0.1868,0.1174,0.0766,-0.2914,-0.2742,0.2375,-0.2427,0.0497,0.1068,0.2873,-0.291,0.2919,0.057,-0.0557,0.1097,-0.2927,-0.2824,0.2996,-0.0453,0.024,0.0665,-0.0892,-0.2478,-0.0355,-0.2051,0.3286,-1.0,-0.7316,-1.0,-1.0,0.2226,0.3932,1.0,-1.0,1.0,-1.0,-0.9088,1.0,-1.0,-1.0,1.0,0.0,0.0,0.0,0.0,0.0,0.0,0.0,0.0,0.0,0.0,0.0,0.0,0.0,0,
0.52,run,6.38,3.04,3.59,-6.42,-10.3,0.0,0.0,0.0,0.091,-10.28,22.85,72.69,-15.21,5.71,82.35,-9.67,19.25,75.94,16.26,5.71,85.25,-3.08,15.29,75.67,-16.35,5.01,84.55,-12.0,17.39,70.03,-20.65,2.13,84.08,-17.65,14.39,78.79,21.09,0.09,90.17,-9.0,14.76,78.52,-21.09,-0.7,84.08,-1.0,-0.8312,-0.5933,-1.0,0.0755,0.5116,-1.0,0.5168,1.0,1.0,-1.0,1.0,-0.7063,-1.0,1.0,-1.0,-1.0,-0.1871,0.013,0.058,0.006,0.019,0.019,0.006,0.045,0.0,0.006,0.013,0.026,0.006,0.013,0.0,0.006,0.013,0.033,0.0,-0.1687,0.0414,0.0583,-0.2362,-0.227,0.2163,-0.1396,0.0,0.0951,0.247,-0.2347,0.247,-0.0322,-0.0874,0.0859,-0.2485,-0.2316,0.2347,-0.1765,0.1051,0.0536,-0.2955,-0.2663,0.2177,-0.2615,0.0119,0.0976,0.2983,-0.2952,0.2959,0.0342,-0.0676,0.1169,-0.2964,-0.2835,0.2898,-0.0523,0.019,-0.0474,-0.0331,-0.2815,-1.0,-1.0,-0.1812,-1.0,-0.0483,0.9132,-1.0,-0.8307,1.0,1.0,-1.0,1.0,-1.0,1.0,1.0,-1.0,-1.0,-0.0487,0.0,0.0,0.0,0.0,0.0,0.0,0.0,0.0,0.0,0.0,0.0,0.0,0.0,0,
0.56,run,6.6,2.74,5.57,-7.81,-13.07,0.0,0.0,0.0,0.091,-10.55,22.85,72.16,-16.52,4.83,82.53,-11.16,18.02,76.64,17.58,4.31,86.66,-3.6,15.47,76.38,-17.67,3.69,85.17,-13.5,15.89,71.53,-22.15,0.63,82.58,-19.15,12.89,80.29,22.59,-1.41,91.67,-10.5,13.26,80.02,-22.59,-2.2,82.58,-1.0,-1.0,0.2623,-1.0,-0.9471,-0.1438,-1.0,-1.0,1.0,1.0,-0.371,1.0,-1.0,0.3103,1.0,-0.7388,-1.0,-1.0,0.013,0.058,0.006,0.019,0.019,0.006,0.045,0.0,0.006,0.013,0.026,0.006,0.013,0.0,0.006,0.013,0.033,0.0,-0.1795,0.043,0.0552,-0.2715,-0.2516,0.2316,-0.1749,-0.0199,0.1074,0.2823,-0.2684,0.2807,-0.0537,-0.0936,0.1074,-0.2838,-0.2669,0.27,-0.1527,0.0777,0.0292,-0.3025,-0.253,0.194,-0.2787,-0.0457,0.1016,0.3045,-0.2981,0.2986,-0.0343,-0.0639,0.14,-0.3031,-0.2941,0.2985,-0.0331,-0.0074,0.0626,-0.112,-0.1798,-1.0,-0.8312,-0.5933,-1.0,0.0755,0.5116,-1.0,0.5168,1.0,1.0,-1.0,1.0,-0.7063,-1.0,1.0,-1.0,-1.0,-0.1871,0.0,0.0,0.0,0.0,0.0,0.0,0.0,0.0,0.0,0.0,0.0,0.0,0.0,0,
0.6,run,6.75,2.43,3.72,-8.32,-17.32,0.0,0.0,0.0,0.091,-11.25,22.5,71.54,-17.93,3.87,82.88,-12.66,16.52,77.43,18.9,2.99,88.07,-5.27,15.21,77.7,-19.07,2.29,86.31,-15.0,14.39,70.03,-23.65,-0.87,84.08,-20.65,14.39,81.79,24.09,0.09,90.17,-12.0,11.76,81.52,-21.09,-3.7,81.08,-1.0,-1.0,-0.2432,-1.0,-0.7898,1.0,-1.0,1.0,1.0,1.0,1.0,0.0008,-1.0,-0.0634,1.0,0.9173,-1.0,-1.0,0.006,0.0,0.0,0.013,0.026,0.0,0.039,0.0,0.006,0.019,0.019,0.006,0.006,0.0,0.0,0.013,0.026,0.0,-0.1841,0.043,0.046,-0.2945,-0.2669,0.2347,-0.201,-0.0414,0.1197,0.3053,-0.293,0.3053,-0.0629,-0.0905,0.1197,-0.3068,-0.2899,0.2807,-0.124,0.0544,-0.0137,-0.2972,-0.234,0.1472,-0.2919,-0.1118,0.1167,0.2986,-0.2998,0.3002,-0.0582,-0.0334,0.1436,-0.2976,-0.2913,0.2488,-0.0136,-0.0337,0.0973,-0.1362,-0.2282,-1.0,-1.0,0.2623,-1.0,-0.9471,-0.1438,-1.0,-1.0,1.0,1.0,-0.371,1.0,-1.0,0.3103,1.0,-0.7388,-1.0,-1.0,0.0,0.0,0.0,0.0,0.0,0.0,0.0,0.0,0.0,0.0,0.0,0.0,0.0,0,
0.64,run,7.12,2.41,8.89,-1.21,-19.51,0.0,0.0,0.0,0.091,-12.13,21.27,70.93,-19.6,2.37,83.06,-14.41,14.94,78.84,20.65,1.41,89.56,-6.86,14.59,79.37,-20.65,0.62,86.31,-13.5,12.89,71.53,-25.15,-2.37,85.58,-22.15,15.89,83.29,25.59,1.59,88.67,-13.5,10.26,83.02,-19.59,-5.2,79.58,1.0,-1.0,1.0,-1.0,-1.0,1.0,-1.0,1.0,1.0,1.0,1.0,-1.0,-1.0,-1.0,0.5619,1.0,-1.0,-1.0,0.006,0.0,0.0,0.013,0.026,0.0,0.039,0.0,0.006,0.019,0.019,0.006,0.006,0.0,0.0,0.013,0.026,0.0,-0.1963,0.0368,0.0353,-0.3191,-0.2838,0.2408,-0.227,-0.0675,0.1335,0.3283,-0.316,0.3298,-0.092,-0.0951,0.1427,-0.3313,-0.3145,0.3007,-0.1328,0.0151,-0.0499,-0.3,-0.2271,0.126,-0.3021,-0.1759,0.1334,0.2952,-0.2961,0.3021,-0.1499,-0.0406,0.1867,-0.3003,-0.2959,0.2489,-0.0008,-0.0608,0.0649,-0.1453,-0.3023,-1.0,-1.0,-0.2432,-1.0,-0.7898,1.0,-1.0,1.0,1.0,1.0,1.0,0.0008,-1.0,-0.0634,1.0,0.9173,-1.0,-1.0,0.0,0.0,0.0,0.0,0.0,0.0,0.0,0.0,0.0,0.0,0.0,0.0,0.0,0,
0.68,run,7.15,2.51,2.06,2.1,-23.65,0.0,0.0,0.0,0.091,-13.18,19.95,70.49,-21.01,1.14,83.85,-16.0,14.15,79.89,21.97,0.35,90.53,-8.26,13.54,80.51,-21.53,-0.79,86.48,-12.0,11.39,73.03,-26.65,-3.87,87.08,-23.65,14.39,84.79,27.09,3.09,87.17,-15.0,11.76,84.52,-18.09,-6.7,78.08,1.0,-1.0,1.0,-1.0,-1.0,1.0,-0.6782,-0.4882,1.0,1.0,1.0,-1.0,-1.0,1.0,1.0,1.0,-0.0979,-1.0,0.006,0.0,0.0,0.013,0.026,0.0,0.039,0.0,0.006,0.019,0.019,0.006,0.006,0.0,0.0,0.013,0.026,0.0,-0.2117,0.0153,0.0245,-0.3482,-0.3099,0.2439,-0.2577,-0.0951,0.158,0.359,-0.3436,0.3559,-0.1197,-0.1058,0.1718,-0.359,-0.3436,0.3007,-0.1406,-0.0562,-0.0683,-0.3006,-0.24,0.0978,-0.3068,-0.209,0.1697,0.302,-0.2931,0.2925,-0.1908,-0.0618,0.2213,-0.296,-0.2977,0.1742,0.0321,-0.0626,0.1551,-0.0211,-0.3405,1.0,-1.0,1.0,-1.0,-1.0,1.0,-1.0,1.0,1.0,1.0,1.0,-1.0,-1.0,-1.0,0.5619,1.0,-1.0,-1.0,0.0,0.0,0.0,0.0,0.0,0.0,0.0,0.0,0.0,0.0,0.0,0.0,0.0,0,
0.72,run,7.26,2.65,3.95,3.42,-23.06,0.0,0.0,0.0,0.091,-14.15,18.63,70.49,-22.41,-0.09,84.73,-17.49,13.36,80.86,23.38,-0.44,91.14,-9.67,12.57,81.91,-22.24,-2.11,85.96,-10.5,9.89,74.53,-28.15,-5.37,88.58,-25.15,15.89,86.29,28.59,4.59,85.67,-13.5,10.26,83.02,-16.59,-5.2,76.58,1.0,-1.0,1.0,-1.0,-0.9372,1.0,-0.9857,1.0,1.0,1.0,1.0,-1.0,-0.3746,-0.209,-1.0,1.0,1.0,-1.0,0.0,0.0,0.0,0.013,0.026,0.013,0.026,0.019,0.019,0.013,0.006,0.0,0.006,0.0,0.013,0.0,0.026,0.006,-0.2301,-0.0077,0.0169,-0.3728,-0.3313,0.2577,-0.2853,-0.1089,0.1764,0.382,-0.362,0.3728,-0.1442,-0.1243,0.1917,-0.3743,-0.3682,0.3037,-0.1667,-0.1246,-0.0762,-0.3014,-0.2476,0.1196,-0.3171,-0.1975,0.187,0.2967,-0.2734,0.2673,-0.2245,-0.1115,0.2289,-0.2641,-0.2994,0.1333,0.034,-0.0536,0.036,0.0367,-0.4127,1.0,-1.0,1.0,-1.0,-1.0,1.0,-0.6782,-0.4882,1.0,1.0,1.0,-1.0,-1.0,1.0,1.0,1.0,-0.0979,-1.0,0.0,0.0,0.0,0.0,0.0,0.0,0.0,0.0,0.0,0.0,0.0,0.0,0.0,0,
0.76,run,7.46,2.91,6.92,6.47,-22.44,0.0,0.0,0.0,0.091,-14.59,17.31,70.66,-23.82,-1.41,85.78,-18.9,13.18,82.0,24.87,-0.88,91.49,-10.99,11.78,82.88,-22.41,-3.43,85.17,-12.0,8.39,76.03,-29.65,-3.87,90.08,-23.65,17.39,87.79,30.09,6.09,84.17,-15.0,8.76,81.52,-15.09,-3.7,75.08,-1.0,-0.6455,0.8714,-1.0,1.0,1.0,0.5871,0.9278,1.0,0.8703,1.0,-1.0,-1.0,0.5327,-0.1227,1.0,1.0,-1.0,0.0,0.0,0.0,0.013,0.026,0.013,0.026,0.019,0.019,0.013,0.006,0.0,0.006,0.0,0.013,0.0,0.026,0.006,-0.247,-0.0307,0.0169,-0.3973,-0.3528,0.273,-0.3114,-0.1227,0.1933,0.4065,-0.3758,0.3835,-0.1687,-0.1411,0.2163,-0.3866,-0.3912,0.2945,-0.1801,-0.1738,-0.0534,-0.3033,-0.2541,0.1414,-0.3201,-0.1902,0.1944,0.3,-0.2433,0.2275,-0.2495,-0.1415,0.2525,-0.231,-0.2961,0.0587,0.0438,-0.0417,0.069,0.0598,-0.4024,1.0,-1.0,1.0,-1.0,-0.9372,1.0,-0.9857,1.0,1.0,1.0,1.0,-1.0,-0.3746,-0.209,-1.0,1.0,1.0,-1.0,0.0,0.0,0.0,0.0,0.0,0.0,0.0,0.0,0.0,0.0,0.0,0.0,0.0,0,
0.8,run,7.45,3.33,1.37,11.23,-18.05,0.0,0.0,0.0,0.091,-14.77,16.0,71.28,-25.22,-2.64,87.1,-20.3,13.1,83.5,26.19,-0.97,91.41,-12.13,10.63,83.94,-22.32,-4.57,84.02,-10.5,6.89,77.53,-31.15,-5.37,88.58,-23.6,15.89,89.29,28.59,7.59,82.67,-16.5,7.26,80.02,-13.59,-2.2,73.58,-0.2223,-0.7036,1.0,-1.0,-0.2496,-1.0,-0.6744,-1.0,1.0,-0.2623,0.8838,-1.0,-0.7706,0.0824,-0.3186,1.0,1.0,-1.0,0.0,0.0,0.0,0.013,0.026,0.013,0.026,0.019,0.019,0.013,0.006,0.0,0.006,0.0,0.013,0.0,0.026,0.006,-0.2546,-0.0537,0.0199,-0.4218,-0.3758,0.2915,-0.3359,-0.1258,0.2132,0.4326,-0.3835,0.3896,-0.1917,-0.1549,0.2332,-0.3896,-0.4142,0.2807,-0.155,-0.2083,-0.0258,-0.3047,-0.2645,0.1683,-0.3165,-0.1447,0.2112,0.3082,-0.1992,0.1824,-0.2613,-0.151,0.2403,-0.1733,-0.2939,-0.0109,0.0612,-0.0184,0.1207,0.1129,-0.3917,-1.0,-0.6455,0.8714,-1.0,1.0,1.0,0.5871,0.9278,1.0,0.8703,1.0,-1.0,-1.0,0.5327,-0.1227,1.0,1.0,-1.0,0.0,0.0,0.0,0.0,0.0,0.0,0.0,0.0,0.0,0.0,0.0,0.0,0.0,0,
0.84,run,7.48,3.76,2.08,11.63,-7.03,0.0,0.0,0.0,0.123,-14.77,14.5,72.16,-26.54,-3.69,88.33,-21.45,13.18,84.9,27.51,-0.79,90.88,-13.45,9.49,84.55,-21.8,-5.36,82.71,-12.0,5.39,79.03,-32.65,-3.87,87.08,-22.1,14.39,90.79,27.09,6.09,81.17,-18.0,5.76,81.52,-12.09,-0.7,72.08,-0.6551,-1.0,1.0,-1.0,1.0,-0.1341,0.6245,-0.8,1.0,-0.3075,-0.0101,-1.0,-1.0,-0.691,1.0,1.0,1.0,-1.0,0.026,0.0,0.019,0.019,0.006,0.006,0.019,0.123,0.026,0.006,0.006,0.0,0.019,0.0,0.013,0.006,0.019,0.013,-0.2577,-0.0767,0.0307,-0.4464,-0.3973,0.3145,-0.3605,-0.1273,0.2393,0.4556,-0.385,0.3881,-0.2117,-0.1749,0.2516,-0.3881,-0.4341,0.2608,-0.1199,-0.2314,0.0219,-0.3046,-0.265,0.2034,-0.3128,-0.107,0.2448,0.3013,-0.1451,0.122,-0.257,-0.1799,0.2366,-0.1156,-0.2799,-0.0818,0.0605,0.018,0.024,0.1959,-0.315,-0.2223,-0.7036,1.0,-1.0,-0.2496,-1.0,-0.6744,-1.0,1.0,-0.2623,0.8838,-1.0,-0.7706,0.0824,-0.3186,1.0,1.0,-1.0,0.0,0.0,0.0,0.0,0.0,0.0,0.0,0.0,0.0,0.0,0.0,0.0,0.0,0,
0.88,run,7.39,4.33,-0.37,14.45,-0.72,0.0,0.0,0.0,0.123,-14.06,13.1,73.3,-27.95,-4.39,89.12,-22.15,13.54,86.31,28.56,-0.09,90.0,-14.85,8.26,84.81,-20.74,-5.89,81.39,-10.5,3.89,80.53,-34.15,-2.37,85.58,-20.6,12.89,92.29,25.59,4.59,82.67,-19.5,4.26,83.02,-10.59,0.8,70.58,1.0,-1.0,1.0,-1.0,0.8164,-1.0,1.0,-1.0,1.0,-1.0,-1.0,1.0,-1.0,0.4179,0.3249,1.0,1.0,-1.0,0.026,0.0,0.019,0.019,0.006,0.006,0.019,0.123,0.026,0.006,0.006,0.0,0.019,0.0,0.013,0.006,0.019,0.013,-0.2577,-0.1028,0.046,-0.4694,-0.4157,0.3359,-0.3804,-0.1258,0.2638,0.4786,-0.382,0.3789,-0.2347,-0.1948,0.2623,-0.3789,-0.4479,0.2378,-0.0839,-0.2598,0.0729,-0.2996,-0.2546,0.223,-0.2938,-0.0691,0.2635,0.2973,-0.0901,0.0508,-0.2663,-0.2008,0.206,-0.0464,-0.2477,-0.1436,0.0628,0.0558,0.0364,0.203,-0.1227,-0.6551,-1.0,1.0,-1.0,1.0,-0.1341,0.6245,-0.8,1.0,-0.3075,-0.0101,-1.0,-1.0,-0.691,1.0,1.0,1.0,-1.0,0.0,0.0,0.0,0.0,0.0,0.0,0.0,0.0,0.0,0.0,0.0,0.0,0.0,0,
0.92,run,7.35,4.76,-0.02,10.91,2.57,0.0,0.0,0.0,0.123,-13.27,11.6,74.71,-29.36,-4.92,89.74,-22.76,13.71,87.63,29.27,0.88,88.86,-16.08,7.03,84.81,-19.78,-6.06,79.98,-12.0,2.4,82.03,-35.0,-0.87,84.08,-19.1,11.39,93.79,24.09,3.09,84.17,-21.0,5.76,81.52,-9.09,2.3,69.08,-1.0,0.4982,1.0,-1.0,1.0,-1.0,0.8355,-1.0,1.0,-0.8385,-1.0,1.0,-1.0,1.0,-0.6407,1.0,1.0,-1.0,0.026,0.0,0.019,0.019,0.006,0.006,0.019,0.123,0.026,0.006,0.006,0.0,0.019,0.0,0.013,0.006,0.019,0.013,-0.2454,-0.1273,0.066,-0.4939,-0.428,0.3497,-0.3927,-0.1197,0.2884,0.497,-0.3697,0.3636,-0.2592,-0.2163,0.2669,-0.3605,-0.4571,0.2148,-0.0123,-0.2747,0.1264,-0.3025,-0.2246,0.2083,-0.2521,-0.0252,0.2773,0.2777,-0.0166,-0.0224,-0.2792,-0.2218,0.1616,0.0372,-0.2082,-0.1875,0.0558,0.1051,-0.0065,0.2521,-0.0126,1.0,-1.0,1.0,-1.0,0.8164,-1.0,1.0,-1.0,1.0,-1.0,-1.0,1.0,-1.0,0.4179,0.3249,1.0,1.0,-1.0,0.0,0.0,0.0,0.0,0.0,0.0,0.0,0.0,0.0,0.0,0.0,0.0,0.0,0,
0.96,run,7.28,5.16,-0.73,9.54,-0.45,0.0,0.0,0.0,0.208,-12.3,10.2,76.2,-30.76,-5.1,89.91,-22.85,13.71,89.03,29.79,2.11,87.45,-17.58,5.8,84.73,-18.11,-6.06,78.4,-13.5,0.9,83.53,-35.0,0.63,82.58,-17.6,9.89,95.29,22.59,1.59,85.67,-22.5,7.26,83.02,-7.59,3.8,67.58,-1.0,-0.3596,1.0,-1.0,1.0,-1.0,0.3893,-1.0,1.0,0.2179,-1.0,1.0,-1.0,1.0,1.0,1.0,1.0,-1.0,0.033,0.0,0.013,0.019,0.006,0.0,0.006,0.013,0.033,0.006,0.0,0.006,0.019,0.0,0.208,0.006,0.006,0.019,-0.2316,-0.1534,0.0905,-0.5185,-0.4372,0.3605,-0.4034,-0.1166,0.3114,0.5093,-0.3528,0.3436,-0.2807,-0.2378,0.2669,-0.3436,-0.4602,0.1902,0.0429,-0.2896,0.1801,-0.3034,-0.1916,0.1859,-0.2165,-0.0062,0.2799,0.2402,0.0513,-0.0901,-0.2756,-0.2354,0.1131,0.089,-0.1572,-0.2229,0.052,0.1431,-0.0004,0.1905,0.0448,-1.0,0.4982,1.0,-1.0,1.0,-1.0,0.8355,-1.0,1.0,-0.8385,-1.0,1.0,-1.0,1.0,-0.6407,1.0,1.0,-1.0,0.0,0.0,0.0,0.0,0.0,0.0,0.0,0.0,0.0,0.0,0.0,0.0,0.0,0,
1.0,run,7.43,5.56,5.3,11.13,-1.26,0.0,0.0,0.0,0.208,-11.78,8.96,77.61,-32.08,-5.27,89.65,-22.85,13.62,90.35,29.71,2.99,86.22,-18.81,5.01,84.11,-17.05,-5.54,77.08,-15.0,-0.6,85.03,-35.0,2.13,81.08,-16.1,8.39,96.79,21.09,0.09,87.17,-24.0,5.76,84.52,-6.09,5.3,66.08,-1.0,-0.461,1.0,-1.0,1.0,-1.0,1.0,-1.0,1.0,-0.0678,-1.0,1.0,-1.0,-0.0713,1.0,1.0,1.0,-1.0,0.033,0.0,0.013,0.019,0.006,0.0,0.006,0.013,0.033,0.006,0.0,0.006,0.019,0.0,0.208,0.006,0.006,0.019,-0.2148,-0.1779,0.1166,-0.543,-0.4403,0.3636,-0.405,-0.1166,0.3359,0.5185,-0.3313,0.3191,-0.3068,-0.2592,0.2654,-0.3145,-0.4602,0.1626,0.0907,-0.2909,0.2198,-0.3005,-0.1451,0.1411,-0.1571,-0.0043,0.2842,0.2012,0.1131,-0.1513,-0.2866,-0.2419,0.0737,0.167,-0.11,-0.2552,0.0458,0.178,-0.0128,0.1665,-0.0078,-1.0,-0.3596,1.0,-1.0,1.0,-1.0,0.3893,-1.0,1.0,0.2179,-1.0,1.0,-1.0,1.0,1.0,1.0,1.0,-1.0,0.0,0.0,0.0,0.0,0.0,0.0,0.0,0.0,0.0,0.0,0.0,0.0,0.0,0,
1.04,run,7.58,5.63,4.81,2.49,3.24,0.0,0.002,0.0,0.208,-11.51,7.56,79.01,-33.05,-4.31,88.95,-22.68,12.39,91.76,29.27,3.6,85.25,-20.21,4.48,83.76,-15.21,-4.66,75.67,-16.5,-2.1,86.53,-35.0,0.63,79.58,-14.6,6.89,98.29,19.59,-1.41,88.67,-25.5,7.26,86.02,-4.59,6.8,64.58,-1.0,-0.2234,1.0,-1.0,0.1891,-1.0,1.0,-1.0,1.0,-1.0,-1.0,1.0,-1.0,1.0,1.0,1.0,1.0,-1.0,0.033,0.0,0.013,0.019,0.006,0.0,0.006,0.013,0.033,0.006,0.0,0.006,0.019,0.0,0.208,0.006,0.006,0.019,-0.2056,-0.1994,0.1411,-0.566,-0.4433,0.359,-0.405,-0.1181,0.359,0.517,-0.316,0.2976,-0.3283,-0.273,0.2546,-0.2961,-0.451,0.1396,0.0996,-0.288,0.2503,-0.3008,-0.1137,0.0807,-0.11,-0.0091,0.2893,0.1348,0.1394,-0.1903,-0.285,-0.2236,0.0094,0.1893,-0.0409,-0.2691,0.0585,0.2124,0.0925,0.1942,-0.0221,-1.0,-0.461,1.0,-1.0,1.0,-1.0,1.0,-1.0,1.0,-0.0678,-1.0,1.0,-1.0,-0.0713,1.0,1.0,1.0,-1.0,0.0,0.0,0.0,0.0,0.0,0.0,0.0,0.0,0.0,0.0133,0.0,0.0133,0.0,0,
1.08,run,7.8,5.74,4.57,3.26,-12.23,0.0,0.004,0.0,0.208,-11.43,6.15,80.33,-33.93,-3.34,87.89,-22.32,11.51,93.16,28.48,3.96,84.64,-21.62,4.13,83.76,-14.24,-3.43,74.27,-18.0,-3.6,88.03,-35.0,-0.87,78.08,-13.1,5.39,99.79,18.09,-2.91,90.17,-27.0,8.76,84.52,-3.09,8.3,63.08,-1.0,-0.7381,1.0,-1.0,0.3999,-1.0,1.0,-1.0,1.0,-1.0,-1.0,1.0,-1.0,0.7005,0.1874,1.0,1.0,-0.9815,0.0,0.0,0.026,0.013,0.026,0.013,0.019,0.0,0.033,0.019,0.0,0.006,0.026,0.013,0.033,0.019,0.013,0.013,-0.201,-0.224,0.1657,-0.5829,-0.4264,0.3467,-0.4019,-0.1396,0.3835,0.5093,-0.3053,0.2807,-0.3528,-0.2823,0.2485,-0.2638,-0.4357,0.115,0.0871,-0.294,0.2675,-0.274,-0.0161,0.0103,-0.0654,-0.0871,0.2949,0.0655,0.138,-0.1967,-0.2919,-0.1912,-0.0165,0.2537,0.0291,-0.2807,0.0717,0.2185,0.0839,0.0435,0.0565,-1.0,-0.2234,1.0,-1.0,0.1891,-1.0,1.0,-1.0,1.0,-1.0,-1.0,1.0,-1.0,1.0,1.0,1.0,1.0,-1.0,0.0,0.0,0.0,0.0,0.0,0.0,0.0,0.0,0.0,0.0267,0.0,0.0267,0.0,0,
1.12,run,8.45,5.82,17.44,2.6,-19.01,0.0,0.006,0.0,0.208,-11.78,4.75,81.74,-34.45,-2.29,86.84,-21.18,9.93,94.57,27.6,3.96,84.29,-23.03,4.13,83.76,-12.57,-2.37,72.6,-19.5,-2.1,89.53,-35.0,0.63,76.58,-11.6,3.89,101.29,16.59,-4.41,91.67,-28.5,7.26,86.02,-1.59,9.8,64.58,-1.0,0.4469,1.0,-1.0,0.7,-1.0,1.0,-1.0,1.0,-1.0,-0.9638,1.0,-1.0,0.178,0.7426,1.0,1.0,0.1455,0.0,0.0,0.026,0.013,0.026,0.013,0.019,0.0,0.033,0.019,0.0,0.006,0.026,0.013,0.033,0.019,0.013,0.013,-0.1994,-0.2485,0.1887,-0.5983,-0.4096,0.3283,-0.3958,-0.1549,0.408,0.4955,-0.2991,0.27,-0.3774,-0.2884,0.2485,-0.247,-0.4142,0.0905,0.0666,-0.2971,0.2729,-0.2489,0.0515,-0.0613,-0.023,-0.1181,0.2977,-0.0055,0.1194,-0.1776,-0.2956,-0.1566,-0.0116,0.2404,0.1003,-0.2878,0.0911,0.2281,0.0797,0.057,-0.2135,-1.0,-0.7381,1.0,-1.0,0.3999,-1.0,1.0,-1.0,1.0,-1.0,-1.0,1.0,-1.0,0.7005,0.1874,1.0,1.0,-0.9815,0.0,0.0,0.0,0.0,0.0,0.0,0.0,0.0,0.0,0.04,0.0,0.04,0.0,0,
1.16,run,8.58,5.51,3.93,-7.21,-15.23,0.0,0.008,0.0,0.208,-12.74,3.34,83.23,-34.63,-1.41,85.34,-19.69,8.53,96.06,26.1,3.69,84.46,-24.43,4.48,84.29,-10.99,-0.97,71.28,-21.0,-3.6,91.03,-35.0,-0.87,75.08,-10.1,2.39,102.79,15.09,-5.91,93.17,-30.0,8.76,84.52,-0.09,11.3,66.08,-1.0,-0.4938,1.0,-1.0,-0.5305,-1.0,1.0,-1.0,1.0,-1.0,-0.6887,1.0,-1.0,0.9977,-0.6667,1.0,1.0,1.0,0.0,0.0,0.026,0.013,0.026,0.013,0.019,0.0,0.033,0.019,0.0,0.006,0.026,0.013,0.033,0.019,0.013,0.013,-0.2056,-0.273,0.2132,-0.6075,-0.3912,0.3099,-0.3758,-0.1825,0.4326,0.4801,-0.2991,0.2638,-0.4019,-0.2884,0.2485,-0.2178,-0.3958,0.0614,0.0235,-0.3008,0.2838,-0.209,0.1057,-0.1125,0.0593,-0.187,0.3012,-0.0618,0.0836,-0.1475,-0.2997,-0.1096,-0.0081,0.2784,0.1398,-0.3116,0.1478,0.2358,0.3043,0.0454,-0.3318,-1.0,0.4469,1.0,-1.0,0.7,-1.0,1.0,-1.0,1.0,-1.0,-0.9638,1.0,-1.0,0.178,0.7426,1.0,1.0,0.1455,0.0,0.0,0.0,0.0,0.0,0.0,0.0,0.0,0.0,0.0533,0.0,0.0533,0.0,0,
1.2,run,9.06,5.38,10.77,-4.24,-7.17,0.0,0.01,0.0,0.208,-13.8,1.93,84.64,-34.63,-0.7,83.85,-18.28,7.12,97.47,24.7,2.9,84.73,-25.84,5.36,85.08,-10.02,0.53,69.96,-22.5,-5.1,92.53,-35.0,0.63,73.58,-8.6,0.89,104.29,13.59,-7.41,94.67,-31.5,7.26,83.02,-1.59,12.8,67.58,-1.0,-0.6649,1.0,-1.0,0.5805,-0.8437,1.0,-1.0,1.0,-1.0,0.2754,1.0,-1.0,-1.0,-1.0,-1.0,1.0,1.0,0.0,0.0,0.019,0.006,0.026,0.006,0.019,0.0,0.033,0.006,0.033,0.013,0.026,0.065,0.0,0.006,0.026,0.006,-0.2224,-0.2976,0.2393,-0.6105,-0.3758,0.2838,-0.3497,-0.2071,0.4587,0.4541,-0.3037,0.2669,-0.4264,-0.2823,0.2577,-0.1902,-0.3712,0.0383,-0.0465,-0.3021,0.2959,-0.1578,0.1312,-0.176,0.1388,-0.2225,0.3081,-0.1405,0.0414,-0.0918,-0.3013,-0.0539,0.0287,0.2979,0.1894,-0.304,0.1592,0.208,0.0686,-0.1258,-0.2659,-1.0,-0.4938,1.0,-1.0,-0.5305,-1.0,1.0,-1.0,1.0,-1.0,-0.6887,1.0,-1.0,0.9977,-0.6667,1.0,1.0,1.0,0.0,0.0,0.0,0.0,0.0,0.0,0.0,0.0,0.0,0.0667,0.0,0.0667,0.0,0,
1.24,run,9.44,5.32,9.67,-2.41,-3.36,0.0,0.012,0.0,0.208,-15.12,0.53,86.13,-34.63,-0.35,82.44,-16.88,5.71,98.88,23.29,1.76,85.78,-27.16,6.06,85.43,-8.35,1.85,68.64,-24.0,-6.6,94.03,-35.0,-0.87,75.08,-7.1,-0.61,105.79,12.09,-5.91,96.17,-33.0,5.76,81.52,-3.09,14.3,69.08,-1.0,-1.0,1.0,-1.0,-0.2711,1.0,1.0,-1.0,1.0,-1.0,1.0,1.0,-1.0,-1.0,-1.0,-1.0,1.0,1.0,0.0,0.0,0.019,0.006,0.026,0.006,0.019,0.0,0.033,0.006,0.033,0.013,0.026,0.065,0.0,0.006,0.026,0.006,-0.2408,-0.3221,0.2638,-0.6105,-0.3636,0.2577,-0.3252,-0.2316,0.4832,0.4295,-0.3175,0.2715,-0.451,-0.2669,0.2715,-0.1733,-0.3451,0.0153,-0.1013,-0.3031,0.2988,-0.1104,0.1377,-0.2206,0.1888,-0.2474,0.3073,-0.19,-0.0226,-0.0471,-0.3026,0.0196,0.0716,0.2715,0.23,-0.2987,0.2014,0.1969,0.188,-0.074,-0.1251,-1.0,-0.6649,1.0,-1.0,0.5805,-0.8437,1.0,-1.0,1.0,-1.0,0.2754,1.0,-1.0,-1.0,-1.0,-1.0,1.0,1.0,0.0,0.0,0.0,0.0,0.0,0.0,0.0,0.0,0.0,0.08,0.0,0.08,0.0,0,
1.28,run,9.6,5.24,4.08,-3.61,-2.73,0.0,0.014,0.0,0.208,-16.52,-0.88,87.63,-34.63,-0.35,80.95,-15.47,4.31,100.28,21.88,0.44,86.92,-28.65,6.59,85.69,-7.03,3.25,67.59,-25.5,-8.1,95.53,-33.5,-2.37,76.58,-5.6,-2.11,107.29,10.59,-4.41,97.67,-34.5,4.26,80.02,-4.59,15.8,70.58,-1.0,-0.1025,1.0,-0.939,0.2654,1.0,1.0,-1.0,1.0,-1.0,1.0,0.7423,-1.0,-1.0,-1.0,-1.0,1.0,1.0,0.0,0.0,0.019,0.006,0.026,0.006,0.019,0.0,0.033,0.006,0.033,0.013,0.026,0.065,0.0,0.006,0.026,0.006,-0.2638,-0.3467,0.2899,-0.6105,-0.3574,0.2332,-0.3007,-0.2562,0.5077,0.405,-0.3375,0.2899,-0.474,-0.2546,0.2777,-0.1442,-0.3221,-0.0077,-0.158,-0.305,0.3078,-0.0773,0.1196,-0.2473,0.225,-0.266,0.308,-0.2259,-0.0913,0.0367,-0.2989,0.0601,0.0734,0.3004,0.248,-0.2962,0.2343,0.1915,0.1688,-0.042,-0.0587,-1.0,-1.0,1.0,-1.0,-0.2711,1.0,1.0,-1.0,1.0,-1.0,1.0,1.0,-1.0,-1.0,-1.0,-1.0,1.0,1.0,0.0,0.0,0.0,0.0,0.0,0.0,0.0,0.0,0.0,0.0933,0.0,0.0933,0.0,0,
1.32,run,10.2,5.22,15.73,-2.32,-0.36,0.0,0.016,0.0,0.208,-17.93,-2.29,89.21,-34.63,-0.35,79.54,-14.06,2.81,101.69,20.57,-0.97,88.24,-30.15,6.86,85.34,-5.71,4.57,66.88,-27.0,-9.6,97.03,-35.0,-0.87,78.08,-4.1,-3.61,108.79,9.09,-2.91,96.17,-35.0,2.76,78.52,-6.09,17.3,72.08,-1.0,-0.226,1.0,-1.0,1.0,1.0,1.0,-1.0,1.0,-1.0,1.0,0.2697,-1.0,-1.0,-1.0,-1.0,1.0,1.0,0.0,0.006,0.006,0.006,0.0,0.0,0.013,0.0,0.033,0.006,0.013,0.006,0.019,0.026,0.013,0.019,0.045,0.0,-0.2884,-0.3712,0.316,-0.6105,-0.3574,0.2071,-0.2761,-0.2807,0.5323,0.3804,-0.3605,0.3099,-0.5001,-0.2454,0.2823,-0.1212,-0.2976,-0.0261,-0.202,-0.305,0.3126,-0.0541,0.0837,-0.2702,0.249,-0.2777,0.307,-0.2496,-0.1496,0.1,-0.3064,0.0764,0.0685,0.296,0.2651,-0.2759,0.2485,0.185,0.0713,-0.0629,-0.0477,-1.0,-0.1025,1.0,-0.939,0.2654,1.0,1.0,-1.0,1.0,-1.0,1.0,0.7423,-1.0,-1.0,-1.0,-1.0,1.0,1.0,0.0,0.0,0.0,0.0,0.0,0.0,0.0,0.0,0.0,0.1067,0.0,0.1067,0.0,0,
1.36,run,10.76,5.12,14.93,-4.6,2.11,0.0,0.018,0.0,0.208,-19.25,-3.69,90.7,-34.54,-0.7,78.31,-12.66,1.49,103.1,19.16,-2.11,89.65,-31.46,6.86,84.73,-4.92,5.8,66.36,-25.5,-11.1,95.53,-35.0,-2.37,79.58,-2.6,-5.11,110.29,7.59,-1.41,97.67,-35.0,1.26,77.02,-7.59,18.8,73.58,-0.2261,0.0072,0.3235,-1.0,-0.4818,1.0,1.0,-1.0,1.0,-1.0,1.0,1.0,-1.0,-1.0,-1.0,-1.0,1.0,1.0,0.0,0.006,0.006,0.006,0.0,0.0,0.013,0.0,0.033,0.006,0.013,0.006,0.019,0.026,0.013,0.019,0.045,0.0,-0.3129,-0.3958,0.3436,-0.6105,-0.3574,0.1825,-0.2516,-0.3068,0.5568,0.3574,-0.385,0.3329,-0.5262,-0.2408,0.2761,-0.0982,-0.2746,-0.0383,-0.2336,-0.3057,0.3226,-0.0379,0.0586,-0.2814,0.2665,-0.2923,0.3071,-0.2611,-0.1969,0.1564,-0.3124,0.0708,0.0249,0.2936,0.272,-0.2392,0.3008,0.183,0.2745,-0.0404,-0.0064,-1.0,-0.226,1.0,-1.0,1.0,1.0,1.0,-1.0,1.0,-1.0,1.0,0.2697,-1.0,-1.0,-1.0,-1.0,1.0,1.0,0.0,0.0,0.0,0.0,0.0,0.0,0.0,0.0,0.0,0.12,0.0,0.12,0.0,0,
1.4,run,10.94,5.29,5.73,2.5,5.58,0.0,0.02,0.0,0.208,-20.65,-5.1,91.76,-34.54,-1.14,77.34,-11.25,0.0,104.41,17.67,-2.99,91.05,-32.78,6.5,83.85,-4.22,7.12,66.27,-27.0,-12.6,94.03,-33.5,-3.87,81.08,-1.1,-6.61,111.79,6.09,0.09,96.17,-35.0,-0.24,75.52,-9.09,20.3,75.08,-1.0,-0.4496,0.1479,0.5246,-1.0,1.0,1.0,-1.0,1.0,-1.0,1.0,-0.6617,-1.0,-1.0,-1.0,-1.0,1.0,1.0,0.0,0.006,0.006,0.006,0.0,0.0,0.013,0.0,0.033,0.006,0.013,0.006,0.019,0.026,0.013,0.019,0.045,0.0,-0.3359,-0.4203,0.3697,-0.609,-0.3636,0.1611,-0.227,-0.3298,0.5814,0.3329,-0.405,0.3574,-0.5492,-0.2408,0.2654,-0.0844,-0.2531,-0.0476,-0.2502,-0.3064,0.324,-0.0207,0.0179,-0.2778,0.279,-0.2913,0.3074,-0.2752,-0.213,0.2019,-0.3054,0.0495,-0.023,0.2575,0.2713,-0.2021,0.3494,0.1741,0.2606,-0.0803,0.0368,-0.2261,0.0072,0.3235,-1.0,-0.4818,1.0,1.0,-1.0,1.0,-1.0,1.0,1.0,-1.0,-1.0,-1.0,-1.0,1.0,1.0,0.0,0.0,0.0,0.0,0.0,0.0,0.0,0.0,0.0,0.1333,0.0,0.1333,0.0,0,
1.44,run,11.26,5.4,10.15,2.34,6.66,0.0,0.022,0.0,0.208,-21.97,-6.42,92.99,-34.63,-1.67,76.82,-9.84,-1.41,105.91,16.26,-3.69,92.55,-33.66,5.71,82.71,-3.87,8.44,66.45,-28.5,-14.1,92.53,-32.0,-5.37,82.58,0.4,-8.11,113.29,4.59,1.59,94.67,-35.0,-1.74,74.02,-10.59,21.8,76.58,-1.0,-1.0,-1.0,1.0,-0.3046,1.0,1.0,-1.0,1.0,-1.0,1.0,-1.0,-1.0,-1.0,-0.9687,-1.0,1.0,1.0,0.013,0.006,0.006,0.006,0.0,0.006,0.026,0.006,0.033,0.006,0.006,0.006,0.013,0.0,0.039,0.013,0.058,0.019,-0.3605,-0.4449,0.3881,-0.609,-0.3712,0.1442,-0.2025,-0.3559,0.6044,0.3068,-0.4203,0.382,-0.5722,-0.247,0.25,-0.0721,-0.2301,-0.0491,-0.2668,-0.3061,0.2955,-0.0145,-0.0161,-0.2575,0.2869,-0.3012,0.3011,-0.29,-0.2063,0.233,-0.2996,0.0118,-0.0734,0.2261,0.2758,-0.1472,0.3654,0.1889,0.0999,0.0436,0.0974,-1.0,-0.4496,0.1479,0.5246,-1.0,1.0,1.0,-1.0,1.0,-1.0,1.0,-0.6617,-1.0,-1.0,-1.0,-1.0,1.0,1.0,0.0,0.0,0.0,0.0,0.0,0.0,0.0,0.0,0.0,0.1467,0.0,0.1467,0.0,0,
1.48,run,11.43,5.52,6.59,3.48,6.2,0.0,0.024,0.0,0.208,-23.29,-7.82,94.04,-34.63,-2.55,76.55,-8.53,-2.72,107.4,14.85,-3.96,93.78,-34.28,4.57,81.39,-3.87,9.76,66.97,-30.0,-15.6,91.03,-30.5,-6.87,84.08,1.9,-9.61,114.79,3.09,3.09,93.17,-35.0,-3.24,75.52,-12.09,23.3,78.08,-1.0,-1.0,-1.0,1.0,-1.0,1.0,1.0,-1.0,1.0,-1.0,1.0,-1.0,-1.0,-1.0,0.4299,-1.0,1.0,1.0,0.013,0.006,0.006,0.006,0.0,0.006,0.026,0.006,0.033,0.006,0.006,0.006,0.013,0.0,0.039,0.013,0.058,0.019,-0.3835,-0.4679,0.4096,-0.6105,-0.3804,0.135,-0.1779,-0.3804,0.6305,0.2823,-0.4326,0.408,-0.5875,-0.2608,0.2301,-0.066,-0.2071,-0.046,-0.273,-0.3006,0.2874,-0.0159,-0.0458,-0.2148,0.2929,-0.3029,0.3086,-0.2951,-0.1905,0.2609,-0.2673,-0.0436,-0.1262,0.1813,0.2794,-0.0915,0.3927,0.1989,0.1772,0.0408,0.1162,-1.0,-1.0,-1.0,1.0,-0.3046,1.0,1.0,-1.0,1.0,-1.0,1.0,-1.0,-1.0,-1.0,-0.9687,-1.0,1.0,1.0,0.0,0.0,0.0,0.0,0.0,0.0,0.0,0.0,0.0,0.16,0.0,0.16,0.0,0,
1.52,run,11.57,5.56,5.34,1.54,5.59,0.0,0.026,0.0,0.208,-24.7,-9.23,94.83,-34.54,-3.6,76.64,-7.03,-4.22,108.98,13.36,-3.96,94.83,-34.63,3.25,80.07,-4.39,10.99,67.76,-31.5,-17.1,89.53,-29.0,-8.37,85.58,3.4,-11.11,116.29,1.59,4.59,91.67,-35.0,-4.74,77.02,-13.59,21.8,79.58,-1.0,-1.0,-1.0,1.0,-1.0,1.0,1.0,-1.0,1.0,-1.0,1.0,-1.0,-1.0,-1.0,1.0,-1.0,-0.1145,1.0,0.013,0.006,0.006,0.006,0.0,0.006,0.026,0.006,0.033,0.006,0.006,0.006,0.013,0.0,0.039,0.013,0.058,0.019,-0.4065,-0.4924,0.428,-0.6105,-0.3958,0.1304,-0.1549,-0.4034,0.6565,0.2577,-0.4372,0.4295,-0.5983,-0.2807,0.2071,-0.066,-0.1841,-0.0368,-0.2778,-0.3028,0.2705,-0.0111,-0.0898,-0.1677,0.2917,-0.2987,0.3142,-0.299,-0.1507,0.2635,-0.2275,-0.1056,-0.175,0.1269,0.2822,-0.0294,0.4078,0.2094,0.115,0.0607,0.1082,-1.0,-1.0,-1.0,1.0,-1.0,1.0,1.0,-1.0,1.0,-1.0,1.0,-1.0,-1.0,-1.0,0.4299,-1.0,1.0,1.0,0.0,0.0,0.0,0.0,0.0,0.0,0.0,0.0,0.0,0.1733,0.0,0.1733,0.0,0,
1.56,run,11.0,5.34,-16.85,-4.33,11.06,0.0,0.028,0.0,0.208,-26.28,-10.63,95.62,-33.93,-4.83,77.17,-5.54,-5.62,110.39,12.04,-3.69,95.54,-34.8,1.76,78.4,-5.1,12.13,68.99,-33.0,-18.6,88.03,-27.5,-9.87,87.08,4.9,-12.61,117.79,0.09,6.09,90.17,-35.0,-6.24,78.52,-15.09,20.3,81.08,-1.0,-1.0,-1.0,1.0,-1.0,1.0,1.0,-1.0,1.0,-1.0,1.0,-1.0,-1.0,-1.0,1.0,-1.0,-0.7209,1.0,0.0,0.006,0.006,0.019,0.006,0.019,0.013,0.0,0.019,0.013,0.006,0.0,0.0,0.0,0.013,0.0,0.175,0.052,-0.431,-0.517,0.4418,-0.609,-0.4142,0.1319,-0.1289,-0.4295,0.6842,0.2316,-0.4372,0.4479,-0.6044,-0.3037,0.1841,-0.0752,-0.1626,-0.023,-0.2847,-0.3022,0.2401,-0.0022,-0.1305,-0.1117,0.3,-0.305,0.3214,-0.3051,-0.1055,0.2521,-0.1818,-0.1585,-0.2071,0.055,0.2765,0.0302,0.42,0.2128,0.0933,0.0269,0.0976,-1.0,-1.0,-1.0,1.0,-1.0,1.0,1.0,-1.0,1.0,-1.0,1.0,-1.0,-1.0,-1.0,1.0,-1.0,-0.1145,1.0,0.0,0.0,0.0,0.0,0.0,0.0,0.0,0.0,0.0,0.1867,0.0,0.1867,0.0,0,
1.6,run,10.79,5.62,-5.86,4.58,9.96,0.0,0.03,0.0,0.208,-27.6,-11.95,95.54,-32.7,-6.15,77.96,-3.78,-7.21,112.15,10.63,-2.64,95.98,-34.8,0.44,77.17,-6.24,13.27,70.22,-34.5,-20.1,86.53,-26.0,-11.37,88.58,6.4,-14.11,119.29,-1.41,4.59,88.67,-35.0,-7.74,80.02,-16.59,18.8,82.58,-1.0,-1.0,-1.0,1.0,-0.4207,1.0,1.0,-1.0,1.0,-1.0,-0.0128,-1.0,-1.0,-1.0,1.0,-1.0,-1.0,1.0,0.0,0.006,0.006,0.019,0.006,0.019,0.013,0.0,0.019,0.013,0.006,0.0,0.0,0.0,0.013,0.0,0.175,0.052,-0.4587,-0.5415,0.4556,-0.5983,-0.4357,0.1411,-0.1028,-0.4541,0.7087,0.2086,-0.4326,0.4602,-0.6075,-0.3298,0.1549,-0.0874,-0.1427,-0.0015,-0.3049,-0.3055,0.2209,0.0396,-0.1736,-0.043,0.3098,-0.3074,0.3189,-0.3017,-0.0562,0.2235,-0.139,-0.2107,-0.2565,-0.0085,0.2699,0.1033,0.3703,0.1938,-0.2942,-0.0756,0.1931,-1.0,-1.0,-1.0,1.0,-1.0,1.0,1.0,-1.0,1.0,-1.0,1.0,-1.0,-1.0,-1.0,1.0,-1.0,-0.7209,1.0,0.0,0.0,0.0,0.0,0.0,0.0,0.0,0.0,0.0,0.2,0.0,0.2,0.0,0,
1.64,run,10.59,5.65,-4.22,-0.39,-3.03,0.0,0.032,0.0,0.208,-29.0,-13.45,94.92,-31.38,-7.56,79.1,-2.29,-8.61,113.64,9.23,-1.67,95.98,-34.8,-0.88,76.03,-7.47,14.15,71.46,-35.0,-21.6,85.03,-24.5,-12.87,90.08,7.9,-15.61,120.79,-2.91,3.09,87.17,-33.5,-9.24,81.52,-18.09,17.3,84.08,-1.0,-0.6072,-1.0,1.0,-1.0,1.0,1.0,-1.0,1.0,-1.0,-1.0,-1.0,-0.7246,-1.0,1.0,-1.0,-1.0,1.0,0.0,0.006,0.006,0.019,0.006,0.019,0.013,0.0,0.019,0.013,0.006,0.0,0.0,0.0,0.013,0.0,0.175,0.052,-0.4817,-0.5645,0.4541,-0.5768,-0.4587,0.1549,-0.0721,-0.4817,0.7394,0.1841,-0.4142,0.4679,-0.6075,-0.3528,0.1335,-0.1074,-0.1227,0.0199,-0.3003,-0.3006,0.1489,0.1087,-0.2083,0.022,0.3326,-0.3193,0.339,-0.3037,0.0301,0.1853,-0.0973,-0.2343,-0.2605,-0.0812,0.2641,0.1533,0.3517,0.2182,-0.1023,0.08,0.1738,-1.0,-1.0,-1.0,1.0,-0.4207,1.0,1.0,-1.0,1.0,-1.0,-0.0128,-1.0,-1.0,-1.0,1.0,-1.0,-1.0,1.0,0.0,0.0,0.0,0.0,0.0,0.0,0.0,0.0,0.0,0.2133,0.0,0.2133,0.0,0,
1.68,run,10.82,5.5,3.44,-3.18,-4.32,0.0,0.034,0.0,0.338,-30.5,-14.77,94.13,-30.15,-8.96,80.51,-1.14,-10.02,114.87,7.82,-0.44,95.71,-34.72,-2.11,75.76,-8.96,14.94,72.69,-35.0,-20.1,83.53,-23.0,-14.37,91.58,9.4,-17.11,122.29,-4.41,1.59,85.67,-32.0,-10.74,83.02,-19.59,15.8,85.58,-1.0,0.3899,-1.0,1.0,-1.0,1.0,1.0,-1.0,1.0,-1.0,-1.0,-0.764,1.0,-0.6426,1.0,-1.0,-1.0,1.0,0.013,0.006,0.019,0.026,0.0,0.026,0.013,0.0,0.006,0.013,0.026,0.006,0.013,0.013,0.0,0.0,0.338,0.104,-0.5062,-0.5906,0.4433,-0.5538,-0.4832,0.1749,-0.046,-0.5062,0.7655,0.1595,-0.3973,0.4679,-0.6075,-0.3758,0.1135,-0.1289,-0.1074,0.0414,-0.3018,-0.3077,0.0641,0.162,-0.2374,0.0898,0.3301,-0.3151,0.3346,-0.3042,0.084,0.1297,-0.0681,-0.2499,-0.2568,-0.1369,0.2421,0.1875,0.3344,0.2205,-0.0737,-0.0067,-0.0528,-1.0,-0.6072,-1.0,1.0,-1.0,1.0,1.0,-1.0,1.0,-1.0,-1.0,-1.0,-0.7246,-1.0,1.0,-1.0,-1.0,1.0,0.0,0.0,0.0,0.0,0.0,0.0,0.0,0.0,0.0,0.2267,0.0,0.2267,0.0,0,
1.72,run,11.27,5.9,11.19,10.16,-5.26,0.0,0.036,0.0,0.338,-31.64,-16.08,93.08,-28.74,-10.37,81.91,0.35,-11.34,116.28,6.42,0.7,94.66,-34.28,-3.6,75.59,-10.37,15.47,73.83,-35.0,-18.6,82.03,-21.5,-15.87,93.08,10.9,-18.61,123.79,-5.91,0.09,84.17,-30.5,-12.24,84.52,-21.09,14.3,87.08,-1.0,0.298,-1.0,1.0,-1.0,1.0,1.0,-1.0,1.0,-1.0,-1.0,-1.0,1.0,0.0119,1.0,-1.0,-1.0,1.0,0.013,0.006,0.019,0.026,0.0,0.026,0.013,0.0,0.006,0.013,0.026,0.006,0.013,0.013,0.0,0.0,0.338,0.104,-0.5323,-0.6136,0.4295,-0.5323,-0.5077,0.1994,-0.0261,-0.5308,0.7869,0.135,-0.3758,0.4633,-0.6059,-0.3973,0.1089,-0.1549,-0.0936,0.0629,-0.3095,-0.3021,-0.0071,0.1943,-0.2587,0.1554,0.3062,-0.3131,0.3152,-0.3054,0.1398,0.0735,-0.0419,-0.2559,-0.1971,-0.1941,0.2215,0.2122,0.3549,0.2076,0.06,-0.0555,-0.0754,-1.0,0.3899,-1.0,1.0,-1.0,1.0,1.0,-1.0,1.0,-1.0,-1.0,-0.764,1.0,-0.6426,1.0,-1.0,-1.0,1.0,0.0,0.0,0.0,0.0,0.0,0.0,0.0,0.0,0.0,0.24,0.0,0.24,0.0,0,
1.76,run,11.99,6.2,18.32,8.81,-9.69,0.0,0.038,0.0,0.338,-33.13,-17.05,91.58,-27.33,-11.87,83.23,1.23,-12.74,117.33,5.01,1.67,93.78,-33.31,-4.92,75.85,-11.78,15.91,75.15,-33.5,-17.1,80.53,-20.0,-17.37,94.58,12.4,-20.11,125.29,-7.41,-1.41,82.67,-29.0,-10.74,86.02,-22.59,12.8,88.58,-0.4189,1.0,-1.0,1.0,-1.0,1.0,1.0,-1.0,1.0,-1.0,-1.0,-1.0,1.0,1.0,1.0,-1.0,-1.0,1.0,0.013,0.006,0.019,0.026,0.0,0.026,0.013,0.0,0.006,0.013,0.026,0.006,0.013,0.013,0.0,0.0,0.338,0.104,-0.5522,-0.6366,0.4111,-0.5077,-0.5323,0.224,0.0,-0.5538,0.8115,0.1104,-0.3559,0.4449,-0.5983,-0.4234,0.1058,-0.1795,-0.0844,0.0828,-0.2914,-0.2977,-0.074,0.228,-0.273,0.2007,0.3121,-0.3054,0.3126,-0.3058,0.1726,-0.0176,-0.0006,-0.2768,-0.1495,-0.2279,0.1896,0.2232,0.3941,0.2427,0.1953,0.1774,-0.0918,-1.0,0.298,-1.0,1.0,-1.0,1.0,1.0,-1.0,1.0,-1.0,-1.0,-1.0,1.0,0.0119,1.0,-1.0,-1.0,1.0,0.0,0.0,0.0,0.0,0.0,0.0,0.0,0.0,0.0,0.2533,0.0,0.2533,0.0,0,
1.8,run,12.67,6.09,14.66,-0.96,-7.07,0.0,0.04,0.0,0.338,-34.1,-18.54,90.0,-25.66,-13.62,84.81,3.25,-14.5,119.09,3.43,2.37,92.11,-31.9,-6.5,76.99,-13.45,16.0,76.73,-32.0,-15.6,79.03,-18.5,-18.87,96.08,13.9,-21.61,126.79,-8.91,-2.91,81.17,-27.5,-9.24,87.52,-24.09,11.3,90.08,1.0,1.0,-1.0,1.0,-1.0,1.0,1.0,-1.0,1.0,-1.0,-1.0,-1.0,1.0,1.0,1.0,-1.0,-0.5962,1.0,0.006,0.006,0.019,0.026,0.0,0.045,0.013,0.0,0.026,0.026,0.0,0.019,0.006,0.019,0.013,0.006,0.234,0.156,-0.5783,-0.6535,0.385,-0.4832,-0.5584,0.247,0.0153,-0.5783,0.8299,0.0859,-0.339,0.4295,-0.5814,-0.4464,0.1104,-0.204,-0.0767,0.1058,-0.3013,-0.2714,-0.1491,0.2512,-0.2884,0.2264,0.2757,-0.3053,0.2875,-0.3056,0.1837,-0.0695,0.0625,-0.2796,-0.0875,-0.2511,0.1613,0.2421,0.4568,0.2686,0.3198,0.1538,-0.1692,-0.4189,1.0,-1.0,1.0,-1.0,1.0,1.0,-1.0,1.0,-1.0,-1.0,-1.0,1.0,1.0,1.0,-1.0,-1.0,1.0,0.0,0.0,0.0,0.0,0.0,0.0,0.0,0.0,0.0,0.2667,0.0,0.2667,0.0,0,
1.84,run,13.18,6.04,13.28,-0.19,-6.17,0.0,0.042,0.0,0.338,-34.72,-19.25,88.68,-24.35,-15.03,86.13,4.57,-15.82,120.41,2.2,2.64,90.79,-30.59,-7.73,77.87,-14.77,16.0,78.05,-30.5,-14.1,77.53,-17.0,-20.37,97.58,15.4,-23.11,128.29,-10.41,-4.41,79.67,-26.0,-7.74,89.02,-25.59,9.8,91.58,1.0,1.0,-1.0,1.0,-1.0,1.0,1.0,-0.0501,1.0,-1.0,-1.0,-1.0,1.0,1.0,1.0,-1.0,-0.7145,1.0,0.006,0.006,0.019,0.026,0.0,0.045,0.013,0.0,0.026,0.026,0.0,0.019,0.006,0.019,0.013,0.006,0.234,0.156,-0.5952,-0.6796,0.3574,-0.4541,-0.589,0.2746,0.0506,-0.609,0.8606,0.0583,-0.3267,0.4004,-0.5568,-0.474,0.1304,-0.2332,-0.0752,0.1335,-0.2641,-0.2721,-0.1914,0.2677,-0.2986,0.2455,0.3042,-0.3104,0.2979,-0.301,0.1673,-0.1405,0.1211,-0.2828,0.0016,-0.2676,0.1177,0.2565,0.5163,0.2589,0.2559,-0.0167,-0.1235,1.0,1.0,-1.0,1.0,-1.0,1.0,1.0,-1.0,1.0,-1.0,-1.0,-1.0,1.0,1.0,1.0,-1.0,-0.5962,1.0,0.0,0.0,0.0,0.0,0.0,0.0,0.0,0.0,0.0,0.28,0.0,0.28,0.0,0,
1.88,run,13.97,6.04,19.88,-0.27,-6.92,0.0,0.044,0.0,0.338,-34.89,-19.69,87.19,-22.85,-16.52,87.54,6.06,-17.23,121.64,0.7,2.64,89.3,-29.36,-8.7,79.19,-16.26,16.0,79.45,-29.0,-12.6,76.03,-15.5,-21.87,99.08,16.9,-21.61,129.79,-11.91,-5.91,78.17,-24.5,-6.24,90.52,-27.09,8.3,93.08,1.0,1.0,-1.0,1.0,-1.0,1.0,1.0,0.4362,1.0,-1.0,-1.0,-1.0,1.0,1.0,1.0,-1.0,-0.7867,1.0,0.006,0.006,0.019,0.026,0.0,0.045,0.013,0.0,0.026,0.026,0.0,0.019,0.006,0.019,0.013,0.006,0.234,0.156,-0.6059,-0.6918,0.3344,-0.431,-0.6136,0.2976,0.0736,-0.632,0.8836,0.0368,-0.3221,0.3774,-0.5338,-0.4955,0.1457,-0.2562,-0.0752,0.1565,-0.2287,-0.2406,-0.2279,0.2813,-0.3092,0.2657,0.3068,-0.3112,0.3025,-0.2983,0.1359,-0.1923,0.1787,-0.2856,0.0637,-0.2812,0.0824,0.2735,0.5606,0.2542,0.2317,-0.0034,-0.1076,1.0,1.0,-1.0,1.0,-1.0,1.0,1.0,-0.0501,1.0,-1.0,-1.0,-1.0,1.0,1.0,1.0,-1.0,-0.7145,1.0,0.0,0.0,0.0,0.0,0.0,0.0,0.0,0.0,0.0,0.2933,0.0,0.2933,0.0,0,
1.92,run,14.55,5.91,14.77,-4.02,-4.0,0.0,0.046,0.0,0.338,-34.72,-19.78,85.87,-21.45,-18.11,88.86,7.91,-18.81,122.87,-0.88,2.29,87.71,-27.95,-9.4,80.68,-17.84,15.82,80.95,-27.5,-11.1,74.53,-14.0,-23.37,100.58,18.4,-20.11,131.29,-13.41,-7.41,76.67,-23.0,-4.74,92.02,-28.59,6.8,94.58,1.0,1.0,-1.0,1.0,-1.0,1.0,1.0,0.2618,0.8086,-1.0,-1.0,-1.0,1.0,1.0,1.0,-1.0,-0.5101,1.0,0.006,0.006,0.013,0.026,0.0,0.065,0.0,0.0,0.065,0.013,0.013,0.013,0.006,0.006,0.006,0.0,0.013,0.123,-0.609,-0.6995,0.3083,-0.405,-0.6397,0.3221,0.0997,-0.6565,0.905,0.0107,-0.3221,0.3513,-0.5123,-0.5123,0.1687,-0.2823,-0.0752,0.181,-0.1714,-0.1967,-0.2558,0.2932,-0.3128,0.2767,0.3111,-0.3085,0.291,-0.3051,0.0951,-0.2309,0.2044,-0.2622,0.1296,-0.2932,0.0577,0.2821,0.6298,0.2542,0.3469,-0.0047,-0.1208,1.0,1.0,-1.0,1.0,-1.0,1.0,1.0,0.4362,1.0,-1.0,-1.0,-1.0,1.0,1.0,1.0,-1.0,-0.7867,1.0,0.0,0.0,0.0,0.0,0.0,0.0,0.0,0.0,0.0,0.3067,0.0,0.3067,0.0,0,
1.96,run,14.99,5.93,11.16,-1.42,1.58,0.0,0.048,0.0,0.338,-34.01,-19.69,84.38,-19.95,-19.51,90.26,9.05,-20.04,124.1,-2.11,1.58,86.31,-26.54,-9.76,82.0,-19.25,15.03,82.35,-26.0,-9.6,73.03,-12.5,-24.87,102.08,19.9,-18.61,129.79,-14.91,-8.91,75.17,-21.5,-3.24,93.52,-30.09,5.3,96.08,1.0,1.0,-1.0,1.0,-1.0,1.0,1.0,0.801,0.0638,-1.0,-1.0,-1.0,1.0,1.0,1.0,-1.0,-0.3275,1.0,0.006,0.006,0.013,0.026,0.0,0.065,0.0,0.0,0.065,0.013,0.013,0.013,0.006,0.006,0.006,0.0,0.013,0.123,-0.6059,-0.701,0.2853,-0.3804,-0.6673,0.3451,0.1319,-0.6842,0.9265,-0.0169,-0.3283,0.3237,-0.4878,-0.5246,0.1948,-0.3099,-0.0782,0.2071,-0.1085,-0.1435,-0.2654,0.2973,-0.3225,0.28,0.3386,-0.3195,0.2843,-0.3171,0.0436,-0.2652,0.2351,-0.2296,0.1885,-0.3088,0.0289,0.2953,0.6798,0.2436,0.2578,-0.0701,-0.0698,1.0,1.0,-1.0,1.0,-1.0,1.0,1.0,0.2618,0.8086,-1.0,-1.0,-1.0,1.0,1.0,1.0,-1.0,-0.5101,1.0,0.0,0.0,0.0,0.0,0.0,0.0,0.0,0.0,0.0,0.32,0.0,0.32,0.0,0,
2.0,run,15.2,6.21,5.15,4.62,3.59,0.0,0.05,0.0,0.338,-33.49,-19.34,82.79,-18.46,-21.01,91.67,10.46,-20.92,125.42,-3.6,0.18,84.9,-25.14,-9.67,83.58,-20.65,13.54,83.85,-24.5,-8.1,71.53,-11.0,-26.37,103.58,21.4,-17.11,128.29,-16.41,-10.41,73.67,-20.0,-1.74,95.02,-31.59,3.8,97.58,1.0,1.0,-1.0,0.9244,-1.0,1.0,1.0,0.7416,-0.8174,-1.0,-1.0,-0.7091,1.0,1.0,1.0,-1.0,0.259,1.0,0.006,0.006,0.013,0.026,0.0,0.065,0.0,0.0,0.065,0.013,0.013,0.013,0.006,0.006,0.006,0.0,0.013,0.123,-0.5937,-0.6995,0.2592,-0.3543,-0.6918,0.3697,0.1519,-0.7056,0.948,-0.0383,-0.3405,0.2991,-0.4633,-0.5308,0.2178,-0.3344,-0.092,0.2316,-0.0296,-0.0946,-0.2841,0.3065,-0.3183,0.2885,0.3122,-0.3046,0.28,-0.303,-0.0158,-0.2782,0.2572,-0.1839,0.2187,-0.3087,-0.0319,0.2992,0.7182,0.2452,0.1948,-0.0247,0.0276,1.0,1.0,-1.0,1.0,-1.0,1.0,1.0,0.801,0.0638,-1.0,-1.0,-1.0,1.0,1.0,1.0,-1.0,-0.3275,1.0,0.0,0.0,0.0,0.0,0.0,0.0,0.0,0.0,0.0,0.3333,0.0,0.3333,0.0,0,
2.04,run,15.49,6.24,6.11,-1.14,4.94,0.0,0.05,0.0,0.338,-32.17,-18.19,81.04,-17.05,-22.32,93.08,11.87,-21.62,126.47,-4.92,-1.14,83.5,-23.73,-9.14,84.9,-22.06,12.3,85.43,-23.0,-6.6,70.03,-12.5,-27.87,105.08,22.9,-15.61,126.79,-17.91,-11.91,72.17,-18.5,-0.24,96.52,-33.09,5.3,99.08,1.0,1.0,-1.0,-0.9538,-1.0,1.0,1.0,0.312,-1.0,-1.0,-1.0,-0.13,1.0,1.0,1.0,-1.0,0.8199,1.0,0.013,0.019,0.013,0.019,0.0,0.084,0.006,0.019,0.071,0.026,0.019,0.013,0.013,0.013,0.019,0.0,0.0,0.111,-0.5844,-0.6934,0.2316,-0.3283,-0.7179,0.3942,0.1764,-0.721,0.971,-0.0644,-0.3651,0.2746,-0.4387,-0.5292,0.2454,-0.359,-0.1181,0.2577,0.0127,-0.044,-0.2991,0.3092,-0.3175,0.2911,0.3076,-0.2689,0.2795,-0.3068,-0.1001,-0.2838,0.2691,-0.1231,0.2534,-0.3052,-0.117,0.3041,0.7373,0.2691,0.0898,0.0807,0.0627,1.0,1.0,-1.0,0.9244,-1.0,1.0,1.0,0.7416,-0.8174,-1.0,-1.0,-0.7091,1.0,1.0,1.0,-1.0,0.259,1.0,0.0,0.0,0.0,0.0,0.0,0.0,0.0,0.0,0.0,0.3333,0.0,0.3333,0.0,0,
2.08,run,15.34,7.29,-1.82,22.56,5.28,0.0,0.05,0.0,0.338,-30.76,-16.88,79.98,-15.64,-23.82,94.48,13.18,-22.06,127.27,-6.33,-2.55,82.09,-22.32,-8.7,86.22,-23.47,10.9,86.92,-21.5,-5.1,68.53,-14.0,-29.37,106.58,24.4,-17.11,125.29,-19.41,-13.41,73.67,-17.0,1.26,95.02,-34.59,6.8,100.58,1.0,1.0,-0.1853,-1.0,-1.0,1.0,1.0,-0.7001,-1.0,-1.0,-1.0,1.0,1.0,1.0,-1.0,-1.0,0.9059,1.0,0.013,0.019,0.013,0.019,0.0,0.084,0.006,0.019,0.071,0.026,0.019,0.013,0.013,0.013,0.019,0.0,0.0,0.111,-0.5614,-0.6734,0.201,-0.3037,-0.7409,0.4188,0.201,-0.7332,0.9894,-0.0874,-0.3881,0.25,-0.4142,-0.52,0.2684,-0.3835,-0.1396,0.2853,0.0973,0.0459,-0.3273,0.3108,-0.3107,0.2981,0.3097,-0.2354,0.2664,-0.3032,-0.1586,-0.293,0.2827,-0.0508,0.2658,-0.308,-0.1644,0.319,0.7627,0.272,0.1066,-0.0199,0.0862,1.0,1.0,-1.0,-0.9538,-1.0,1.0,1.0,0.312,-1.0,-1.0,-1.0,-0.13,1.0,1.0,1.0,-1.0,0.8199,1.0,0.0,0.0,0.0,0.0,0.0,0.0,0.0,0.0,0.0,0.3333,0.0,0.3333,0.0,0,
2.12,run,15.62,7.17,3.41,-6.02,8.06,0.0,0.05,0.0,0.338,-29.44,-15.56,78.49,-14.5,-25.14,95.8,14.59,-22.06,127.79,-7.82,-3.87,80.77,-20.92,-7.38,87.63,-24.79,9.58,88.15,-20.0,-3.6,67.03,-15.5,-30.87,108.08,25.9,-18.61,123.79,-17.91,-14.91,75.17,-15.5,2.76,93.52,-35.0,8.3,99.77,1.0,1.0,-0.5793,-1.0,-1.0,1.0,1.0,-1.0,-1.0,-0.4161,-1.0,1.0,1.0,1.0,-1.0,-1.0,1.0,0.4091,0.013,0.019,0.013,0.019,0.0,0.084,0.006,0.019,0.071,0.026,0.019,0.013,0.013,0.013,0.019,0.0,0.0,0.111,-0.5369,-0.6504,0.1825,-0.2792,-0.767,0.4433,0.224,-0.7409,1.0032,-0.112,-0.4126,0.2255,-0.3896,-0.5123,0.2915,-0.408,-0.1641,0.3114,0.1593,0.1176,-0.2975,0.3087,-0.3144,0.2998,0.3023,-0.1933,0.2378,-0.3034,-0.2022,-0.2963,0.2891,-0.0071,0.2715,-0.3068,-0.2063,0.3202,0.749,0.3638,-0.0317,0.3938,0.0921,1.0,1.0,-0.1853,-1.0,-1.0,1.0,1.0,-0.7001,-1.0,-1.0,-1.0,1.0,1.0,1.0,-1.0,-1.0,0.9059,1.0,0.0,0.0,0.0,0.0,0.0,0.0,0.0,0.0,0.0,0.3333,0.0,0.3333,0.0,0,
2.16,run,15.64,7.58,-0.64,6.77,9.64,0.0,0.05,0.0,0.338,-28.04,-14.15,77.17,-13.71,-26.54,97.12,15.64,-22.06,128.06,-9.4,-5.27,79.37,-19.6,-6.15,89.03,-26.02,8.44,89.38,-18.5,-2.1,68.53,-17.0,-32.37,109.58,27.4,-20.11,122.29,-16.41,-16.41,76.67,-14.0,4.26,92.02,-35.0,6.8,98.27,1.0,1.0,1.0,-1.0,-1.0,1.0,1.0,-0.6306,-1.0,0.3926,-1.0,1.0,1.0,1.0,-1.0,-1.0,0.3652,-0.8302,0.019,0.039,0.0,0.019,0.0,0.136,0.033,0.214,0.045,0.006,0.019,0.006,0.013,0.019,0.019,0.026,0.0,0.149,-0.5139,-0.6274,0.1565,-0.2592,-0.79,0.4663,0.2485,-0.7409,1.0124,-0.1381,-0.4357,0.2025,-0.3651,-0.4893,0.316,-0.431,-0.1871,0.3329,0.1979,0.1687,-0.3062,0.291,-0.3064,0.2963,0.3037,-0.1353,0.201,-0.3103,-0.2279,-0.2938,0.2945,0.0814,0.2822,-0.3011,-0.2308,0.3048,0.7738,0.3528,0.0596,-0.105,0.1406,1.0,1.0,-0.5793,-1.0,-1.0,1.0,1.0,-1.0,-1.0,-0.4161,-1.0,1.0,1.0,1.0,-1.0,-1.0,1.0,0.4091,0.0,0.0,0.0,0.0,0.0,0.0,0.0,0.0,0.0,0.3333,0.0,0.3333,0.0,0,
2.2,run,15.28,7.44,-9.4,-3.81,2.8,0.0,0.05,0.0,0.338,-26.72,-12.83,75.67,-13.01,-27.95,98.61,17.14,-21.53,128.06,-10.72,-6.77,77.96,-18.11,-4.92,90.26,-27.33,7.29,90.62,-17.0,-0.6,70.03,-18.5,-33.87,108.08,28.9,-21.61,120.79,-14.91,-17.91,78.17,-12.5,5.76,90.52,-35.0,5.3,96.77,1.0,1.0,1.0,-1.0,-1.0,0.0511,1.0,-1.0,-1.0,1.0,-1.0,1.0,0.9128,1.0,-1.0,-1.0,-0.1524,-1.0,0.019,0.039,0.0,0.019,0.0,0.136,0.033,0.214,0.045,0.006,0.019,0.006,0.013,0.019,0.019,0.026,0.0,0.149,-0.4893,-0.6029,0.1335,-0.2454,-0.8145,0.4893,0.2669,-0.7409,1.017,-0.1657,-0.4602,0.1779,-0.3421,-0.4679,0.3405,-0.4525,-0.2071,0.3543,0.2298,0.2094,-0.2999,0.255,-0.3058,0.293,0.2811,-0.0947,0.1578,-0.3199,-0.2508,-0.297,0.2918,0.1369,0.2889,-0.2907,-0.2357,0.2932,0.7757,0.3893,-0.0112,0.1181,0.1682,1.0,1.0,1.0,-1.0,-1.0,1.0,1.0,-0.6306,-1.0,0.3926,-1.0,1.0,1.0,1.0,-1.0,-1.0,0.3652,-0.8302,0.0,0.0,0.0,0.0,0.0,0.0,0.0,0.0,0.0,0.3333,0.0,0.3333,0.0,0,
2.24,run,15.3,7.15,1.33,-7.36,8.54,0.0,0.05,0.0,0.338,-25.4,-11.43,74.27,-12.48,-29.27,100.11,18.54,-21.36,128.06,-12.04,-8.09,76.99,-16.7,-3.6,91.23,-28.74,6.59,92.02,-15.5,0.9,71.53,-20.0,-35.37,106.58,30.4,-23.11,119.29,-13.41,-19.41,79.67,-11.0,7.26,89.02,-35.0,3.8,95.27,1.0,1.0,1.0,-1.0,-1.0,-1.0,1.0,-1.0,-1.0,1.0,-1.0,1.0,-0.0026,1.0,-1.0,-1.0,-0.8367,-1.0,0.019,0.039,0.0,0.019,0.0,0.136,0.033,0.214,0.045,0.006,0.019,0.006,0.013,0.019,0.019,0.026,0.0,0.149,-0.4663,-0.5798,0.1074,-0.2332,-0.8391,0.5154,0.293,-0.7317,1.017,-0.1887,-0.4863,0.1534,-0.316,-0.4464,0.362,-0.4755,-0.227,0.3758,0.2474,0.2331,-0.308,0.2247,-0.3063,0.3031,0.2948,-0.0317,0.1105,-0.3104,-0.2736,-0.3001,0.3022,0.1765,0.2829,-0.29,-0.24,0.286,0.7443,0.3763,-0.1641,-0.0665,0.0488,1.0,1.0,1.0,-1.0,-1.0,0.0511,1.0,-1.0,-1.0,1.0,-1.0,1.0,0.9128,1.0,-1.0,-1.0,-0.1524,-1.0,0.0,0.0,0.0,0.0,0.0,0.0,0.0,0.0,0.0,0.3333,0.0,0.3333,0.0,0,
2.28,run,15.41,7.35,5.24,5.27,10.22,0.0,0.05,0.0,0.338,-23.91,-10.11,72.95,-12.3,-30.59,101.6,19.86,-21.36,127.62,-13.18,-9.49,76.38,-15.29,-2.29,91.85,-30.15,5.54,93.34,-14.0,-0.6,73.03,-21.5,-36.87,105.08,28.9,-24.61,117.79,-11.91,-20.91,81.17,-12.5,8.76,87.52,-33.5,2.3,93.77,1.0,-0.0428,1.0,-1.0,-1.0,-1.0,0.5239,-1.0,-1.0,1.0,-1.0,1.0,-1.0,1.0,-1.0,0.4188,-1.0,-1.0,0.026,0.052,0.006,0.013,0.0,0.058,0.026,0.006,0.0,0.006,0.019,0.006,0.006,0.045,0.019,0.019,0.0,0.117,-0.4433,-0.5553,0.0828,-0.224,-0.8621,0.5415,0.3175,-0.7286,1.017,-0.2117,-0.5093,0.1365,-0.2915,-0.4234,0.3789,-0.5001,-0.2393,0.4004,0.2595,0.2552,-0.3077,0.1918,-0.3008,0.31,0.2984,-0.0107,0.0773,-0.3036,-0.2779,-0.2734,0.3037,0.2099,0.2614,-0.2951,-0.214,0.2923,0.7459,0.3514,0.0232,-0.1285,0.1491,1.0,1.0,1.0,-1.0,-1.0,-1.0,1.0,-1.0,-1.0,1.0,-1.0,1.0,-0.0026,1.0,-1.0,-1.0,-0.8367,-1.0,0.0,0.0,0.0,0.0,0.0,0.0,0.0,0.0,0.0,0.3333,0.0,0.3333,0.0,0,
2.32,run,15.7,7.62,7.96,6.43,9.62,0.0,0.05,0.0,0.338,-22.5,-8.79,71.81,-12.22,-32.08,102.92,21.18,-21.8,126.65,-14.06,-10.9,75.94,-13.97,-1.05,92.2,-31.38,4.39,94.39,-12.5,-2.1,74.53,-23.0,-38.37,103.58,27.4,-26.11,116.29,-10.41,-22.41,82.67,-14.0,10.26,86.02,-32.0,0.8,92.27,1.0,-0.1654,1.0,-1.0,-1.0,-1.0,-0.2436,-1.0,-1.0,1.0,-1.0,1.0,-1.0,1.0,-1.0,1.0,-1.0,-1.0,0.026,0.052,0.006,0.013,0.0,0.058,0.026,0.006,0.0,0.006,0.019,0.006,0.006,0.045,0.019,0.019,0.0,0.117,-0.4172,-0.5323,0.0598,-0.2209,-0.8851,0.5676,0.3405,-0.7286,1.0094,-0.2316,-0.5338,0.1258,-0.2669,-0.4004,0.3896,-0.5246,-0.2577,0.4234,0.2799,0.2654,-0.3021,0.1458,-0.2972,0.3153,0.2956,-0.0075,0.0252,-0.2877,-0.287,-0.2318,0.3051,0.2337,0.2234,-0.299,-0.2192,0.2913,0.7554,0.3693,0.0915,0.092,0.1783,1.0,-0.0428,1.0,-1.0,-1.0,-1.0,0.5239,-1.0,-1.0,1.0,-1.0,1.0,-1.0,1.0,-1.0,0.4188,-1.0,-1.0,0.0,0.0,0.0,0.0,0.0,0.0,0.0,0.0,0.0,0.3333,0.0,0.3333,0.0,0,
2.36,run,15.84,7.32,2.98,-7.35,4.23,0.0,0.05,0.0,0.338,-21.18,-7.56,71.02,-13.27,-33.49,103.97,22.59,-22.85,125.51,-14.59,-12.39,75.94,-13.01,0.26,92.2,-32.43,3.25,95.1,-11.0,-3.6,76.03,-24.5,-39.87,102.08,25.9,-27.61,114.79,-8.91,-23.91,84.17,-15.5,11.76,84.52,-30.5,-0.7,90.77,1.0,-0.7098,1.0,-1.0,-1.0,-0.5035,-0.9644,-1.0,-1.0,1.0,-1.0,1.0,-1.0,1.0,-1.0,1.0,-1.0,-1.0,0.026,0.052,0.006,0.013,0.0,0.058,0.026,0.006,0.0,0.006,0.019,0.006,0.006,0.045,0.019,0.019,0.0,0.117,-0.3927,-0.5093,0.0399,-0.2194,-0.9112,0.5906,0.3636,-0.7363,0.9925,-0.247,-0.5584,0.1181,-0.2439,-0.3789,0.3958,-0.5461,-0.2777,0.4418,0.2874,0.2715,-0.2857,0.1078,-0.3052,0.3064,0.2927,-0.0338,-0.0452,-0.2585,-0.2923,-0.1909,0.2993,0.2436,0.1793,-0.2893,-0.2277,0.2725,0.7805,0.3928,0.139,0.1123,0.1679,1.0,-0.1654,1.0,-1.0,-1.0,-1.0,-0.2436,-1.0,-1.0,1.0,-1.0,1.0,-1.0,1.0,-1.0,1.0,-1.0,-1.0,0.0,0.0,0.0,0.0,0.0,0.0,0.0,0.0,0.0,0.3333,0.0,0.3333,0.0,0,
2.4,run,15.98,7.06,2.87,-6.11,11.15,0.0,0.05,0.0,0.338,-19.95,-6.24,70.49,-14.24,-34.89,104.77,23.82,-23.82,124.28,-14.85,-13.8,76.29,-12.3,1.58,91.76,-33.13,2.11,95.54,-9.5,-5.1,77.53,-26.0,-41.37,100.58,24.4,-29.11,113.29,-7.41,-25.41,85.67,-17.0,13.26,83.02,-29.0,-2.2,89.27,1.0,-1.0,1.0,-1.0,-1.0,0.1374,-1.0,-1.0,-1.0,1.0,-1.0,1.0,-1.0,1.0,-1.0,1.0,-1.0,-1.0,0.045,0.045,0.006,0.033,0.0,0.026,0.026,0.006,0.013,0.006,0.026,0.013,0.006,0.117,0.006,0.0,0.0,0.026,-0.3697,-0.4878,0.0261,-0.2378,-0.9357,0.609,0.3881,-0.7547,0.9725,-0.2562,-0.5844,0.1181,-0.227,-0.3559,0.3958,-0.5645,-0.2976,0.4541,0.2876,0.2707,-0.2519,0.0063,-0.3058,0.2836,0.297,-0.0928,-0.1065,-0.2155,-0.3026,-0.1336,0.2728,0.2569,0.1255,-0.2717,-0.2343,0.2368,0.7927,0.3664,0.052,-0.1282,0.0739,1.0,-0.7098,1.0,-1.0,-1.0,-0.5035,-0.9644,-1.0,-1.0,1.0,-1.0,1.0,-1.0,1.0,-1.0,1.0,-1.0,-1.0,0.0,0.0,0.0,0.0,0.0,0.0,0.0,0.0,0.0,0.3333,0.0,0.3333,0.0,0,
2.44,run,16.27,6.83,7.68,-5.32,15.9,0.0,0.05,0.0,0.338,-18.63,-5.1,70.31,-15.64,-36.21,105.21,24.87,-25.22,123.4,-14.77,-15.21,77.17,-11.78,2.9,90.97,-33.57,0.88,95.62,-8.0,-6.6,79.03,-27.5,-42.87,99.08,22.9,-30.61,111.79,-5.91,-26.91,87.17,-18.5,14.76,81.52,-27.5,-3.7,87.77,1.0,-1.0,1.0,-1.0,-1.0,0.2805,-1.0,-0.9878,-1.0,1.0,-1.0,1.0,-1.0,1.0,-1.0,1.0,-1.0,-1.0,0.045,0.045,0.006,0.033,0.0,0.026,0.026,0.006,0.013,0.006,0.026,0.013,0.006,0.117,0.006,0.0,0.0,0.026,-0.3482,-0.4648,0.0169,-0.2546,-0.9603,0.6228,0.4096,-0.7716,0.9511,-0.2608,-0.609,0.1243,-0.2148,-0.3329,0.3881,-0.5768,-0.3175,0.4617,0.2818,0.2758,-0.2108,-0.0588,-0.3061,0.2503,0.2884,-0.1282,-0.1551,-0.1681,-0.3038,-0.0705,0.237,0.2661,0.0591,-0.2362,-0.2388,0.1945,0.8051,0.3436,0.0501,-0.1066,0.1946,1.0,-1.0,1.0,-1.0,-1.0,0.1374,-1.0,-1.0,-1.0,1.0,-1.0,1.0,-1.0,1.0,-1.0,1.0,-1.0,-1.0,0.0,0.0,0.0,0.0,0.0,0.0,0.0,0.0,0.0,0.3333,0.0,0.3333,0.0,0,
2.48,run,16.59,6.61,9.31,-6.79,15.44,0.0,0.05,0.0,0.338,-17.23,-4.39,70.31,-17.05,-37.62,105.38,25.84,-26.54,121.9,-13.97,-16.61,78.31,-11.69,4.31,89.82,-33.66,-0.35,95.62,-6.5,-8.1,80.53,-29.0,-44.37,97.58,21.4,-32.11,110.29,-4.41,-28.41,88.67,-20.0,16.26,80.02,-26.0,-5.2,86.27,1.0,-1.0,1.0,-1.0,-1.0,0.0253,-1.0,-0.5642,-1.0,1.0,-1.0,1.0,-1.0,1.0,-1.0,1.0,-1.0,-1.0,0.045,0.045,0.006,0.033,0.0,0.026,0.026,0.006,0.013,0.006,0.026,0.013,0.006,0.117,0.006,0.0,0.0,0.026,-0.3252,-0.4449,0.0138,-0.2792,-0.9833,0.6305,0.428,-0.7961,0.9357,-0.2592,-0.6335,0.1396,-0.2056,-0.3099,0.3743,-0.5844,-0.339,0.4633,0.2836,0.2678,-0.1591,-0.1332,-0.3005,0.204,0.2709,-0.1818,-0.1661,-0.1119,-0.3047,0.0082,0.2004,0.2725,-0.0104,-0.1941,-0.2477,0.1419,0.8303,0.3234,0.134,-0.0928,0.2774,1.0,-1.0,1.0,-1.0,-1.0,0.2805,-1.0,-0.9878,-1.0,1.0,-1.0,1.0,-1.0,1.0,-1.0,1.0,-1.0,-1.0,0.0,0.0,0.0,0.0,0.0,0.0,0.0,0.0,0.0,0.3333,0.0,0.3333,0.0,0,
2.52,run,16.85,6.23,6.76,-7.38,8.19,0.0,0.05,0.0,0.338,-15.64,-3.78,70.93,-18.72,-39.11,104.77,26.46,-28.12,120.23,-12.92,-18.28,79.89,-12.39,5.89,88.24,-33.13,-1.76,94.75,-5.0,-9.6,82.03,-30.5,-45.87,96.08,19.9,-31.42,108.79,-2.91,-29.91,90.17,-21.5,17.76,78.52,-24.5,-6.7,84.77,1.0,-1.0,1.0,-1.0,-1.0,-0.4225,-1.0,-0.1168,-1.0,1.0,-1.0,1.0,-1.0,1.0,-1.0,1.0,-0.9519,-1.0,0.071,0.026,0.039,0.026,0.0,0.0,0.013,0.013,0.033,0.019,0.019,0.006,0.026,0.136,0.006,0.013,0.006,0.006,-0.3007,-0.4326,0.0138,-0.3037,-1.0078,0.6335,0.4449,-0.8191,0.9097,-0.2454,-0.6581,0.1595,-0.204,-0.2853,0.3543,-0.586,-0.3605,0.4633,0.2903,0.2334,-0.1114,-0.1851,-0.3022,0.1543,0.2528,-0.2133,-0.2138,-0.0267,-0.3051,0.0803,0.146,0.2826,-0.0819,-0.1416,-0.2537,0.0993,0.8583,0.3043,0.1624,-0.1185,0.2694,1.0,-1.0,1.0,-1.0,-1.0,0.0253,-1.0,-0.5642,-1.0,1.0,-1.0,1.0,-1.0,1.0,-1.0,1.0,-1.0,-1.0,0.0,0.0,0.0,0.0,0.0,0.0,0.0,0.0,0.0,0.3333,0.0,0.3333,0.0,0,
2.56,run,17.13,5.9,8.73,-11.25,-4.86,0.0,0.05,0.0,0.338,-14.33,-3.69,71.63,-19.86,-40.17,104.41,26.63,-29.09,119.0,-11.95,-19.42,81.04,-12.83,7.03,87.1,-32.52,-2.72,93.87,-3.5,-11.1,83.53,-32.0,-47.37,94.58,18.4,-29.92,107.29,-1.41,-31.41,91.67,-23.0,19.26,77.02,-23.0,-8.2,83.27,1.0,-1.0,1.0,-1.0,-1.0,-1.0,-1.0,0.5106,-1.0,1.0,-1.0,1.0,-1.0,1.0,-1.0,1.0,-0.189,-1.0,0.071,0.026,0.039,0.026,0.0,0.0,0.013,0.013,0.033,0.019,0.019,0.006,0.026,0.136,0.006,0.013,0.006,0.006,-0.273,-0.4218,0.0245,-0.3329,-1.0339,0.6228,0.4556,-0.8468,0.8805,-0.227,-0.6872,0.1871,-0.2163,-0.2577,0.3267,-0.5768,-0.385,0.4479,0.2932,0.1984,-0.0429,-0.2246,-0.2966,0.073,0.212,-0.2394,-0.2447,0.0413,-0.3086,0.1462,0.0622,0.2879,-0.1474,-0.0691,-0.2576,0.0195,0.8809,0.2713,0.1181,-0.1288,0.1429,1.0,-1.0,1.0,-1.0,-1.0,-0.4225,-1.0,-0.1168,-1.0,1.0,-1.0,1.0,-1.0,1.0,-1.0,1.0,-0.9519,-1.0,0.0,0.0,0.0,0.0,0.0,0.0,0.0,0.0,0.0,0.3333,0.0,0.3333,0.0,0,
2.6,run,17.55,5.67,11.35,-4.94,-8.09,0.0,0.05,0.0,0.338,-12.83,-3.69,72.77,-21.45,-41.48,103.27,26.63,-30.15,117.6,-10.46,-20.83,82.44,-13.8,8.53,85.69,-31.29,-3.52,92.55,-2.0,-12.6,85.03,-33.5,-48.87,93.08,16.9,-28.42,105.79,0.09,-32.91,93.17,-24.5,20.76,75.52,-21.5,-6.7,81.77,0.7681,-1.0,1.0,-1.0,-0.442,-1.0,-1.0,0.8461,-1.0,1.0,-1.0,1.0,-1.0,1.0,-1.0,1.0,0.5973,-1.0,0.071,0.026,0.039,0.026,0.0,0.0,0.013,0.013,0.033,0.019,0.019,0.006,0.026,0.136,0.006,0.013,0.006,0.006,-0.25,-0.4203,0.0368,-0.3528,-1.0523,0.6167,0.4587,-0.8636,0.859,-0.2102,-0.7072,0.2071,-0.224,-0.2378,0.3068,-0.566,-0.4019,0.4326,0.3078,0.1457,0.0246,-0.2461,-0.2896,0.0237,0.162,-0.2427,-0.267,0.1041,-0.3049,0.1912,0.0094,0.2904,-0.192,-0.0005,-0.2555,-0.0547,0.9052,0.242,0.1524,-0.1963,-0.0848,1.0,-1.0,1.0,-1.0,-1.0,-1.0,-1.0,0.5106,-1.0,1.0,-1.0,1.0,-1.0,1.0,-1.0,1.0,-0.189,-1.0,0.0,0.0,0.0,0.0,0.0,0.0,0.0,0.0,0.0,0.3333,0.0,0.3333,0.0,0,
2.64,run,17.95,5.5,10.92,-3.31,-10.92,0.0,0.05,0.0,0.338,-11.6,-4.13,74.18,-22.85,-42.71,101.95,26.28,-30.94,116.28,-9.05,-22.32,83.85,-15.21,9.84,84.2,-29.97,-5.01,91.23,-0.5,-14.1,86.53,-35.0,-47.37,91.58,15.4,-27.63,104.29,1.59,-34.41,94.67,-26.0,22.26,74.02,-20.0,-5.2,80.27,0.0308,-1.0,1.0,-1.0,0.2681,-1.0,-1.0,-0.0478,-1.0,1.0,-1.0,1.0,-1.0,1.0,-1.0,1.0,1.0,-1.0,0.097,0.0,0.045,0.019,0.026,0.013,0.019,0.006,0.026,0.013,0.026,0.006,0.026,0.169,0.0,0.006,0.006,0.013,-0.224,-0.4203,0.0568,-0.3804,-1.0753,0.5967,0.4587,-0.882,0.8345,-0.1841,-0.7317,0.2316,-0.2408,-0.2117,0.2823,-0.5446,-0.4157,0.4096,0.3124,0.102,0.0914,-0.2749,-0.2883,-0.0575,0.1134,-0.2384,-0.2782,0.1699,-0.3047,0.2251,-0.0562,0.3002,-0.2257,0.0795,-0.2302,-0.1239,0.9421,0.2226,0.1981,-0.0863,-0.1412,0.7681,-1.0,1.0,-1.0,-0.442,-1.0,-1.0,0.8461,-1.0,1.0,-1.0,1.0,-1.0,1.0,-1.0,1.0,0.5973,-1.0,0.0,0.0,0.0,0.0,0.0,0.0,0.0,0.0,0.0,0.3333,0.0,0.3333,0.0,0,
2.68,run,18.32,5.26,9.53,-5.45,-13.47,0.0,0.05,0.0,0.338,-10.2,-4.92,75.5,-24.35,-43.77,100.55,25.66,-31.38,114.87,-7.65,-23.73,85.25,-16.61,11.25,82.71,-28.3,-6.15,89.91,1.0,-15.6,88.03,-35.0,-45.87,90.08,13.9,-26.13,102.79,3.09,-35.91,96.17,-27.5,23.76,72.52,-18.5,-3.7,78.77,0.49,-1.0,1.0,-1.0,0.653,-1.0,-1.0,0.2156,-1.0,1.0,-0.4242,1.0,-1.0,1.0,-1.0,1.0,1.0,-1.0,0.097,0.0,0.045,0.019,0.026,0.013,0.019,0.006,0.026,0.013,0.026,0.006,0.026,0.169,0.0,0.006,0.006,0.013,-0.2025,-0.428,0.0813,-0.405,-1.0968,0.5737,0.4525,-0.8958,0.8115,-0.1595,-0.7578,0.2562,-0.2654,-0.1887,0.2562,-0.5216,-0.4418,0.3866,0.2999,0.0424,0.1567,-0.2852,-0.283,-0.1272,0.0562,-0.219,-0.2817,0.2117,-0.3118,0.2504,-0.1321,0.2971,-0.2565,0.1426,-0.2597,-0.1736,0.9772,0.2071,0.1905,-0.0577,-0.1906,0.0308,-1.0,1.0,-1.0,0.2681,-1.0,-1.0,-0.0478,-1.0,1.0,-1.0,1.0,-1.0,1.0,-1.0,1.0,1.0,-1.0,0.0,0.0,0.0,0.0,0.0,0.0,0.0,0.0,0.0,0.3333,0.0,0.3333,0.0,0,
2.72,run,18.79,5.3,11.05,1.13,-16.45,0.0,0.05,0.0,0.338,-8.88,-6.24,76.9,-25.84,-45.09,99.14,24.17,-31.46,113.29,-6.24,-25.05,86.75,-18.02,12.66,81.3,-26.98,-6.94,88.51,-0.36,-17.1,89.53,-35.0,-44.37,88.58,12.4,-24.63,101.29,4.59,-34.41,97.67,-29.0,25.26,71.02,-17.0,-2.2,77.27,-0.0102,-1.0,1.0,-1.0,1.0,-1.0,-1.0,0.2761,-1.0,1.0,0.7412,1.0,-1.0,1.0,-1.0,1.0,1.0,-1.0,0.097,0.0,0.045,0.019,0.026,0.013,0.019,0.006,0.026,0.013,0.026,0.006,0.026,0.169,0.0,0.006,0.006,0.013,-0.1779,-0.4418,0.1043,-0.431,-1.1152,0.5492,0.4418,-0.9035,0.7869,-0.135,-0.7823,0.2807,-0.2899,-0.1641,0.2301,-0.4924,-0.4617,0.3636,0.3014,-0.0218,0.1955,-0.2969,-0.2667,-0.1806,-0.0007,-0.1819,-0.2887,0.2397,-0.3098,0.2667,-0.184,0.2995,-0.2768,0.2085,-0.2561,-0.2073,1.0092,0.1866,0.1663,-0.0951,-0.2351,0.49,-1.0,1.0,-1.0,0.653,-1.0,-1.0,0.2156,-1.0,1.0,-0.4242,1.0,-1.0,1.0,-1.0,1.0,1.0,-1.0,0.0,0.0,0.0,0.0,0.0,0.0,0.0,0.0,0.0,0.3333,0.0,0.3333,0.0,0,
2.76,run,19.27,5.56,12.57,7.64,-11.65,0.0,0.05,0.0,0.338,-7.47,-7.47,78.4,-27.16,-45.88,97.65,22.85,-31.03,111.97,-4.75,-26.54,88.15,-19.42,14.15,79.8,-25.58,-7.47,87.28,1.14,-18.6,91.03,-35.0,-42.87,87.08,10.9,-26.13,99.79,6.09,-32.91,99.17,-30.5,26.76,69.52,-15.5,-0.7,75.77,0.2088,-1.0,1.0,-1.0,1.0,-0.625,-1.0,-0.679,-1.0,1.0,1.0,1.0,-1.0,1.0,-1.0,1.0,1.0,-1.0,0.111,0.0,0.058,0.019,0.013,0.006,0.013,0.013,0.019,0.013,0.019,0.006,0.033,0.175,0.0,0.006,0.006,0.006,-0.1549,-0.4648,0.1289,-0.4571,-1.1382,0.5246,0.4157,-0.905,0.7593,-0.1104,-0.8053,0.3068,-0.3145,-0.1396,0.2056,-0.4694,-0.4755,0.339,0.2913,-0.0955,0.2225,-0.2988,-0.267,-0.212,-0.0915,-0.1327,-0.2984,0.2534,-0.2971,0.2777,-0.2144,0.2953,-0.2794,0.2262,-0.2275,-0.2308,1.0503,0.19,0.1928,0.0197,-0.2871,-0.0102,-1.0,1.0,-1.0,1.0,-1.0,-1.0,0.2761,-1.0,1.0,0.7412,1.0,-1.0,1.0,-1.0,1.0,1.0,-1.0,0.0,0.0,0.0,0.0,0.0,0.0,0.0,0.0,0.0,0.3333,0.0,0.3333,0.0,0,
2.8,run,19.68,5.79,9.44,5.8,-9.39,0.0,0.05,0.0,0.338,-6.24,-8.88,79.72,-28.56,-46.49,96.33,21.36,-30.06,110.57,-3.34,-28.04,89.56,-20.83,15.56,78.4,-24.08,-7.56,85.69,2.64,-20.1,92.53,-35.0,-41.37,85.58,9.4,-27.63,98.29,7.59,-31.41,100.67,-32.0,28.26,68.02,-14.0,0.8,74.27,0.9588,-0.9008,1.0,-1.0,1.0,-0.0235,-1.0,-1.0,-1.0,1.0,1.0,1.0,-1.0,1.0,-1.0,1.0,1.0,-1.0,0.111,0.0,0.058,0.019,0.013,0.006,0.013,0.013,0.019,0.013,0.019,0.006,0.033,0.175,0.0,0.006,0.006,0.006,-0.1304,-0.4863,0.1549,-0.4801,-1.152,0.4985,0.3927,-0.8974,0.7363,-0.0844,-0.8314,0.3313,-0.339,-0.1135,0.1795,-0.4449,-0.4847,0.3175,0.3034,-0.1539,0.2614,-0.3024,-0.2428,-0.2541,-0.1573,-0.0618,-0.3022,0.2831,-0.3137,0.2939,-0.2496,0.3124,-0.3013,0.2578,-0.1965,-0.2486,1.0922,0.2127,0.2193,0.1333,-0.2033,0.2088,-1.0,1.0,-1.0,1.0,-0.625,-1.0,-0.679,-1.0,1.0,1.0,1.0,-1.0,1.0,-1.0,1.0,1.0,-1.0,0.0,0.0,0.0,0.0,0.0,0.0,0.0,0.0,0.0,0.3333,0.0,0.3333,0.0,0,
2.84,run,20.08,5.92,10.1,3.15,-7.99,0.0,0.05,0.0,0.338,-4.75,-10.37,81.12,-30.06,-46.76,94.92,20.04,-29.18,109.16,-1.85,-29.27,90.97,-22.24,16.88,76.99,-22.76,-7.56,84.29,4.14,-21.6,94.03,-35.0,-39.87,84.08,7.9,-29.13,96.79,9.09,-29.91,102.17,-33.5,29.76,66.52,-12.5,2.3,72.77,1.0,-0.059,1.0,-1.0,1.0,0.1462,-1.0,-1.0,-1.0,1.0,1.0,1.0,-1.0,1.0,-1.0,1.0,1.0,-1.0,0.111,0.0,0.058,0.019,0.013,0.006,0.013,0.013,0.019,0.013,0.019,0.006,0.033,0.175,0.0,0.006,0.006,0.006,-0.1089,-0.5108,0.1779,-0.5047,-1.1628,0.4755,0.3666,-0.8805,0.7118,-0.0598,-0.8575,0.3559,-0.3636,-0.089,0.1549,-0.4188,-0.4863,0.2899,0.2932,-0.2001,0.2696,-0.304,-0.2104,-0.2645,-0.2082,0.0202,-0.3038,0.2905,-0.3177,0.2981,-0.267,0.311,-0.3032,0.2786,-0.1433,-0.2779,1.128,0.2329,0.1647,0.1012,-0.1638,0.9588,-0.9008,1.0,-1.0,1.0,-0.0235,-1.0,-1.0,-1.0,1.0,1.0,1.0,-1.0,1.0,-1.0,1.0,1.0,-1.0,0.0,0.0,0.0,0.0,0.0,0.0,0.0,0.0,0.0,0.3333,0.0,0.3333,0.0,0,
2.88,run,20.47,6.13,9.79,4.76,-5.01,0.0,0.05,0.0,0.338,-3.43,-11.87,82.53,-31.46,-46.76,93.43,18.63,-28.3,107.67,-0.44,-30.41,92.37,-23.64,18.19,75.5,-21.27,-6.94,82.88,5.64,-20.1,95.53,-35.0,-38.37,82.58,6.4,-30.63,95.29,10.59,-28.41,103.67,-35.0,30.0,65.02,-11.0,3.8,71.27,1.0,0.1473,1.0,-1.0,1.0,-0.1744,-1.0,-1.0,-1.0,1.0,1.0,1.0,-1.0,1.0,-1.0,1.0,1.0,-1.0,0.117,0.0,0.052,0.013,0.006,0.013,0.019,0.0,0.019,0.019,0.033,0.013,0.045,0.163,0.0,0.006,0.006,0.013,-0.0828,-0.5369,0.2025,-0.5308,-1.1674,0.451,0.3436,-0.8652,0.6872,-0.0337,-0.879,0.3804,-0.3881,-0.066,0.1304,-0.3958,-0.4863,0.2654,0.3028,-0.2376,0.2805,-0.3104,-0.1645,-0.2769,-0.2318,0.0715,-0.3045,0.3009,-0.3027,0.3004,-0.2787,0.3038,-0.3041,0.2811,-0.1003,-0.2863,1.1631,0.2439,0.1763,0.055,-0.1394,1.0,-0.059,1.0,-1.0,1.0,0.1462,-1.0,-1.0,-1.0,1.0,1.0,1.0,-1.0,1.0,-1.0,1.0,1.0,-1.0,0.0,0.0,0.0,0.0,0.0,0.0,0.0,0.0,0.0,0.3333,0.0,0.3333,0.0,0,
2.92,run,20.88,6.38,10.06,5.49,-4.94,0.0,0.05,0.0,0.338,-2.11,-13.27,84.02,-32.61,-46.41,92.02,17.23,-27.77,106.26,0.97,-31.11,93.78,-25.05,19.69,74.09,-19.86,-6.15,81.3,7.14,-18.6,97.03,-35.0,-36.87,81.08,4.9,-32.13,93.79,12.09,-26.91,105.17,-35.0,30.0,63.52,-9.5,5.3,69.77,1.0,0.5361,1.0,-1.0,0.9732,-0.0286,-1.0,-1.0,-1.0,1.0,1.0,1.0,-1.0,1.0,-1.0,1.0,1.0,-1.0,0.117,0.0,0.052,0.013,0.006,0.013,0.019,0.0,0.019,0.019,0.033,0.013,0.045,0.163,0.0,0.006,0.006,0.013,-0.0598,-0.563,0.227,-0.5553,-1.1674,0.4249,0.3191,-0.8498,0.6611,-0.0092,-0.8989,0.405,-0.4126,-0.043,0.1043,-0.3697,-0.4755,0.2408,0.2982,-0.2641,0.2884,-0.3093,-0.1151,-0.2916,-0.2543,0.1076,-0.3109,0.3027,-0.2867,0.3023,-0.2871,0.2989,-0.3106,0.2945,-0.03,-0.2925,1.1967,0.2624,0.1708,0.0831,-0.0875,1.0,0.1473,1.0,-1.0,1.0,-0.1744,-1.0,-1.0,-1.0,1.0,1.0,1.0,-1.0,1.0,-1.0,1.0,1.0,-1.0,0.0,0.0,0.0,0.0,0.0,0.0,0.0,0.0,0.0,0.3333,0.0,0.3333,0.0,0,
2.96,run,21.25,6.57,9.19,4.28,1.58,0.0,0.05,0.0,0.338,-0.7,-14.68,85.34,-33.57,-45.62,90.62,15.73,-27.86,104.85,2.29,-31.73,95.19,-26.37,21.09,72.69,-18.46,-5.27,79.8,8.64,-17.1,98.53,-35.0,-35.37,79.58,3.4,-33.63,92.29,13.59,-25.41,106.67,-35.0,30.0,62.02,-8.0,6.8,68.27,1.0,0.9524,1.0,-1.0,0.7215,0.0801,-1.0,-1.0,-1.0,1.0,1.0,1.0,-1.0,1.0,-1.0,1.0,1.0,-1.0,0.117,0.0,0.052,0.013,0.006,0.013,0.019,0.0,0.019,0.019,0.033,0.013,0.045,0.163,0.0,0.006,0.006,0.013,-0.0368,-0.5875,0.2531,-0.5752,-1.1612,0.4004,0.2945,-0.8406,0.6366,0.0153,-0.9112,0.4295,-0.4372,-0.0169,0.0798,-0.3451,-0.4617,0.2132,0.295,-0.2769,0.2996,-0.2913,-0.0576,-0.2961,-0.27,0.1098,-0.3097,0.3039,-0.2467,0.3036,-0.293,0.307,-0.3094,0.2982,0.0308,-0.3082,1.233,0.284,0.1756,0.0959,-0.0863,1.0,0.5361,1.0,-1.0,0.9732,-0.0286,-1.0,-1.0,-1.0,1.0,1.0,1.0,-1.0,1.0,-1.0,1.0,1.0,-1.0,0.0,0.0,0.0,0.0,0.0,0.0,0.0,0.0,0.0,0.3333,0.0,0.3333,0.0,0,
3.0,run,21.63,6.6,9.65,0.13,4.02,0.0,0.05,0.0,0.338,0.7,-16.08,86.75,-34.19,-44.56,89.12,14.33,-27.95,103.45,3.78,-31.99,96.68,-27.77,22.5,71.19,-17.14,-3.78,78.4,10.14,-15.6,100.03,-35.0,-33.87,81.08,1.9,-35.13,90.79,15.09,-23.91,108.17,-35.0,30.0,60.52,-6.5,8.3,66.77,1.0,1.0,1.0,-1.0,0.2894,0.2895,-1.0,-1.0,-1.0,1.0,1.0,1.0,-1.0,1.0,-1.0,1.0,1.0,-1.0,0.117,0.0,0.058,0.006,0.019,0.013,0.019,0.013,0.026,0.019,0.0,0.006,0.045,0.163,0.0,0.019,0.006,0.006,-0.0123,-0.6121,0.2761,-0.5921,-1.1474,0.3758,0.2684,-0.8422,0.6121,0.0383,-0.9219,0.4541,-0.4602,0.0077,0.0552,-0.3206,-0.4464,0.1871,0.2985,-0.2858,0.296,-0.2671,0.0114,-0.2993,-0.2867,0.0711,-0.3087,0.2989,-0.2129,0.3045,-0.2913,0.3069,-0.3086,0.3007,0.079,-0.3135,1.2647,0.3011,0.1604,0.0747,0.0276,1.0,0.9524,1.0,-1.0,0.7215,0.0801,-1.0,-1.0,-1.0,1.0,1.0,1.0,-1.0,1.0,-1.0,1.0,1.0,-1.0,0.0,0.0,0.0,0.0,0.0,0.0,0.0,0.0,0.0,0.3333,0.0,0.3333,0.0,0,
3.04,run,22.01,6.23,8.33,-8.84,-0.05,0.0,0.05,0.0,0.338,2.46,-17.23,88.33,-34.63,-43.42,87.45,12.66,-29.0,101.78,5.45,-31.99,98.26,-29.36,23.99,69.52,-15.47,-2.11,76.82,11.64,-14.1,101.53,-35.0,-33.69,82.58,0.4,-36.63,89.29,16.59,-22.41,109.67,-35.0,30.0,59.02,-5.0,9.8,65.27,1.0,1.0,1.0,-1.0,-0.158,0.8746,-1.0,-1.0,-1.0,1.0,1.0,1.0,-1.0,1.0,-1.0,1.0,1.0,-1.0,0.117,0.0,0.058,0.006,0.019,0.013,0.019,0.013,0.026,0.019,0.0,0.006,0.045,0.163,0.0,0.019,0.006,0.006,0.0123,-0.6366,0.3007,-0.6029,-1.129,0.3497,0.2439,-0.8437,0.5875,0.0644,-0.9265,0.4801,-0.4847,0.0322,0.0291,-0.2976,-0.4203,0.1626,0.301,-0.2921,0.2992,-0.2273,0.077,-0.3073,-0.2928,0.044,-0.3082,0.3071,-0.1663,0.311,-0.296,0.3069,-0.3138,0.2968,0.1531,-0.3115,1.2981,0.3033,0.1684,0.0022,0.0701,1.0,1.0,1.0,-1.0,0.2894,0.2895,-1.0,-1.0,-1.0,1.0,1.0,1.0,-1.0,1.0,-1.0,1.0,1.0,-1.0,0.0,0.0,0.0,0.0,0.0,0.0,0.0,0.0,0.0,0.3333,0.0,0.3333,0.0,0,
3.08,run,22.3,5.91,9.27,-9.8,-5.3,0.0,0.05,0.0,0.338,3.6,-17.84,89.56,-34.63,-42.01,86.22,11.6,-29.79,100.72,6.59,-31.82,99.4,-30.5,25.22,68.29,-14.24,-0.88,75.59,13.14,-12.6,103.03,-35.0,-35.19,84.08,-1.1,-38.13,87.79,18.09,-20.91,111.17,-35.0,30.0,57.52,-3.5,11.3,63.77,1.0,0.9132,1.0,-1.0,-0.4642,1.0,-1.0,-1.0,-1.0,1.0,1.0,1.0,-1.0,1.0,-1.0,1.0,1.0,-1.0,0.117,0.0,0.058,0.006,0.019,0.013,0.019,0.013,0.026,0.019,0.0,0.006,0.045,0.163,0.0,0.019,0.006,0.006,0.043,-0.6565,0.3283,-0.6105,-1.1091,0.3206,0.2148,-0.8621,0.5584,0.0936,-0.9265,0.5077,-0.5123,0.0583,0.0,-0.2684,-0.3912,0.135,0.3096,-0.2687,0.2984,-0.1838,0.1182,-0.309,-0.2989,-0.0285,-0.3096,0.3089,-0.1164,0.3067,-0.2962,0.2988,-0.3136,0.3017,0.2011,-0.307,1.3313,0.2714,0.1454,-0.1543,-0.0009,1.0,1.0,1.0,-1.0,-0.158,0.8746,-1.0,-1.0,-1.0,1.0,1.0,1.0,-1.0,1.0,-1.0,1.0,1.0,-1.0,0.0,0.0,0.0,0.0,0.0,0.0,0.0,0.0,0.0,0.3333,0.0,0.3333,0.0,0,
3.12,run,22.49,5.52,4.64,-10.73,-1.3,0.0,0.05,0.0,0.338,4.92,-18.28,90.97,-34.63,-40.52,84.73,10.2,-30.94,99.14,8.0,-31.2,100.81,-31.9,26.46,66.88,-12.92,0.53,74.27,14.64,-11.1,104.53,-35.0,-36.69,85.58,-2.6,-39.63,86.29,19.59,-19.41,109.67,-35.0,30.0,56.02,-2.0,12.8,62.27,1.0,0.776,1.0,-1.0,-0.7312,1.0,-1.0,-1.0,-1.0,1.0,1.0,0.5016,-1.0,1.0,-1.0,1.0,1.0,-1.0,0.143,0.0,0.058,0.006,0.013,0.006,0.026,0.019,0.019,0.019,0.033,0.006,0.026,0.143,0.0,0.013,0.019,0.013,0.0629,-0.6673,0.3497,-0.6105,-1.0845,0.2991,0.1963,-0.8759,0.54,0.1135,-0.9235,0.5277,-0.5323,0.0798,-0.0215,-0.247,-0.3697,0.1135,0.3068,-0.2366,0.3059,-0.1287,0.1936,-0.3134,-0.2924,-0.0823,-0.2999,0.3063,-0.0676,0.3048,-0.2974,0.3062,-0.3166,0.3082,0.2378,-0.312,1.3569,0.243,0.1618,-0.171,-0.0924,1.0,0.9132,1.0,-1.0,-0.4642,1.0,-1.0,-1.0,-1.0,1.0,1.0,1.0,-1.0,1.0,-1.0,1.0,1.0,-1.0,0.0,0.0,0.0,0.0,0.0,0.0,0.0,0.0,0.0,0.3333,0.0,0.3333,0.0,0,
3.16,run,22.69,4.96,5.75,-13.48,-1.23,0.0,0.05,0.0,0.338,6.42,-18.46,92.37,-34.63,-39.2,83.85,8.79,-32.61,97.82,9.49,-30.06,102.3,-32.96,27.33,65.48,-11.43,1.93,72.86,16.14,-9.6,106.03,-35.0,-38.19,87.08,-4.1,-41.13,84.79,18.09,-17.91,108.17,-35.0,30.0,54.52,-0.5,14.3,60.77,1.0,0.5014,1.0,-1.0,-0.8352,1.0,-1.0,-0.401,-0.5984,0.4326,1.0,-0.2322,-1.0,1.0,-1.0,1.0,1.0,-1.0,0.143,0.0,0.058,0.006,0.013,0.006,0.026,0.019,0.019,0.019,0.033,0.006,0.026,0.143,0.0,0.013,0.019,0.013,0.0859,-0.675,0.3743,-0.6105,-1.0584,0.273,0.1718,-0.8958,0.5123,0.1381,-0.9127,0.5522,-0.5568,0.1012,-0.046,-0.224,-0.3451,0.0905,0.3008,-0.1943,0.3059,-0.0901,0.233,-0.3168,-0.2964,-0.1322,-0.3132,0.3062,-0.0072,0.3051,-0.3,0.2946,-0.3133,0.3018,0.2582,-0.3044,1.3735,0.209,0.081,-0.1873,-0.0226,1.0,0.776,1.0,-1.0,-0.7312,1.0,-1.0,-1.0,-1.0,1.0,1.0,0.5016,-1.0,1.0,-1.0,1.0,1.0,-1.0,0.0,0.0,0.0,0.0,0.0,0.0,0.0,0.0,0.0,0.3333,0.0,0.3333,0.0,0,
3.2,run,22.96,4.44,6.23,-13.32,-0.24,0.0,0.05,0.0,0.338,7.82,-18.46,93.78,-34.8,-38.14,83.06,7.47,-33.93,96.42,10.81,-28.3,103.71,-33.75,28.12,64.16,-9.93,3.34,71.37,17.64,-11.1,107.53,-35.0,-39.69,88.58,-5.6,-39.63,86.29,16.59,-16.41,106.67,-35.0,30.0,53.02,1.0,15.8,59.27,1.0,-0.0686,1.0,-1.0,-1.0,1.0,-1.0,0.186,0.4942,-0.9205,1.0,-0.9723,-1.0,1.0,-1.0,1.0,1.0,-1.0,0.143,0.0,0.058,0.006,0.013,0.006,0.026,0.019,0.019,0.019,0.033,0.006,0.026,0.143,0.0,0.013,0.019,0.013,0.112,-0.678,0.3988,-0.6105,-1.0354,0.2577,0.1473,-0.925,0.4893,0.1641,-0.8928,0.5783,-0.5752,0.1166,-0.0706,-0.1979,-0.3206,0.066,0.3081,-0.1475,0.3059,-0.063,0.2492,-0.2791,-0.2993,-0.2015,-0.3053,0.3118,0.0695,0.3111,-0.2788,0.2636,-0.3111,0.3087,0.2725,-0.3048,1.3906,0.1601,0.1003,-0.2353,-0.0215,1.0,0.5014,1.0,-1.0,-0.8352,1.0,-1.0,-0.401,-0.5984,0.4326,1.0,-0.2322,-1.0,1.0,-1.0,1.0,1.0,-1.0,0.0,0.0,0.0,0.0,0.0,0.0,0.0,0.0,0.0,0.3333,0.0,0.3333,0.0,0,
3.24,run,22.99,3.87,0.89,-14.29,1.38,0.0,0.05,0.0,0.338,9.23,-18.37,95.19,-34.98,-37.35,82.79,6.06,-35.33,94.92,12.22,-26.81,105.03,-34.19,28.65,62.67,-8.53,4.75,69.96,19.14,-12.6,109.03,-35.0,-41.19,90.08,-7.1,-41.13,87.79,15.09,-14.91,105.17,-35.0,30.0,51.52,2.5,17.3,57.77,1.0,-0.7676,1.0,-1.0,-1.0,1.0,-1.0,-0.3083,1.0,-1.0,1.0,-1.0,-1.0,1.0,-1.0,1.0,1.0,-1.0,0.111,0.104,0.058,0.0,0.013,0.0,0.033,0.013,0.019,0.013,0.013,0.0,0.026,0.091,0.0,0.013,0.026,0.013,0.1365,-0.678,0.4234,-0.6136,-1.017,0.2439,0.1243,-0.948,0.4648,0.1871,-0.8621,0.6029,-0.589,0.1304,-0.0936,-0.1718,-0.2961,0.0399,0.3078,-0.1032,0.3063,-0.0557,0.2435,-0.2473,-0.2959,-0.2275,-0.3059,0.3047,0.1639,0.3099,-0.247,0.2364,-0.3042,0.3141,0.283,-0.3113,1.4145,0.1153,0.1087,-0.2324,-0.0042,1.0,-0.0686,1.0,-1.0,-1.0,1.0,-1.0,0.186,0.4942,-0.9205,1.0,-0.9723,-1.0,1.0,-1.0,1.0,1.0,-1.0,0.0,0.0,0.0,0.0,0.0,0.0,0.0,0.0,0.0,0.3333,0.0,0.3333,0.0,0,
3.28,run,23.07,3.04,2.21,-20.82,1.49,0.0,0.05,0.0,0.338,10.72,-17.67,96.5,-35.24,-36.74,82.79,4.75,-36.65,93.52,13.62,-25.58,106.0,-34.54,28.74,61.44,-7.12,6.15,68.55,20.64,-14.1,110.53,-35.0,-42.69,91.58,-8.6,-39.63,89.29,13.59,-13.41,103.67,-35.0,30.0,50.02,4.0,18.8,56.27,1.0,-1.0,1.0,-1.0,-0.8888,1.0,-1.0,0.2023,1.0,-1.0,1.0,-1.0,-1.0,1.0,-1.0,1.0,1.0,-1.0,0.111,0.104,0.058,0.0,0.013,0.0,0.033,0.013,0.019,0.013,0.013,0.0,0.026,0.091,0.0,0.013,0.026,0.013,0.1611,-0.6765,0.4479,-0.6167,-1.0032,0.2393,0.0997,-0.9725,0.4387,0.2117,-0.836,0.6259,-0.5967,0.1396,-0.1197,-0.1473,-0.2715,0.0153,0.3075,-0.0665,0.3064,-0.0505,0.2222,-0.1903,-0.2991,-0.2512,-0.3118,0.3053,0.2125,0.3032,-0.2017,0.2,-0.3107,0.3118,0.29,-0.3099,1.4171,0.0653,0.0155,-0.2493,0.0242,1.0,-0.7676,1.0,-1.0,-1.0,1.0,-1.0,-0.3083,1.0,-1.0,1.0,-1.0,-1.0,1.0,-1.0,1.0,1.0,-1.0,0.0,0.0,0.0,0.0,0.0,0.0,0.0,0.0,0.0,0.3333,0.0,0.3333,0.0,0,
3.32,run,23.0,2.35,-1.2,-17.36,7.43,0.0,0.05,0.0,0.338,12.22,-16.79,97.91,-35.24,-36.56,83.06,3.34,-37.97,92.11,14.59,-24.17,106.7,-34.54,28.83,60.03,-5.62,7.56,67.24,22.14,-15.6,112.03,-35.0,-44.19,93.08,-10.1,-38.13,90.79,12.09,-11.91,102.17,-35.0,30.0,48.52,5.5,20.3,54.77,1.0,-1.0,1.0,-1.0,-1.0,1.0,-1.0,0.8091,1.0,-1.0,1.0,-1.0,-1.0,1.0,-1.0,1.0,1.0,-1.0,0.111,0.104,0.058,0.0,0.013,0.0,0.033,0.013,0.019,0.013,0.013,0.0,0.026,0.091,0.0,0.013,0.026,0.013,0.1871,-0.6642,0.4709,-0.6213,-0.9925,0.2393,0.0767,-0.9956,0.4142,0.2362,-0.8145,0.6427,-0.6029,0.1411,-0.1411,-0.1227,-0.247,-0.0092,0.3135,-0.0003,0.3012,-0.0527,0.196,-0.1332,-0.2961,-0.2626,-0.3108,0.3062,0.2297,0.2758,-0.1643,0.1458,-0.2984,0.3108,0.2955,-0.3094,1.4239,-0.0077,0.0386,-0.3634,0.026,1.0,-1.0,1.0,-1.0,-0.8888,1.0,-1.0,0.2023,1.0,-1.0,1.0,-1.0,-1.0,1.0,-1.0,1.0,1.0,-1.0,0.0,0.0,0.0,0.0,0.0,0.0,0.0,0.0,0.0,0.3333,0.0,0.3333,0.0,0,
3.36,run,23.06,1.53,0.75,-21.51,10.58,0.0,0.05,0.0,0.338,13.62,-15.73,99.32,-35.24,-36.56,83.85,1.93,-39.11,90.88,15.38,-22.76,107.14,-34.54,28.92,58.71,-4.22,9.05,65.83,23.64,-17.1,113.53,-35.0,-45.69,94.58,-11.6,-36.63,92.29,10.59,-10.41,100.67,-35.0,30.0,47.02,7.0,21.8,53.27,1.0,-1.0,1.0,-1.0,-1.0,1.0,-1.0,0.792,1.0,-1.0,1.0,-1.0,-1.0,1.0,-1.0,1.0,1.0,-1.0,0.13,0.104,0.071,0.006,0.019,0.026,0.033,0.0,0.013,0.006,0.013,0.0,0.013,0.065,0.0,0.013,0.019,0.013,0.2132,-0.6489,0.4955,-0.6213,-0.9894,0.2439,0.0522,-1.0186,0.3896,0.2531,-0.79,0.655,-0.6029,0.1427,-0.1657,-0.0966,-0.2224,-0.0322,0.317,0.0572,0.3027,-0.0369,0.1487,-0.076,-0.2991,-0.2699,-0.3094,0.2775,0.2526,0.239,-0.115,0.1078,-0.3007,0.3151,0.2987,-0.3027,1.418,-0.0675,-0.0209,-0.303,0.1297,1.0,-1.0,1.0,-1.0,-1.0,1.0,-1.0,0.8091,1.0,-1.0,1.0,-1.0,-1.0,1.0,-1.0,1.0,1.0,-1.0,0.0,0.0,0.0,0.0,0.0,0.0,0.0,0.0,0.0,0.3333,0.0,0.3333,0.0,0,
3.4,run,22.7,0.57,-8.22,-19.4,5.02,0.0,0.05,0.0,0.338,15.29,-15.03,100.99,-35.24,-37.09,85.08,0.26,-39.99,89.91,15.73,-21.09,107.14,-34.54,28.92,56.95,-2.55,10.81,64.07,25.14,-18.6,115.03,-35.0,-47.19,96.08,-13.1,-35.13,93.79,9.09,-8.91,99.17,-35.0,30.0,45.52,8.5,23.3,51.77,1.0,-1.0,1.0,-1.0,-1.0,1.0,-1.0,1.0,1.0,-1.0,1.0,-1.0,-1.0,1.0,-1.0,1.0,1.0,-1.0,0.13,0.104,0.071,0.006,0.019,0.026,0.033,0.0,0.013,0.006,0.013,0.0,0.013,0.065,0.0,0.013,0.019,0.013,0.2378,-0.6305,0.52,-0.6213,-0.9894,0.2577,0.0276,-1.0385,0.3682,0.2669,-0.7655,0.6627,-0.6029,0.1442,-0.1887,-0.0721,-0.1963,-0.0568,0.3146,0.1095,0.3046,-0.0258,0.1041,-0.0011,-0.3021,-0.2642,-0.2977,0.2464,0.2695,0.1963,-0.0805,0.0812,-0.2974,0.3133,0.3076,-0.3046,1.4228,-0.1386,0.0131,-0.3754,0.1846,1.0,-1.0,1.0,-1.0,-1.0,1.0,-1.0,0.792,1.0,-1.0,1.0,-1.0,-1.0,1.0,-1.0,1.0,1.0,-1.0,0.0,0.0,0.0,0.0,0.0,0.0,0.0,0.0,0.0,0.3333,0.0,0.3333,0.0,0,
3.44,run,22.17,-0.27,-14.67,-20.26,4.02,0.0,0.05,0.0,0.338,16.79,-14.5,102.39,-35.16,-37.97,86.48,-1.05,-40.43,89.3,15.73,-19.6,106.52,-34.54,29.09,55.46,-1.05,12.22,62.67,26.64,-20.1,116.53,-35.0,-48.69,97.58,-14.6,-33.63,95.29,7.59,-7.41,97.67,-35.0,30.0,44.02,10.0,24.8,50.27,1.0,-1.0,1.0,-1.0,-0.6721,1.0,-0.6174,1.0,1.0,-1.0,1.0,-1.0,-1.0,1.0,-1.0,1.0,1.0,-1.0,0.13,0.104,0.071,0.006,0.019,0.026,0.033,0.0,0.013,0.006,0.013,0.0,0.013,0.065,0.0,0.013,0.019,0.013,0.2669,-0.6182,0.5492,-0.6213,-0.9986,0.2792,-0.0015,-1.0538,0.3513,0.273,-0.7363,0.6627,-0.6029,0.1442,-0.2194,-0.043,-0.1657,-0.0874,0.3115,0.1151,0.3045,-0.0181,0.044,0.0665,-0.3027,-0.233,-0.2612,0.1917,0.28,0.1374,-0.0563,0.0569,-0.3043,0.3106,0.3114,-0.3093,1.3918,-0.2228,-0.1435,-0.3386,0.0876,1.0,-1.0,1.0,-1.0,-1.0,1.0,-1.0,1.0,1.0,-1.0,1.0,-1.0,-1.0,1.0,-1.0,1.0,1.0,-1.0,0.0,0.0,0.0,0.0,0.0,0.0,0.0,0.0,0.0,0.3333,0.0,0.3333,0.0,0,
3.48,run,21.59,-0.88,-13.11,-16.2,2.9,0.0,0.05,0.0,0.338,18.28,-14.5,103.89,-34.63,-39.38,88.07,-2.37,-40.52,88.95,15.03,-18.28,105.64,-34.54,29.27,54.05,0.35,13.54,61.17,28.14,-21.6,118.03,-35.0,-47.19,99.08,-13.1,-32.13,96.79,6.09,-5.91,96.17,-35.0,30.0,42.52,11.5,26.3,48.77,1.0,-1.0,1.0,-1.0,0.2858,1.0,0.1947,1.0,1.0,-1.0,1.0,-1.0,-1.0,1.0,-1.0,1.0,1.0,-1.0,0.071,0.026,0.091,0.006,0.019,0.006,0.045,0.019,0.0,0.006,0.006,0.013,0.026,0.033,0.006,0.013,0.026,0.006,0.293,-0.609,0.5737,-0.6197,-1.014,0.3037,-0.0245,-1.0615,0.3405,0.273,-0.7102,0.6519,-0.6029,0.1473,-0.2454,-0.0169,-0.1411,-0.112,0.3151,0.1148,0.3044,-0.0069,-0.0262,0.1378,-0.2975,-0.1916,-0.2228,0.1342,0.293,0.0562,-0.0394,0.0512,-0.31,0.3144,0.3093,-0.3078,1.3451,-0.2962,-0.2561,-0.3537,0.0701,1.0,-1.0,1.0,-1.0,-0.6721,1.0,-0.6174,1.0,1.0,-1.0,1.0,-1.0,-1.0,1.0,-1.0,1.0,1.0,-1.0,0.0,0.0,0.0,0.0,0.0,0.0,0.0,0.0,0.0,0.3333,0.0,0.3333,0.0,0,
3.52,run,21.05,-1.5,-10.93,-11.87,6.31,0.0,0.05,0.0,0.338,20.13,-14.5,105.64,-34.63,-41.13,89.91,-4.13,-39.99,88.86,14.06,-16.44,104.24,-34.54,29.27,52.21,2.11,15.29,59.41,29.64,-23.1,119.53,-35.0,-45.69,97.58,-11.6,-30.63,98.29,4.59,-4.41,94.67,-35.0,30.0,41.02,13.0,27.8,47.27,1.0,-1.0,1.0,-1.0,1.0,0.3206,1.0,0.9818,1.0,-1.0,1.0,-1.0,-1.0,1.0,-1.0,1.0,1.0,-1.0,0.071,0.026,0.091,0.006,0.019,0.006,0.045,0.019,0.0,0.006,0.006,0.013,0.026,0.033,0.006,0.013,0.026,0.006,0.3191,-0.609,0.5998,-0.6105,-1.0385,0.3313,-0.0476,-1.063,0.3344,0.2608,-0.6872,0.6366,-0.6029,0.1503,-0.27,0.0077,-0.1181,-0.1381,0.3183,0.0804,0.3108,0.0296,-0.1103,0.2,-0.2945,-0.1399,-0.179,0.0479,0.2913,-0.0181,-0.0276,0.0473,-0.309,0.3121,0.3027,-0.3132,1.2948,-0.3495,-0.2287,-0.2828,0.0507,1.0,-1.0,1.0,-1.0,0.2858,1.0,0.1947,1.0,1.0,-1.0,1.0,-1.0,-1.0,1.0,-1.0,1.0,1.0,-1.0,0.0,0.0,0.0,0.0,0.0,0.0,0.0,0.0,0.0,0.3333,0.0,0.3333,0.0,0,
3.56,run,20.61,-1.93,-10.24,-10.35,2.79,0.0,0.05,0.0,0.338,21.53,-15.03,107.05,-34.63,-42.45,91.32,-5.36,-38.94,89.56,12.74,-15.03,102.74,-34.54,29.27,50.8,3.43,16.61,58.01,28.14,-24.6,121.03,-35.0,-44.19,96.08,-10.1,-32.13,99.79,3.09,-2.91,93.17,-35.0,30.0,39.52,14.5,29.3,48.77,-0.2014,-1.0,1.0,-1.0,1.0,-1.0,1.0,-0.4379,1.0,-1.0,1.0,-1.0,-1.0,1.0,-1.0,1.0,1.0,0.1726,0.071,0.026,0.091,0.006,0.019,0.006,0.045,0.019,0.0,0.006,0.006,0.013,0.026,0.033,0.006,0.013,0.026,0.006,0.3513,-0.609,0.6305,-0.6105,-1.0692,0.3636,-0.0782,-1.0538,0.3329,0.2439,-0.655,0.6121,-0.6029,0.1503,-0.3022,0.0383,-0.0874,-0.1687,0.318,0.0563,0.3083,0.0207,-0.1679,0.2352,-0.2968,-0.0707,-0.1298,-0.0163,0.2992,-0.0853,-0.0193,0.0331,-0.3115,0.3092,0.3026,-0.3099,1.2472,-0.4035,-0.1908,-0.2072,0.1101,1.0,-1.0,1.0,-1.0,1.0,0.3206,1.0,0.9818,1.0,-1.0,1.0,-1.0,-1.0,1.0,-1.0,1.0,1.0,-1.0,0.0,0.0,0.0,0.0,0.0,0.0,0.0,0.0,0.0,0.3333,0.0,0.3333,0.0,0,
3.6,run,20.14,-2.29,-11.17,-8.85,1.82,0.0,0.05,0.0,0.338,23.03,-16.08,108.63,-34.63,-43.59,92.81,-6.77,-37.88,90.62,11.43,-13.54,101.34,-34.54,29.27,49.39,4.83,18.11,56.6,26.64,-26.1,122.53,-35.0,-42.69,94.58,-8.6,-33.63,101.29,1.59,-1.41,91.67,-35.0,28.5,38.02,13.0,30.0,50.27,-1.0,-1.0,1.0,-1.0,1.0,-0.9228,1.0,-0.6676,1.0,-1.0,1.0,-1.0,-1.0,0.3168,-1.0,-0.3093,1.0,1.0,0.084,0.0,0.058,0.006,0.019,0.006,0.052,0.019,0.033,0.013,0.006,0.013,0.019,0.013,0.0,0.026,0.033,0.013,0.3758,-0.6182,0.655,-0.6105,-1.0922,0.3881,-0.0997,-1.0354,0.3451,0.2209,-0.6305,0.586,-0.6029,0.1503,-0.3267,0.0614,-0.0644,-0.1933,0.3144,0.005,0.3076,0.0145,-0.2036,0.2564,-0.2881,0.0193,-0.045,-0.0975,0.3012,-0.1572,-0.0135,0.0232,-0.3098,0.3024,0.2978,-0.3087,1.2093,-0.4412,-0.1787,-0.1806,0.0487,-0.2014,-1.0,1.0,-1.0,1.0,-1.0,1.0,-0.4379,1.0,-1.0,1.0,-1.0,-1.0,1.0,-1.0,1.0,1.0,0.1726,0.0,0.0,0.0,0.0,0.0,0.0,0.0,0.0,0.0,0.3333,0.0,0.3333,0.0,0,
3.64,run,19.65,-2.31,-12.42,-0.81,-2.77,0.0,0.05,0.0,0.338,24.35,-17.31,110.04,-34.63,-44.56,93.96,-7.91,-36.65,91.67,10.02,-12.13,99.93,-34.54,29.27,47.9,6.24,19.42,55.11,25.14,-27.6,121.03,-33.5,-41.19,93.08,-7.1,-35.13,102.79,0.09,0.09,90.17,-35.0,27.0,36.52,11.5,30.0,51.77,-1.0,-1.0,0.4423,0.2822,1.0,-1.0,1.0,-1.0,1.0,-1.0,1.0,-1.0,-1.0,-1.0,-1.0,-1.0,1.0,1.0,0.084,0.0,0.058,0.006,0.019,0.006,0.052,0.019,0.033,0.013,0.006,0.013,0.019,0.013,0.0,0.026,0.033,0.013,0.4019,-0.6366,0.6826,-0.6105,-1.1121,0.4142,-0.1243,-1.017,0.3636,0.1979,-0.6044,0.5614,-0.6029,0.1503,-0.3513,0.0859,-0.0383,-0.2178,0.3166,-0.0647,0.3175,0.0102,-0.2163,0.276,-0.2925,0.0817,0.0366,-0.1534,0.3073,-0.2009,-0.0095,0.0162,-0.3077,0.3025,0.305,-0.3069,1.1682,-0.472,-0.195,-0.1545,0.0318,-1.0,-1.0,1.0,-1.0,1.0,-0.9228,1.0,-0.6676,1.0,-1.0,1.0,-1.0,-1.0,0.3168,-1.0,-0.3093,1.0,1.0,0.0,0.0,0.0,0.0,0.0,0.0,0.0,0.0,0.0,0.3333,0.0,0.3333,0.0,0,
3.68,run,19.52,-1.97,-4.07,8.42,-2.73,0.0,0.05,0.0,0.338,25.4,-18.72,111.62,-34.63,-45.18,95.01,-8.79,-35.77,92.9,8.88,-10.9,98.53,-34.54,28.65,46.49,7.56,20.74,53.7,23.64,-29.1,119.53,-32.0,-39.69,91.58,-5.6,-36.63,104.29,-1.41,1.59,88.67,-35.0,25.5,35.02,10.0,30.0,53.27,-1.0,-1.0,0.0713,1.0,1.0,-1.0,1.0,-1.0,1.0,-1.0,1.0,-1.0,-1.0,-1.0,-0.5032,-1.0,1.0,1.0,0.084,0.0,0.058,0.006,0.019,0.006,0.052,0.019,0.033,0.013,0.006,0.013,0.019,0.013,0.0,0.026,0.033,0.013,0.4249,-0.6581,0.7072,-0.6105,-1.129,0.4341,-0.1442,-0.9956,0.382,0.1733,-0.5798,0.5369,-0.6029,0.1503,-0.3774,0.1104,-0.0153,-0.2439,0.3083,-0.1261,0.3147,0.0071,-0.215,0.2683,-0.2799,0.138,0.095,-0.1998,0.3076,-0.233,-0.0066,0.0114,-0.3136,0.3042,0.3002,-0.3131,1.1251,-0.4742,-0.2168,-0.0142,-0.0483,-1.0,-1.0,0.4423,0.2822,1.0,-1.0,1.0,-1.0,1.0,-1.0,1.0,-1.0,-1.0,-1.0,-1.0,-1.0,1.0,1.0,0.0,0.0,0.0,0.0,0.0,0.0,0.0,0.0,0.0,0.3333,0.0,0.3333,0.0,0,
3.72,run,19.3,-1.54,-3.59,14.75,-0.2,0.0,0.05,0.0,0.338,26.02,-20.21,112.94,-34.45,-45.53,95.62,-9.4,-35.16,94.22,7.21,-9.67,97.21,-34.54,27.95,45.09,8.88,21.97,52.56,22.14,-30.6,118.03,-30.5,-38.19,90.08,-4.1,-38.13,105.79,-2.91,3.09,87.17,-35.0,24.0,36.52,8.5,30.0,54.77,-1.0,-1.0,-0.0167,1.0,1.0,-1.0,1.0,-1.0,1.0,-1.0,1.0,-1.0,-1.0,-1.0,0.6114,-1.0,1.0,1.0,0.052,0.0,0.065,0.006,0.0,0.0,0.045,0.052,0.058,0.019,0.0,0.006,0.013,0.0,0.006,0.026,0.065,0.0,0.4433,-0.6826,0.7348,-0.6105,-1.1397,0.4525,-0.1595,-0.9802,0.4034,0.1534,-0.5584,0.5123,-0.6029,0.1396,-0.4019,0.1335,0.0077,-0.2684,0.2844,-0.1797,0.3231,0.005,-0.1905,0.2564,-0.253,0.1538,0.1465,-0.2142,0.2953,-0.2546,-0.0046,-0.032,-0.311,0.2987,0.2958,-0.3106,1.1142,-0.4445,-0.071,0.147,-0.0477,-1.0,-1.0,0.0713,1.0,1.0,-1.0,1.0,-1.0,1.0,-1.0,1.0,-1.0,-1.0,-1.0,-0.5032,-1.0,1.0,1.0,0.0,0.0,0.0,0.0,0.0,0.0,0.0,0.0,0.0,0.3333,0.0,0.3333,0.0,0,
3.76,run,18.85,-1.68,-12.24,-5.68,6.22,0.0,0.05,0.0,0.338,26.46,-21.62,114.26,-33.93,-45.53,95.98,-9.67,-34.72,95.54,5.89,-8.09,95.62,-34.54,26.81,43.68,9.67,23.2,51.68,20.64,-32.1,116.53,-29.0,-36.69,88.58,-2.6,-39.63,107.29,-4.41,4.59,85.67,-35.0,22.5,38.02,7.0,30.0,56.27,-1.0,-1.0,-0.1369,1.0,0.4659,-1.0,1.0,-1.0,1.0,-1.0,1.0,-1.0,-1.0,-1.0,1.0,-1.0,1.0,1.0,0.052,0.0,0.065,0.006,0.0,0.0,0.045,0.052,0.058,0.019,0.0,0.006,0.013,0.0,0.006,0.026,0.065,0.0,0.4541,-0.7087,0.7578,-0.6075,-1.1459,0.4633,-0.1703,-0.9695,0.4264,0.1243,-0.5369,0.4893,-0.6029,0.1273,-0.4264,0.1565,0.0291,-0.2884,0.2395,-0.2241,0.3129,0.015,-0.1565,0.2199,-0.2176,0.1481,0.1893,-0.2597,0.2876,-0.2649,-0.0032,-0.0687,-0.3102,0.2958,0.288,-0.2926,1.0944,-0.4071,-0.0627,0.2575,-0.0036,-1.0,-1.0,-0.0167,1.0,1.0,-1.0,1.0,-1.0,1.0,-1.0,1.0,-1.0,-1.0,-1.0,0.6114,-1.0,1.0,1.0,0.0,0.0,0.0,0.0,0.0,0.0,0.0,0.0,0.0,0.3333,0.0,0.3333,0.0,0,
3.8,run,18.47,-1.88,-8.94,-6.24,-5.94,0.0,0.05,0.0,0.338,26.63,-22.94,115.4,-32.96,-45.35,95.8,-9.67,-34.63,96.86,4.57,-6.77,94.13,-34.63,25.58,42.28,10.37,24.52,51.06,19.14,-33.6,115.03,-27.5,-35.19,87.08,-1.1,-41.13,108.79,-5.91,6.09,84.17,-35.0,21.0,39.52,5.5,28.5,57.77,-1.0,-1.0,-0.4446,1.0,0.1099,-1.0,1.0,-1.0,1.0,-1.0,1.0,-1.0,-1.0,-1.0,1.0,-1.0,-0.0705,1.0,0.052,0.0,0.065,0.006,0.0,0.0,0.045,0.052,0.058,0.019,0.0,0.006,0.013,0.0,0.006,0.026,0.065,0.0,0.4617,-0.7332,0.7808,-0.5983,-1.1459,0.4694,-0.1749,-0.9618,0.4495,0.1012,-0.5093,0.4617,-0.6029,0.1074,-0.451,0.1703,0.0506,-0.3037,0.1963,-0.2484,0.3049,0.0449,-0.1095,0.1768,-0.1695,0.1323,0.2183,-0.2677,0.3044,-0.2884,-0.0023,-0.1225,-0.3087,0.2585,0.2817,-0.262,1.0558,-0.419,-0.2137,-0.0992,0.1085,-1.0,-1.0,-0.1369,1.0,0.4659,-1.0,1.0,-1.0,1.0,-1.0,1.0,-1.0,-1.0,-1.0,1.0,-1.0,1.0,1.0,0.0,0.0,0.0,0.0,0.0,0.0,0.0,0.0,0.0,0.3333,0.0,0.3333,0.0,0,
3.84,run,17.86,-1.34,-15.14,16.38,-15.01,0.0,0.05,0.0,0.338,26.37,-24.26,116.37,-31.55,-44.56,95.27,-9.67,-34.63,98.35,3.34,-5.45,92.9,-34.72,24.35,41.04,10.72,25.75,50.8,17.64,-35.1,113.53,-26.0,-36.69,85.58,0.4,-42.63,110.29,-7.41,7.59,82.67,-35.0,19.5,41.02,4.0,27.0,59.27,-1.0,-1.0,-0.747,1.0,-0.6766,-1.0,1.0,-1.0,1.0,-1.0,1.0,-1.0,-1.0,-0.3236,1.0,-1.0,-0.4466,1.0,0.0,0.0,0.026,0.013,0.013,0.006,0.006,0.0,0.052,0.045,0.033,0.019,0.0,0.019,0.0,0.019,0.084,0.006,0.4648,-0.7563,0.8007,-0.5814,-1.1428,0.4663,-0.1749,-0.9603,0.4725,0.0782,-0.4863,0.4357,-0.6044,0.0859,-0.4755,0.1825,0.0736,-0.3145,0.1489,-0.2603,0.2883,0.0947,-0.0652,0.1123,-0.1186,0.0984,0.2392,-0.2737,0.2994,-0.2998,-0.0073,-0.1663,-0.3082,0.227,0.2836,-0.2237,1.0224,-0.437,-0.156,-0.1089,-0.1037,-1.0,-1.0,-0.4446,1.0,0.1099,-1.0,1.0,-1.0,1.0,-1.0,1.0,-1.0,-1.0,-1.0,1.0,-1.0,-0.0705,1.0,0.0,0.0,0.0,0.0,0.0,0.0,0.0,0.0,0.0,0.3333,0.0,0.3333,0.0,0,
3.88,run,18.23,-1.26,11.15,3.39,3.22,0.0,0.05,0.0,0.338,25.75,-25.58,116.89,-30.23,-43.51,94.39,-9.23,-35.07,99.84,2.11,-4.13,91.67,-34.8,23.03,40.34,10.81,26.63,50.8,16.14,-36.6,112.03,-24.5,-38.19,84.08,1.9,-44.13,111.79,-8.91,9.09,81.17,-35.0,18.0,42.52,2.5,25.5,60.77,-1.0,-1.0,-1.0,1.0,-0.3605,-1.0,1.0,-1.0,1.0,-1.0,0.8053,-1.0,-1.0,-0.0539,1.0,-1.0,0.077,1.0,0.0,0.0,0.026,0.013,0.013,0.006,0.006,0.0,0.052,0.045,0.033,0.019,0.0,0.019,0.0,0.019,0.084,0.006,0.4602,-0.7793,0.8176,-0.5568,-1.129,0.4571,-0.1749,-0.9603,0.4985,0.0568,-0.4633,0.4142,-0.6059,0.0644,-0.497,0.1887,0.0951,-0.3191,0.0869,-0.269,0.2655,0.159,0.0065,0.0439,-0.083,0.0689,0.2659,-0.2727,0.2964,-0.2909,-0.0109,-0.1975,-0.2968,0.1821,0.2796,-0.174,0.969,-0.389,-0.2643,0.2859,-0.262,-1.0,-1.0,-0.747,1.0,-0.6766,-1.0,1.0,-1.0,1.0,-1.0,1.0,-1.0,-1.0,-0.3236,1.0,-1.0,-0.4466,1.0,0.0,0.0,0.0,0.0,0.0,0.0,0.0,0.0,0.0,0.3333,0.0,0.3333,0.0,0,
3.92,run,18.78,-0.97,17.44,5.7,3.38,0.0,0.05,0.0,0.338,24.61,-27.07,117.16,-28.92,-42.01,93.16,-8.17,-35.86,101.16,0.7,-2.72,90.18,-34.89,21.53,39.38,10.46,27.42,51.06,14.64,-38.1,110.53,-23.0,-39.69,82.58,3.4,-45.63,113.29,-10.41,10.59,79.67,-35.0,19.5,44.02,1.0,24.0,62.27,-1.0,-1.0,-1.0,1.0,-1.0,-1.0,1.0,-1.0,1.0,-1.0,1.0,-1.0,-1.0,1.0,1.0,-1.0,-0.3111,1.0,0.0,0.0,0.026,0.013,0.013,0.006,0.006,0.0,0.052,0.045,0.033,0.019,0.0,0.019,0.0,0.019,0.084,0.006,0.4495,-0.8023,0.8268,-0.5338,-1.1106,0.4418,-0.1672,-0.9679,0.5246,0.0353,-0.4403,0.3927,-0.6075,0.0414,-0.5093,0.1902,0.1104,-0.3191,0.0206,-0.2745,0.2203,0.1975,0.0735,-0.0268,-0.0294,0.0195,0.2838,-0.2713,0.2937,-0.2841,-0.0134,-0.2245,-0.2537,0.1332,0.2532,-0.1218,1.0011,-0.3825,0.1945,0.0591,0.0561,-1.0,-1.0,-1.0,1.0,-0.3605,-1.0,1.0,-1.0,1.0,-1.0,0.8053,-1.0,-1.0,-0.0539,1.0,-1.0,0.077,1.0,0.0,0.0,0.0,0.0,0.0,0.0,0.0,0.0,0.0,0.3333,0.0,0.3333,0.0,0,
3.96,run,19.34,-0.84,11.34,2.88,-17.0,0.0,0.05,0.0,0.338,23.29,-28.56,117.16,-27.95,-40.78,91.85,-7.38,-37.09,102.57,-0.7,-1.32,88.77,-34.89,20.3,39.11,9.67,27.86,51.77,13.14,-39.6,109.03,-21.5,-41.19,81.08,4.9,-47.13,114.79,-11.91,12.09,78.17,-35.0,21.0,45.52,-0.5,22.5,63.77,-1.0,-1.0,-1.0,1.0,-1.0,-1.0,1.0,-1.0,1.0,-1.0,1.0,-1.0,-1.0,1.0,1.0,-1.0,0.3141,1.0,0.006,0.0,0.006,0.019,0.006,0.006,0.033,0.006,0.058,0.065,0.039,0.013,0.0,0.006,0.0,0.0,0.071,0.052,0.4295,-0.8283,0.8314,-0.5108,-1.0845,0.4203,-0.1488,-0.9817,0.5476,0.0107,-0.4157,0.3666,-0.609,0.0153,-0.5262,0.1841,0.1243,-0.3145,-0.0603,-0.2898,0.1715,0.2244,0.1491,-0.0991,0.0483,-0.0381,0.2848,-0.2818,0.2975,-0.2965,-0.0151,-0.2548,-0.2408,0.0703,0.2289,-0.068,1.0496,-0.3574,0.3043,0.0995,0.0589,-1.0,-1.0,-1.0,1.0,-1.0,-1.0,1.0,-1.0,1.0,-1.0,1.0,-1.0,-1.0,1.0,1.0,-1.0,-0.3111,1.0,0.0,0.0,0.0,0.0,0.0,0.0,0.0,0.0,0.0,0.3333,0.0,0.3333,0.0,0,
4.0,run,19.76,-0.91,10.0,-1.31,-23.15,0.0,0.05,0.0,0.338,21.88,-29.88,116.81,-26.19,-39.9,90.35,-5.8,-38.5,104.06,-2.11,0.09,87.28,-34.89,19.42,39.11,8.53,27.95,52.82,11.64,-41.1,107.53,-20.0,-42.69,79.58,6.4,-48.63,116.29,-13.41,13.59,76.67,-33.5,22.5,47.02,-2.0,21.0,65.27,-1.0,-1.0,-1.0,1.0,-1.0,-0.1589,1.0,-0.6198,1.0,-1.0,1.0,-1.0,-0.7136,1.0,1.0,-1.0,0.3051,1.0,0.006,0.0,0.006,0.019,0.006,0.006,0.033,0.006,0.058,0.065,0.039,0.013,0.0,0.006,0.0,0.0,0.071,0.052,0.4065,-0.8544,0.8314,-0.4939,-1.063,0.3973,-0.135,-1.0032,0.5722,-0.0138,-0.3912,0.3421,-0.609,-0.0061,-0.5308,0.1703,0.1319,-0.3022,-0.1282,-0.3004,0.12,0.2202,0.1847,-0.1554,0.0855,-0.107,0.2912,-0.2891,0.3,-0.2993,-0.0106,-0.2586,-0.1858,-0.0024,0.1889,-0.0017,1.0985,-0.3454,0.1979,0.0503,-0.2967,-1.0,-1.0,-1.0,1.0,-1.0,-1.0,1.0,-1.0,1.0,-1.0,1.0,-1.0,-1.0,1.0,1.0,-1.0,0.3141,1.0,0.0,0.0,0.0,0.0,0.0,0.0,0.0,0.0,0.0,0.3333,0.0,0.3333,0.0,0,
4.04,run,20.29,-0.59,10.73,5.51,-14.69,0.0,0.05,0.0,0.338,20.13,-31.64,115.75,-24.52,-39.29,88.51,-4.04,-40.25,105.82,-3.78,1.76,85.61,-34.8,18.63,39.38,6.94,27.95,54.4,10.14,-42.6,106.03,-18.5,-44.19,81.08,7.9,-47.13,117.79,-14.91,15.09,75.17,-32.0,24.0,48.52,-3.5,19.5,66.77,-1.0,-1.0,-1.0,1.0,-1.0,0.417,1.0,0.0801,1.0,-1.0,1.0,-1.0,0.113,1.0,1.0,-1.0,0.0884,1.0,0.006,0.0,0.006,0.019,0.006,0.006,0.033,0.006,0.058,0.065,0.039,0.013,0.0,0.006,0.0,0.0,0.071,0.052,0.382,-0.8774,0.8253,-0.4633,-1.0477,0.3712,-0.1074,-1.0278,0.5983,-0.0383,-0.3666,0.316,-0.609,-0.0215,-0.5308,0.1503,0.1335,-0.2838,-0.1823,-0.297,0.0609,0.2698,0.1871,-0.2071,0.1639,-0.1674,0.3021,-0.2948,0.3025,-0.3078,-0.0074,-0.2389,-0.13,-0.0769,0.138,0.0682,1.1345,-0.3519,0.1745,-0.0228,-0.404,-1.0,-1.0,-1.0,1.0,-1.0,-0.1589,1.0,-0.6198,1.0,-1.0,1.0,-1.0,-0.7136,1.0,1.0,-1.0,0.3051,1.0,0.0,0.0,0.0,0.0,0.0,0.0,0.0,0.0,0.0,0.3333,0.0,0.3333,0.0,0,
4.08,run,20.65,-0.49,12.47,2.36,-15.42,0.0,0.05,0.0,0.338,19.16,-32.7,115.31,-23.38,-38.85,87.36,-2.9,-41.31,107.05,-4.83,2.81,84.55,-34.54,18.28,40.34,5.71,27.77,55.46,8.64,-44.1,104.53,-17.0,-45.69,82.58,9.4,-45.63,119.29,-16.41,16.59,73.67,-30.5,22.5,50.02,-5.0,18.0,68.27,-1.0,-0.6211,-1.0,1.0,-1.0,1.0,1.0,0.2841,1.0,-1.0,1.0,-1.0,1.0,0.852,1.0,-1.0,0.4755,1.0,0.006,0.006,0.026,0.019,0.0,0.013,0.019,0.006,0.039,0.058,0.039,0.019,0.013,0.006,0.0,0.0,0.0,0.065,0.3513,-0.9081,0.8069,-0.4341,-1.037,0.339,-0.0767,-1.0584,0.6289,-0.0675,-0.3375,0.2869,-0.6075,-0.0353,-0.5262,0.1227,0.1335,-0.2562,-0.2216,-0.3019,-0.0138,0.2781,0.1639,-0.2437,0.2087,-0.2111,0.3054,-0.2957,0.3011,-0.3048,-0.0005,-0.2095,-0.0769,-0.1384,0.0966,0.1323,1.1807,-0.3244,0.1872,0.0961,-0.2564,-1.0,-1.0,-1.0,1.0,-1.0,0.417,1.0,0.0801,1.0,-1.0,1.0,-1.0,0.113,1.0,1.0,-1.0,0.0884,1.0,0.0,0.0,0.0,0.0,0.0,0.0,0.0,0.0,0.0,0.3333,0.0,0.3333,0.0,0,
4.12,run,21.17,-0.34,13.61,2.12,-15.51,0.0,0.05,0.0,0.338,17.67,-34.01,113.64,-21.97,-38.76,85.96,-1.49,-42.54,108.54,-6.24,4.22,83.06,-33.57,18.28,41.48,4.39,26.89,56.87,7.14,-43.21,103.03,-15.5,-47.19,84.08,10.9,-44.13,120.79,-17.91,18.09,72.17,-29.0,21.0,51.52,-6.5,16.5,69.77,-1.0,-0.3311,-1.0,1.0,-1.0,1.0,1.0,0.8191,1.0,-1.0,1.0,-1.0,1.0,0.4173,1.0,-1.0,0.5747,1.0,0.006,0.006,0.026,0.019,0.0,0.013,0.019,0.006,0.039,0.058,0.039,0.019,0.013,0.006,0.0,0.0,0.0,0.065,0.3344,-0.9265,0.7992,-0.4142,-1.0293,0.3191,-0.0568,-1.0769,0.6504,-0.0859,-0.3191,0.2684,-0.6029,-0.0414,-0.5093,0.1012,0.1304,-0.2378,-0.2379,-0.3016,-0.0473,0.2925,0.1523,-0.2684,0.2439,-0.2381,0.3192,-0.2973,0.3011,-0.3036,0.0222,-0.1768,0.0289,-0.2022,0.0526,0.1829,1.2127,-0.3149,0.2176,0.0412,-0.2691,-1.0,-0.6211,-1.0,1.0,-1.0,1.0,1.0,0.2841,1.0,-1.0,1.0,-1.0,1.0,0.852,1.0,-1.0,0.4755,1.0,0.0,0.0,0.0,0.0,0.0,0.0,0.0,0.0,0.0,0.3333,0.0,0.3333,0.0,0,
4.16,run,21.95,0.15,21.87,11.7,-12.88,0.0,0.05,0.0,0.338,16.26,-35.42,112.15,-20.48,-38.94,84.64,-0.09,-43.95,109.95,-7.65,5.71,81.56,-32.52,18.72,42.8,2.99,25.84,58.27,5.64,-41.71,101.53,-14.0,-48.69,85.58,12.4,-42.63,122.29,-19.41,19.59,70.67,-27.5,19.5,53.02,-8.0,18.0,71.27,-1.0,-0.1417,-1.0,1.0,-1.0,1.0,1.0,1.0,1.0,-1.0,1.0,-1.0,1.0,0.3183,1.0,-1.0,1.0,1.0,0.006,0.006,0.026,0.019,0.0,0.013,0.019,0.006,0.039,0.058,0.039,0.019,0.013,0.006,0.0,0.0,0.0,0.065,0.3083,-0.9495,0.7701,-0.3896,-1.0278,0.2945,-0.0322,-1.0983,0.6765,-0.1104,-0.2945,0.2424,-0.586,-0.0414,-0.4893,0.0782,0.115,-0.2132,-0.2628,-0.2961,-0.1407,0.2954,0.1123,-0.2785,0.2614,-0.246,0.3197,-0.2988,0.3014,-0.3089,0.0779,-0.1237,0.0939,-0.2266,-0.0199,0.2187,1.2575,-0.3021,0.2376,0.037,-0.2707,-1.0,-0.3311,-1.0,1.0,-1.0,1.0,1.0,0.8191,1.0,-1.0,1.0,-1.0,1.0,0.4173,1.0,-1.0,0.5747,1.0,0.0,0.0,0.0,0.0,0.0,0.0,0.0,0.0,0.0,0.3333,0.0,0.3333,0.0,0,
4.2,run,22.72,0.87,18.86,17.58,-7.64,0.0,0.05,0.0,0.338,14.85,-36.74,110.74,-19.07,-39.46,83.67,1.32,-44.74,111.45,-9.05,7.21,80.07,-31.2,19.25,44.3,1.49,24.52,59.77,4.14,-40.21,100.03,-12.5,-50.19,87.08,13.9,-41.13,123.79,-20.91,18.09,69.17,-26.0,18.0,54.52,-9.5,19.5,72.77,-1.0,0.2101,-1.0,1.0,-1.0,1.0,1.0,0.934,1.0,-1.0,0.7623,-1.0,1.0,0.3501,1.0,-1.0,1.0,1.0,0.006,0.006,0.013,0.013,0.013,0.0,0.019,0.006,0.033,0.065,0.026,0.006,0.013,0.0,0.006,0.006,0.0,0.045,0.2838,-0.9741,0.744,-0.3636,-1.0308,0.2715,-0.0077,-1.1229,0.701,-0.135,-0.2684,0.2163,-0.5676,-0.0337,-0.4663,0.0537,0.0966,-0.1887,-0.2758,-0.2991,-0.1961,0.3043,0.0671,-0.281,0.2748,-0.264,0.3156,-0.3009,0.3085,-0.3138,0.1234,-0.0579,0.1518,-0.2504,-0.0828,0.2449,1.3262,-0.2597,0.3817,0.2042,-0.2247,-1.0,-0.1417,-1.0,1.0,-1.0,1.0,1.0,1.0,1.0,-1.0,1.0,-1.0,1.0,0.3183,1.0,-1.0,1.0,1.0,0.0,0.0,0.0,0.0,0.0,0.0,0.0,0.0,0.0,0.3333,0.0,0.3333,0.0,0,
4.24,run,23.04,1.83,8.07,24.87,-9.71,0.0,0.05,0.0,0.338,13.45,-38.06,109.25,-17.67,-40.52,83.06,2.72,-45.35,112.94,-10.63,8.7,78.57,-29.71,19.34,45.7,0.09,23.2,61.26,2.64,-38.71,98.53,-11.0,-51.69,88.58,15.4,-39.63,125.29,-22.41,16.59,67.67,-24.5,16.5,56.02,-11.0,21.0,74.27,-1.0,0.8472,-1.0,1.0,-1.0,1.0,1.0,0.939,1.0,-1.0,-0.2361,-1.0,1.0,0.2463,1.0,-1.0,1.0,1.0,0.006,0.006,0.013,0.013,0.013,0.0,0.019,0.006,0.033,0.065,0.026,0.006,0.013,0.0,0.006,0.006,0.0,0.045,0.2592,-0.9971,0.7194,-0.339,-1.04,0.2546,0.0169,-1.1367,0.7271,-0.1595,-0.2424,0.1902,-0.5446,-0.0245,-0.4403,0.0276,0.0736,-0.1626,-0.2857,-0.2962,-0.2298,0.3056,0.0123,-0.2604,0.285,-0.2369,0.3193,-0.3033,0.3144,-0.318,0.1732,-0.0058,0.2047,-0.2737,-0.1447,0.2698,1.3931,-0.1967,0.3292,0.3068,-0.1333,-1.0,0.2101,-1.0,1.0,-1.0,1.0,1.0,0.934,1.0,-1.0,0.7623,-1.0,1.0,0.3501,1.0,-1.0,1.0,1.0,0.0,0.0,0.0,0.0,0.0,0.0,0.0,0.0,0.0,0.3333,0.0,0.3333,0.0,0,
4.28,run,23.3,2.43,6.82,13.56,-16.81,0.0,0.05,0.0,0.338,12.04,-39.11,107.75,-16.35,-41.4,82.71,4.13,-45.53,114.35,-12.04,10.11,77.08,-28.3,19.25,47.11,-1.23,21.8,62.75,1.14,-37.21,97.03,-9.5,-53.19,90.08,16.9,-38.13,126.79,-23.91,15.09,66.17,-23.0,15.0,57.52,-12.5,22.5,75.77,-1.0,1.0,-1.0,1.0,-1.0,1.0,1.0,1.0,1.0,-1.0,-1.0,-1.0,1.0,0.6117,1.0,-1.0,1.0,1.0,0.006,0.006,0.013,0.013,0.013,0.0,0.019,0.006,0.033,0.065,0.026,0.006,0.013,0.0,0.006,0.006,0.0,0.045,0.2347,-1.0201,0.6934,-0.3145,-1.0584,0.2439,0.0414,-1.1474,0.7532,-0.1871,-0.2163,0.1641,-0.5185,-0.023,-0.4157,0.0031,0.0506,-0.1365,-0.2915,-0.2932,-0.2582,0.3055,-0.0601,-0.2223,0.291,-0.2059,0.3208,-0.3153,0.3173,-0.3199,0.2185,0.0016,0.2348,-0.2831,-0.1871,0.2861,1.4211,-0.1126,0.1408,0.4341,-0.1696,-1.0,0.8472,-1.0,1.0,-1.0,1.0,1.0,0.939,1.0,-1.0,-0.2361,-1.0,1.0,0.2463,1.0,-1.0,1.0,1.0,0.0,0.0,0.0,0.0,0.0,0.0,0.0,0.0,0.0,0.3333,0.0,0.3333,0.0,0,
4.32,run,23.55,2.99,7.83,12.97,-26.77,0.0,0.05,0.0,0.338,10.63,-39.9,106.35,-14.85,-43.07,82.71,5.62,-45.35,115.84,-13.45,11.51,75.76,-26.98,18.54,48.6,-2.72,20.65,64.16,-0.36,-35.71,95.53,-8.0,-54.69,91.58,18.4,-36.63,128.29,-25.41,13.59,64.67,-21.5,16.5,59.02,-14.0,24.0,77.27,-1.0,1.0,-1.0,1.0,-1.0,1.0,1.0,1.0,1.0,-1.0,-1.0,-0.5777,1.0,1.0,1.0,-1.0,1.0,1.0,0.006,0.0,0.013,0.013,0.026,0.013,0.019,0.006,0.026,0.052,0.019,0.013,0.019,0.013,0.006,0.006,0.0,0.039,0.2102,-1.0385,0.6673,-0.2915,-1.0738,0.2378,0.066,-1.1505,0.7777,-0.2117,-0.1917,0.1381,-0.4939,-0.0245,-0.3912,-0.0199,0.0261,-0.1104,-0.2961,-0.2743,-0.2785,0.3001,-0.0996,-0.1786,0.2958,-0.1556,0.3166,-0.3127,0.3142,-0.3217,0.245,-0.0046,0.2564,-0.2845,-0.2231,0.2981,1.4435,-0.0605,0.119,0.2367,-0.2933,-1.0,1.0,-1.0,1.0,-1.0,1.0,1.0,1.0,1.0,-1.0,-1.0,-1.0,1.0,0.6117,1.0,-1.0,1.0,1.0,0.0,0.0,0.0,0.0,0.0,0.0,0.0,0.0,0.0,0.3333,0.0,0.3333,0.0,0,
4.36,run,23.98,3.63,11.5,15.44,-26.56,0.0,0.05,0.0,0.338,9.14,-40.43,104.85,-13.45,-44.47,83.23,7.03,-44.65,117.33,-14.94,12.74,74.27,-25.49,17.67,50.01,-4.22,19.86,65.48,-1.86,-34.21,94.03,-6.5,-56.19,93.08,19.9,-35.13,129.79,-26.91,12.09,63.17,-20.0,18.0,60.52,-15.5,25.5,78.77,-1.0,1.0,-1.0,1.0,-1.0,1.0,1.0,1.0,0.963,-1.0,-1.0,-0.4414,1.0,1.0,1.0,-1.0,1.0,1.0,0.006,0.0,0.013,0.013,0.026,0.013,0.019,0.006,0.026,0.052,0.019,0.013,0.019,0.013,0.006,0.006,0.0,0.039,0.1856,-1.0523,0.6427,-0.2654,-1.1029,0.2378,0.092,-1.1474,0.8038,-0.2362,-0.1672,0.115,-0.4709,-0.0368,-0.3651,-0.046,0.0061,-0.0859,-0.2994,-0.2438,-0.287,0.3079,-0.1791,-0.1251,0.3049,-0.0974,0.3195,-0.311,0.312,-0.3115,0.2578,-0.0493,0.2773,-0.297,-0.231,0.3008,1.4653,-0.0115,0.1366,0.2264,-0.4672,-1.0,1.0,-1.0,1.0,-1.0,1.0,1.0,1.0,1.0,-1.0,-1.0,-0.5777,1.0,1.0,1.0,-1.0,1.0,1.0,0.0,0.0,0.0,0.0,0.0,0.0,0.0,0.0,0.0,0.3333,0.0,0.3333,0.0,0,
4.4,run,24.53,4.35,14.09,16.21,-20.25,0.0,0.05,0.0,0.338,7.82,-40.61,103.1,-11.95,-45.79,84.11,8.44,-43.86,118.74,-16.52,13.71,72.86,-23.99,17.05,51.42,-5.62,19.6,66.88,-3.36,-32.71,92.53,-5.0,-57.69,94.58,21.4,-33.63,128.29,-28.41,10.59,61.67,-18.5,19.5,62.02,-17.0,27.0,80.27,-1.0,1.0,-1.0,1.0,-1.0,1.0,1.0,1.0,0.4524,-1.0,-1.0,-0.1263,1.0,1.0,1.0,-1.0,1.0,1.0,0.006,0.0,0.013,0.013,0.026,0.013,0.019,0.006,0.026,0.052,0.019,0.013,0.019,0.013,0.006,0.006,0.0,0.039,0.1595,-1.0615,0.6167,-0.2408,-1.1275,0.247,0.1166,-1.1351,0.8299,-0.2623,-0.1457,0.089,-0.4449,-0.0522,-0.3405,-0.0721,-0.0077,-0.0629,-0.3079,-0.2053,-0.2992,0.3081,-0.2179,-0.0528,0.3059,-0.0219,0.3219,-0.316,0.2994,-0.3164,0.2788,-0.0923,0.2866,-0.3062,-0.2137,0.2973,1.5034,0.0442,0.2007,0.2695,-0.4636,-1.0,1.0,-1.0,1.0,-1.0,1.0,1.0,1.0,0.963,-1.0,-1.0,-0.4414,1.0,1.0,1.0,-1.0,1.0,1.0,0.0,0.0,0.0,0.0,0.0,0.0,0.0,0.0,0.0,0.3333,0.0,0.3333,0.0,0,
4.44,run,24.96,4.87,10.84,11.21,-15.09,0.0,0.05,0.0,0.338,6.42,-40.61,101.87,-10.55,-47.2,85.17,9.84,-42.63,120.15,-18.02,14.41,71.54,-22.68,16.7,52.82,-7.03,19.34,68.2,-4.86,-31.21,91.03,-3.5,-59.19,96.08,22.9,-32.13,126.79,-29.91,9.09,63.17,-17.0,21.0,63.52,-18.5,28.5,81.77,-0.3521,1.0,-1.0,1.0,-1.0,1.0,1.0,0.7927,-0.1682,-1.0,-1.0,0.3388,1.0,1.0,1.0,-1.0,1.0,1.0,0.006,0.026,0.013,0.013,0.026,0.013,0.019,0.006,0.033,0.026,0.0,0.013,0.006,0.0,0.013,0.0,0.019,0.078,0.1365,-1.0646,0.586,-0.2148,-1.1505,0.2623,0.1411,-1.1213,0.8544,-0.2899,-0.1289,0.0644,-0.4188,-0.0629,-0.316,-0.0966,-0.0123,-0.0383,-0.3013,-0.1552,-0.3239,0.3129,-0.2383,0.0202,0.3057,0.0361,0.3169,-0.3242,0.2725,-0.313,0.2924,-0.1047,0.2922,-0.3059,-0.1668,0.2997,1.5512,0.1068,0.246,0.2829,-0.3534,-1.0,1.0,-1.0,1.0,-1.0,1.0,1.0,1.0,0.4524,-1.0,-1.0,-0.1263,1.0,1.0,1.0,-1.0,1.0,1.0,0.0,0.0,0.0,0.0,0.0,0.0,0.0,0.0,0.0,0.3333,0.0,0.3333,0.0,0,
4.48,run,25.25,5.25,7.65,7.13,-16.46,0.0,0.05,0.0,0.338,4.92,-40.17,100.55,-9.14,-48.6,86.57,11.16,-41.22,121.55,-19.42,15.03,70.14,-21.18,16.96,54.32,-8.44,19.34,69.52,-3.36,-29.71,89.53,-2.0,-60.69,97.58,24.4,-30.63,125.29,-31.41,7.59,64.67,-15.5,22.5,65.02,-20.0,30.0,83.27,0.7447,1.0,-1.0,1.0,-1.0,1.0,1.0,0.1921,-0.9161,-1.0,-1.0,0.7401,1.0,1.0,1.0,-1.0,1.0,1.0,0.006,0.026,0.013,0.013,0.026,0.013,0.019,0.006,0.033,0.026,0.0,0.013,0.006,0.0,0.013,0.0,0.019,0.078,0.112,-1.0646,0.5645,-0.1902,-1.175,0.2807,0.1657,-1.0999,0.879,-0.316,-0.1166,0.0414,-0.3958,-0.069,-0.2915,-0.1212,-0.0169,-0.0153,-0.3034,-0.1086,-0.3077,0.3115,-0.2593,0.0835,0.3065,0.1062,0.3143,-0.3252,0.237,-0.3058,0.2914,-0.0964,0.297,-0.3066,-0.1341,0.2965,1.5884,0.1525,0.1892,0.1957,-0.2634,-0.3521,1.0,-1.0,1.0,-1.0,1.0,1.0,0.7927,-0.1682,-1.0,-1.0,0.3388,1.0,1.0,1.0,-1.0,1.0,1.0,0.0,0.0,0.0,0.0,0.0,0.0,0.0,0.0,0.0,0.3333,0.0,0.3333,0.0,0,
4.52,run,25.49,5.37,6.1,2.08,-18.82,0.0,0.05,0.0,0.338,3.52,-39.29,99.14,-7.73,-50.01,87.98,12.57,-39.81,122.87,-20.83,14.85,68.73,-19.86,17.4,55.72,-9.93,19.51,70.84,-1.86,-28.21,88.03,-0.5,-62.19,99.08,25.9,-32.13,123.79,-32.91,6.09,66.17,-14.0,24.0,66.52,-21.5,30.0,84.77,1.0,1.0,-1.0,0.9867,-1.0,1.0,1.0,-0.754,-1.0,-1.0,-1.0,1.0,1.0,1.0,0.5093,-1.0,1.0,1.0,0.006,0.026,0.013,0.013,0.026,0.013,0.019,0.006,0.033,0.026,0.0,0.013,0.006,0.0,0.013,0.0,0.019,0.078,0.0859,-1.0569,0.5415,-0.1657,-1.1996,0.3053,0.1887,-1.0753,0.9035,-0.3405,-0.1058,0.0169,-0.3697,-0.0644,-0.2654,-0.1457,-0.0169,0.0077,-0.3096,-0.0474,-0.3012,0.3096,-0.273,0.15,0.3003,0.1659,0.3115,-0.3192,0.2059,-0.3056,0.3012,-0.0503,0.3052,-0.3061,-0.0939,0.2933,1.6141,0.1853,0.1335,0.1244,-0.2873,0.7447,1.0,-1.0,1.0,-1.0,1.0,1.0,0.1921,-0.9161,-1.0,-1.0,0.7401,1.0,1.0,1.0,-1.0,1.0,1.0,0.0,0.0,0.0,0.0,0.0,0.0,0.0,0.0,0.0,0.3333,0.0,0.3333,0.0,0,
4.56,run,25.79,5.28,7.57,-3.79,-20.17,0.0,0.05,0.0,0.338,2.02,-38.06,97.56,-6.15,-51.5,89.56,14.15,-38.23,124.19,-22.41,14.15,67.32,-18.28,18.46,57.3,-11.43,20.21,72.25,-0.36,-26.71,86.53,-2.0,-63.69,100.58,24.4,-33.63,122.29,-34.41,4.59,67.67,-12.5,25.5,65.02,-23.0,30.0,86.27,1.0,1.0,-0.7498,-0.9492,-1.0,1.0,0.6164,-0.9968,-1.0,-1.0,-1.0,1.0,1.0,1.0,-0.1906,-1.0,1.0,1.0,0.0,0.039,0.006,0.019,0.033,0.013,0.026,0.006,0.019,0.033,0.013,0.006,0.013,0.006,0.006,0.0,0.156,0.084,0.0614,-1.0416,0.517,-0.1411,-1.2241,0.3298,0.2132,-1.0508,0.9265,-0.3651,-0.1089,-0.0077,-0.3467,-0.0568,-0.2408,-0.1718,-0.0138,0.0307,-0.3088,0.0243,-0.3029,0.3088,-0.2832,0.1971,0.3023,0.2082,0.3044,-0.3155,0.1326,-0.306,0.2972,-0.0064,0.3057,-0.3121,-0.0542,0.2916,1.6352,0.196,0.1065,0.0363,-0.3285,1.0,1.0,-1.0,0.9867,-1.0,1.0,1.0,-0.754,-1.0,-1.0,-1.0,1.0,1.0,1.0,0.5093,-1.0,1.0,1.0,0.0,0.0,0.0,0.0,0.0,0.0,0.0,0.0,0.0,0.3333,0.0,0.3333,0.0,0,
4.6,run,26.08,5.05,9.33,-9.26,-22.15,0.0,0.05,0.0,0.338,0.79,-36.74,96.33,-5.01,-52.82,90.88,15.47,-36.91,124.98,-23.64,13.36,66.45,-16.96,19.42,58.54,-12.66,21.09,73.48,1.14,-25.21,88.03,-3.5,-65.19,102.08,22.9,-35.13,120.79,-35.0,3.09,69.17,-11.0,27.0,63.52,-24.5,28.5,87.77,1.0,1.0,0.2838,-1.0,-1.0,0.944,-0.1982,-1.0,-1.0,-1.0,-1.0,1.0,1.0,1.0,-1.0,-1.0,0.4734,1.0,0.0,0.039,0.006,0.019,0.033,0.013,0.026,0.006,0.019,0.033,0.013,0.006,0.013,0.006,0.006,0.0,0.156,0.084,0.0353,-1.0201,0.4893,-0.1135,-1.2502,0.3574,0.2408,-1.0232,0.9495,-0.3927,-0.1212,-0.0322,-0.3191,-0.0383,-0.2132,-0.1979,-0.0015,0.0552,-0.3053,0.0904,-0.3064,0.3105,-0.2873,0.2323,0.306,0.2401,0.2917,-0.3152,0.0509,-0.2981,0.3024,0.0584,0.3083,-0.3076,0.004,0.288,1.661,0.188,0.132,-0.0661,-0.3521,1.0,1.0,-0.7498,-0.9492,-1.0,1.0,0.6164,-0.9968,-1.0,-1.0,-1.0,1.0,1.0,1.0,-0.1906,-1.0,1.0,1.0,0.0,0.0,0.0,0.0,0.0,0.0,0.0,0.0,0.0,0.3333,0.0,0.3333,0.0,0,
4.64,run,26.63,4.39,16.8,-19.42,-21.4,0.0,0.05,0.0,0.338,-0.26,-35.42,94.83,-3.87,-54.23,92.29,16.88,-35.6,125.6,-25.14,12.22,65.65,-15.56,20.92,60.03,-14.06,22.24,74.88,2.64,-23.71,89.53,-5.0,-66.69,103.58,21.4,-36.63,119.29,-35.0,1.59,70.67,-9.5,28.5,62.02,-26.0,27.0,86.27,1.0,1.0,0.6916,-1.0,-1.0,1.0,-0.1783,-1.0,-1.0,-1.0,-1.0,1.0,1.0,1.0,-1.0,-1.0,-0.7537,0.1639,0.0,0.039,0.006,0.019,0.033,0.013,0.026,0.006,0.019,0.033,0.013,0.006,0.013,0.006,0.006,0.0,0.156,0.084,0.0138,-0.9971,0.4679,-0.0936,-1.2732,0.3804,0.2638,-1.0002,0.9633,-0.4142,-0.135,-0.0476,-0.2961,-0.0215,-0.1917,-0.2194,0.0138,0.0767,-0.3035,0.1595,-0.3042,0.3007,-0.2973,0.2588,0.3104,0.2642,0.2619,-0.3104,-0.0221,-0.2728,0.3079,0.1114,0.3056,-0.3051,0.0669,0.2914,1.6863,0.1681,0.1628,-0.1615,-0.3866,1.0,1.0,0.2838,-1.0,-1.0,0.944,-0.1982,-1.0,-1.0,-1.0,-1.0,1.0,1.0,1.0,-1.0,-1.0,0.4734,1.0,0.0,0.0,0.0,0.0,0.0,0.0,0.0,0.0,0.0,0.3333,0.0,0.3333,0.0,0,
4.68,run,27.42,4.19,18.58,-7.13,-16.55,0.0,0.05,0.0,0.338,-0.88,-33.93,93.43,-2.99,-55.63,93.69,18.19,-34.72,125.86,-26.63,10.9,65.39,-14.15,22.32,61.26,-15.56,23.38,76.29,4.14,-22.21,91.03,-6.5,-68.19,102.08,19.9,-38.13,117.79,-35.0,0.09,72.17,-8.0,30.0,60.52,-27.5,25.5,84.77,1.0,1.0,1.0,-1.0,-1.0,0.3801,-0.7579,-1.0,-1.0,-1.0,-1.0,1.0,1.0,1.0,-1.0,-1.0,-1.0,-1.0,0.006,0.039,0.013,0.0,0.026,0.013,0.013,0.006,0.0,0.019,0.013,0.006,0.013,0.013,0.013,0.013,0.221,0.104,-0.0046,-0.9741,0.4418,-0.0736,-1.2977,0.405,0.2884,-0.9771,0.9741,-0.4403,-0.1549,-0.0614,-0.2715,0.0046,-0.1657,-0.2439,0.0337,0.1012,-0.2809,0.1972,-0.3099,0.2846,-0.2994,0.2724,0.3085,0.2705,0.2233,-0.3142,-0.0896,-0.2423,0.3067,0.1749,0.3109,-0.3048,0.121,0.2952,1.7345,0.1104,0.2933,-0.339,-0.3735,1.0,1.0,0.6916,-1.0,-1.0,1.0,-0.1783,-1.0,-1.0,-1.0,-1.0,1.0,1.0,1.0,-1.0,-1.0,-0.7537,0.1639,0.0,0.0,0.0,0.0,0.0,0.0,0.0,0.0,0.0,0.3333,0.0,0.3333,0.0,0,
4.72,run,28.2,3.89,20.76,-8.47,-6.1,0.0,0.05,0.0,0.338,-1.41,-32.52,92.11,-2.46,-57.13,95.1,19.25,-34.1,125.86,-28.12,9.58,65.39,-12.74,23.55,62.31,-16.79,24.35,77.7,5.64,-20.71,92.53,-8.0,-69.69,103.58,18.4,-39.63,116.29,-33.5,-1.41,73.67,-9.5,30.0,59.02,-29.0,24.0,83.27,1.0,0.7118,1.0,-1.0,-1.0,0.695,-1.0,-1.0,-1.0,-0.4281,-1.0,1.0,-0.4406,1.0,-1.0,-1.0,-1.0,-1.0,0.006,0.039,0.013,0.0,0.026,0.013,0.013,0.006,0.0,0.019,0.013,0.006,0.013,0.013,0.013,0.013,0.221,0.104,-0.0153,-0.948,0.4172,-0.0583,-1.3223,0.4295,0.3114,-0.9618,0.9787,-0.4663,-0.1779,-0.066,-0.247,0.0291,-0.1442,-0.27,0.0537,0.1258,-0.2372,0.2367,-0.3098,0.2573,-0.3024,0.2836,0.303,0.2474,0.1737,-0.3186,-0.1498,-0.187,0.3076,0.2153,0.2989,-0.312,0.1601,0.2995,1.8033,0.093,0.3243,-0.1244,-0.2888,1.0,1.0,1.0,-1.0,-1.0,0.3801,-0.7579,-1.0,-1.0,-1.0,-1.0,1.0,1.0,1.0,-1.0,-1.0,-1.0,-1.0,0.0,0.0,0.0,0.0,0.0,0.0,0.0,0.0,0.0,0.3333,0.0,0.3333,0.0,0,
4.76,run,28.9,3.44,18.6,-13.74,1.88,0.0,0.05,0.0,0.338,-1.49,-31.11,91.05,-2.29,-58.62,96.5,20.04,-33.84,125.42,-29.44,8.17,65.65,-11.43,25.05,62.93,-18.11,25.31,79.01,7.14,-22.21,94.03,-9.5,-71.19,105.08,16.9,-41.13,114.79,-32.0,-2.91,75.17,-11.0,30.0,57.52,-30.5,22.5,81.77,1.0,-0.2072,1.0,-1.0,-1.0,1.0,-1.0,-1.0,-1.0,0.7027,-1.0,1.0,-1.0,1.0,-0.917,-1.0,-1.0,-1.0,0.006,0.039,0.013,0.0,0.026,0.013,0.013,0.006,0.0,0.019,0.013,0.006,0.013,0.013,0.013,0.013,0.221,0.104,-0.0245,-0.9235,0.3942,-0.0491,-1.3484,0.4541,0.3298,-0.9511,0.9787,-0.4924,-0.201,-0.066,-0.2224,0.0506,-0.1258,-0.2915,0.0706,0.1503,-0.2004,0.2574,-0.3028,0.2145,-0.3091,0.2902,0.2809,0.2133,0.1216,-0.3205,-0.1908,-0.1309,0.307,0.231,0.278,-0.2987,0.1751,0.3013,1.8711,0.0669,0.3624,-0.1478,-0.1065,1.0,0.7118,1.0,-1.0,-1.0,0.695,-1.0,-1.0,-1.0,-0.4281,-1.0,1.0,-0.4406,1.0,-1.0,-1.0,-1.0,-1.0,0.0,0.0,0.0,0.0,0.0,0.0,0.0,0.0,0.0,0.3333,0.0,0.3333,0.0,0,
4.8,run,29.63,3.19,18.97,-9.47,5.12,0.0,0.05,0.0,0.338,-1.23,-29.71,90.35,-2.29,-60.03,97.91,20.65,-33.93,124.8,-30.76,6.68,66.62,-10.28,26.46,63.37,-19.69,25.84,80.24,8.64,-23.71,95.53,-11.0,-72.69,106.58,15.4,-42.63,113.29,-30.5,-4.41,76.67,-12.5,30.0,56.02,-32.0,21.0,80.27,1.0,-0.9472,1.0,-1.0,-1.0,1.0,-1.0,-1.0,-1.0,1.0,-1.0,1.0,-1.0,1.0,-0.9208,-1.0,-1.0,-1.0,0.026,0.039,0.0,0.019,0.013,0.019,0.0,0.013,0.026,0.006,0.026,0.006,0.006,0.006,0.006,0.013,0.13,0.052,-0.0261,-0.8989,0.3758,-0.046,-1.3744,0.4786,0.3436,-0.9465,0.971,-0.5154,-0.2255,-0.0614,-0.1994,0.0767,-0.115,-0.3145,0.0874,0.1733,-0.146,0.2719,-0.2807,0.1616,-0.3138,0.2948,0.2482,0.1665,0.0565,-0.3103,-0.2253,-0.0744,0.3009,0.2591,0.2347,-0.295,0.1856,0.2969,1.9328,0.0279,0.3246,-0.2397,0.0328,1.0,-0.2072,1.0,-1.0,-1.0,1.0,-1.0,-1.0,-1.0,0.7027,-1.0,1.0,-1.0,1.0,-0.917,-1.0,-1.0,-1.0,0.0,0.0,0.0,0.0,0.0,0.0,0.0,0.0,0.0,0.3333,0.0,0.3333,0.0,0,
4.84,run,30.27,3.14,15.62,-3.66,4.47,0.0,0.05,0.0,0.338,-0.53,-28.39,89.82,-2.29,-61.52,99.4,20.83,-34.54,124.01,-31.82,5.36,67.68,-9.49,27.77,63.19,-21.01,26.02,81.21,10.14,-25.21,97.03,-12.5,-74.19,108.08,13.9,-44.13,111.79,-29.0,-5.91,78.17,-14.0,30.0,54.52,-30.5,19.5,78.77,1.0,-1.0,1.0,-1.0,-1.0,1.0,-1.0,-1.0,-1.0,1.0,-1.0,1.0,-1.0,1.0,-0.7825,-0.8087,-1.0,-1.0,0.026,0.039,0.0,0.019,0.013,0.019,0.0,0.013,0.026,0.006,0.026,0.006,0.006,0.006,0.006,0.013,0.13,0.052,-0.0215,-0.8744,0.3636,-0.046,-1.399,0.5031,0.3543,-0.948,0.9603,-0.5384,-0.2516,-0.0445,-0.1795,0.1012,-0.1074,-0.3421,0.0966,0.1948,-0.0849,0.2829,-0.2428,0.1131,-0.3123,0.299,0.2143,0.1108,-0.001,-0.304,-0.2561,0.0116,0.2859,0.274,0.1932,-0.3107,0.1647,0.2889,1.9966,0.0061,0.3311,-0.1653,0.0893,1.0,-0.9472,1.0,-1.0,-1.0,1.0,-1.0,-1.0,-1.0,1.0,-1.0,1.0,-1.0,1.0,-0.9208,-1.0,-1.0,-1.0,0.0,0.0,0.0,0.0,0.0,0.0,0.0,0.0,0.0,0.3333,0.0,0.3333,0.0,0,
4.88,run,30.61,2.97,8.18,-5.19,4.75,0.0,0.05,0.0,0.338,0.35,-27.16,89.74,-3.6,-62.93,100.72,20.74,-35.42,122.61,-32.52,3.87,68.99,-9.05,28.74,62.67,-22.41,26.1,81.91,11.64,-26.71,98.53,-14.0,-75.69,109.58,12.4,-45.63,110.29,-27.5,-7.41,79.67,-15.5,30.0,53.02,-29.0,18.0,77.27,1.0,-1.0,1.0,-1.0,-1.0,1.0,-1.0,-1.0,-1.0,1.0,-1.0,1.0,-1.0,1.0,-0.6011,-0.6922,-1.0,-1.0,0.026,0.039,0.0,0.019,0.013,0.019,0.0,0.013,0.026,0.006,0.026,0.006,0.006,0.006,0.006,0.013,0.13,0.052,-0.0092,-0.8514,0.3543,-0.046,-1.4251,0.5292,0.3574,-0.9587,0.9465,-0.5568,-0.2746,-0.0261,-0.1657,0.1243,-0.1104,-0.3651,0.0997,0.2117,-0.0135,0.2841,-0.2044,0.0792,-0.3161,0.3068,0.1615,0.0374,-0.0523,-0.2817,-0.2653,0.077,0.2517,0.2779,0.1238,-0.3036,0.1267,0.2653,2.0522,0.0012,0.2726,-0.0639,0.078,1.0,-1.0,1.0,-1.0,-1.0,1.0,-1.0,-1.0,-1.0,1.0,-1.0,1.0,-1.0,1.0,-0.7825,-0.8087,-1.0,-1.0,0.0,0.0,0.0,0.0,0.0,0.0,0.0,0.0,0.0,0.3333,0.0,0.3333,0.0,0,
4.92,run,30.7,2.71,1.41,-8.29,9.8,0.0,0.05,0.0,0.338,1.58,-26.19,89.82,-4.83,-64.42,102.13,20.57,-36.47,121.2,-32.96,2.46,70.49,-8.79,29.36,61.88,-23.73,26.1,82.27,13.14,-28.21,100.03,-15.5,-77.19,111.08,10.9,-47.13,108.79,-26.0,-8.91,81.17,-17.0,30.0,51.52,-27.5,16.5,75.77,1.0,-1.0,1.0,-1.0,-1.0,1.0,-1.0,-1.0,-1.0,1.0,-1.0,1.0,-1.0,1.0,-0.5505,-0.4764,-1.0,-1.0,0.078,0.039,0.026,0.013,0.006,0.019,0.026,0.013,0.026,0.0,0.026,0.013,0.013,0.0,0.019,0.019,0.0,0.013,0.0061,-0.8299,0.3528,-0.069,-1.4496,0.5522,0.3559,-0.9741,0.9219,-0.5691,-0.3007,-0.0031,-0.158,0.1411,-0.1197,-0.3896,0.1012,0.224,0.048,0.2793,-0.1488,-0.0307,-0.3132,0.3009,0.1073,-0.0313,-0.1285,-0.2431,-0.2834,0.14,0.2049,0.2577,0.0522,-0.3044,0.0945,0.2317,2.0819,-0.0133,0.1428,-0.0907,0.0829,1.0,-1.0,1.0,-1.0,-1.0,1.0,-1.0,-1.0,-1.0,1.0,-1.0,1.0,-1.0,1.0,-0.6011,-0.6922,-1.0,-1.0,0.0,0.0,0.0,0.0,0.0,0.0,0.0,0.0,0.0,0.3333,0.0,0.3333,0.0,0,
4.96,run,30.36,2.6,-8.71,-4.19,11.96,0.0,0.05,0.0,0.338,2.81,-25.49,90.35,-6.33,-65.74,103.62,19.6,-37.88,119.62,-32.96,1.05,71.89,-9.23,29.79,61.0,-25.05,25.4,82.35,14.64,-29.71,101.53,-17.0,-78.69,112.58,9.4,-48.63,107.29,-24.5,-10.41,82.67,-18.5,30.0,50.02,-26.0,15.0,74.27,1.0,-1.0,1.0,-1.0,-1.0,1.0,-1.0,-0.6016,-1.0,1.0,-1.0,1.0,-1.0,1.0,-0.3942,-0.2806,-1.0,-1.0,0.078,0.039,0.026,0.013,0.006,0.019,0.026,0.013,0.026,0.0,0.026,0.013,0.013,0.0,0.019,0.019,0.0,0.013,0.0276,-0.813,0.3543,-0.0905,-1.4757,0.5768,0.3528,-0.9925,0.8974,-0.5768,-0.3252,0.023,-0.1534,0.1519,-0.1335,-0.4126,0.1012,0.2301,0.1141,0.2587,-0.0984,-0.102,-0.317,0.3026,0.0636,-0.0909,-0.182,-0.1989,-0.2903,0.1958,0.1607,0.2206,-0.0152,-0.2993,0.0661,0.1852,2.0893,-0.0359,0.0247,-0.1447,0.171,1.0,-1.0,1.0,-1.0,-1.0,1.0,-1.0,-1.0,-1.0,1.0,-1.0,1.0,-1.0,1.0,-0.5505,-0.4764,-1.0,-1.0,0.0,0.0,0.0,0.0,0.0,0.0,0.0,0.0,0.0,0.3333,0.0,0.3333,0.0,0,
5.0,run,29.69,2.41,-16.09,-6.25,12.55,0.0,0.05,0.0,0.338,4.31,-24.96,91.32,-7.82,-67.06,105.12,18.28,-39.38,118.21,-32.7,-0.35,73.3,-9.93,29.79,59.5,-26.02,24.26,82.27,16.14,-31.21,103.03,-18.5,-80.0,114.08,7.9,-50.13,105.79,-23.0,-11.91,84.17,-20.0,30.0,48.52,-24.5,13.5,72.77,1.0,-1.0,1.0,-1.0,-1.0,1.0,-1.0,-0.5239,-1.0,1.0,-1.0,1.0,-1.0,1.0,-0.578,-0.2018,-1.0,-1.0,0.078,0.039,0.026,0.013,0.006,0.019,0.026,0.013,0.026,0.0,0.026,0.013,0.013,0.0,0.019,0.019,0.0,0.013,0.0491,-0.8007,0.3636,-0.1166,-1.4987,0.6029,0.3359,-1.017,0.8698,-0.5768,-0.3497,0.0476,-0.1611,0.1595,-0.1488,-0.4357,0.089,0.2316,0.1608,0.2274,-0.0342,-0.1697,-0.3087,0.3102,-0.0191,-0.1562,-0.2315,-0.1393,-0.2958,0.2296,0.0836,0.1834,-0.0685,-0.2963,0.0,0.1354,2.0595,-0.0454,-0.152,-0.0732,0.2087,1.0,-1.0,1.0,-1.0,-1.0,1.0,-1.0,-0.6016,-1.0,1.0,-1.0,1.0,-1.0,1.0,-0.3942,-0.2806,-1.0,-1.0,0.0,0.0,0.0,0.0,0.0,0.0,0.0,0.0,0.0,0.3333,0.0,0.3333,0.0,0,
5.04,run,28.87,2.07,-20.53,-9.48,6.85,0.0,0.048,0.0,0.338,5.8,-24.87,92.46,-9.23,-68.38,106.52,16.96,-40.61,116.89,-31.73,-1.76,74.71,-10.81,29.79,58.1,-26.81,23.12,81.47,17.64,-32.71,104.53,-20.0,-80.0,115.58,6.4,-48.63,104.29,-21.5,-13.41,85.67,-21.5,30.0,50.02,-23.0,12.0,71.27,1.0,-1.0,1.0,-1.0,-1.0,1.0,-1.0,0.2176,-1.0,1.0,-1.0,1.0,-1.0,1.0,-0.1473,-0.2183,-1.0,-1.0,0.078,0.0,0.052,0.006,0.019,0.013,0.019,0.026,0.033,0.019,0.019,0.006,0.019,0.0,0.006,0.013,0.0,0.006,0.0752,-0.7915,0.3804,-0.1427,-1.5217,0.6289,0.3129,-1.0431,0.8452,-0.5722,-0.3743,0.0721,-0.1733,0.1595,-0.1749,-0.4525,0.069,0.2301,0.2097,0.1935,0.0389,-0.2159,-0.3017,0.3142,-0.0991,-0.2064,-0.2535,-0.0803,-0.2985,0.2521,0.0128,0.1283,-0.1451,-0.2702,-0.0743,0.0891,2.0016,-0.0623,-0.2808,-0.109,0.2191,1.0,-1.0,1.0,-1.0,-1.0,1.0,-1.0,-0.5239,-1.0,1.0,-1.0,1.0,-1.0,1.0,-0.578,-0.2018,-1.0,-1.0,0.0,0.0,0.0,0.0,0.0,0.0,0.0,0.0,0.0,0.32,0.0,0.32,0.0,0,
5.08,run,27.53,1.72,-23.09,-8.38,-0.31,0.0,0.046,0.0,0.338,7.82,-24.96,94.39,-11.16,-70.4,108.54,14.94,-42.45,114.96,-30.32,-3.78,76.64,-12.74,29.79,55.81,-27.33,21.36,79.8,19.14,-34.21,106.03,-21.5,-80.0,117.05,4.9,-47.13,102.79,-20.0,-14.91,87.17,-23.0,30.0,48.52,-21.5,10.5,69.77,1.0,-1.0,1.0,-1.0,-1.0,0.6123,-1.0,0.4422,-1.0,1.0,-1.0,1.0,-1.0,1.0,-0.3784,-0.3316,-1.0,-1.0,0.078,0.0,0.052,0.006,0.019,0.013,0.019,0.026,0.033,0.019,0.019,0.006,0.019,0.0,0.006,0.013,0.0,0.006,0.1012,-0.79,0.4004,-0.1672,-1.5447,0.6535,0.2899,-1.0646,0.8222,-0.5553,-0.3988,0.0966,-0.1887,0.1595,-0.1994,-0.4663,0.0491,0.2163,0.2447,0.1412,0.1021,-0.2433,-0.2976,0.3122,-0.1558,-0.2252,-0.2638,0.0071,-0.3011,0.2687,-0.0487,0.0898,-0.1937,-0.241,-0.1269,0.0105,1.93,-0.0915,-0.3582,-0.1654,0.1196,1.0,-1.0,1.0,-1.0,-1.0,1.0,-1.0,0.2176,-1.0,1.0,-1.0,1.0,-1.0,1.0,-0.1473,-0.2183,-1.0,-1.0,0.0,0.0,0.0,0.0,0.0,0.0,0.0,0.0,0.0,0.3067,0.0,0.3067,0.0,0,
5.12,run,26.64,1.9,-22.81,3.45,6.06,0.0,0.044,0.0,0.338,9.32,-25.66,95.71,-12.66,-71.81,110.04,13.18,-43.95,113.47,-28.92,-5.19,78.13,-14.06,29.79,54.49,-27.16,19.95,78.49,20.64,-35.71,107.53,-23.0,-80.0,115.55,3.4,-45.63,101.29,-18.5,-16.41,88.67,-24.5,30.0,50.02,-20.0,9.0,68.27,1.0,-1.0,1.0,-1.0,-1.0,-0.2732,-1.0,1.0,-1.0,1.0,-1.0,1.0,-1.0,1.0,0.1322,-0.2836,-1.0,-1.0,0.078,0.0,0.052,0.006,0.019,0.013,0.019,0.026,0.033,0.019,0.019,0.006,0.019,0.0,0.006,0.013,0.0,0.006,0.1365,-0.7915,0.4341,-0.201,-1.58,0.6888,0.2546,-1.0968,0.7885,-0.5308,-0.4341,0.1304,-0.2224,0.1595,-0.2393,-0.4755,0.0184,0.1871,0.2656,0.0947,0.1617,-0.2606,-0.3027,0.3128,-0.2034,-0.2437,-0.2749,0.0706,-0.3051,0.2783,-0.1243,0.0629,-0.2422,-0.1933,-0.1708,-0.0706,1.8126,-0.1221,-0.403,-0.1462,-0.0054,1.0,-1.0,1.0,-1.0,-1.0,0.6123,-1.0,0.4422,-1.0,1.0,-1.0,1.0,-1.0,1.0,-0.3784,-0.3316,-1.0,-1.0,0.0,0.0,0.0,0.0,0.0,0.0,0.0,0.0,0.0,0.2933,0.0,0.2933,0.0,0,
