t_s,phase,roll_deg,pitch_deg,gyro_x_dps,gyro_y_dps,gyro_z_dps,height_ref_mm,vx_ref_mps,vy_ref_mps,max_cur_a,q0_deg,q1_deg,q2_deg,q3_deg,q4_deg,q5_deg,q6_deg,q7_deg,q8_deg,q9_deg,q10_deg,q11_deg,q12_deg,q13_deg,q14_deg,q15_deg,q16_deg,q17_deg,cmd0_deg,cmd1_deg,cmd2_deg,cmd3_deg,cmd4_deg,cmd5_deg,cmd6_deg,cmd7_deg,cmd8_deg,cmd9_deg,cmd10_deg,cmd11_deg,cmd12_deg,cmd13_deg,cmd14_deg,cmd15_deg,cmd16_deg,cmd17_deg,act0,act1,act2,act3,act4,act5,act6,act7,act8,act9,act10,act11,act12,act13,act14,act15,act16,act17,cur0_a,cur1_a,cur2_a,cur3_a,cur4_a,cur5_a,cur6_a,cur7_a,cur8_a,cur9_a,cur10_a,cur11_a,cur12_a,cur13_a,cur14_a,cur15_a,cur16_a,cur17_a,obs0,obs1,obs2,obs3,obs4,obs5,obs6,obs7,obs8,obs9,obs10,obs11,obs12,obs13,obs14,obs15,obs16,obs17,obs18,obs19,obs20,obs21,obs22,obs23,obs24,obs25,obs26,obs27,obs28,obs29,obs30,obs31,obs32,obs33,obs34,obs35,obs36,obs37,obs38,obs39,obs40,obs41,obs42,obs43,obs44,obs45,obs46,obs47,obs48,obs49,obs50,obs51,obs52,obs53,obs54,obs55,obs56,obs57,obs58,obs59,obs60,obs61,obs62,obs63,obs64,obs65,obs66,obs67,obs68,obs69,obs70,obs71,rot60_k
0.0,run,-0.09,2.86,0.0,0.23,0.52,0.0,0.0,0.0,0.019,-0.09,18.9,79.72,-0.09,16.79,78.93,0.09,19.07,80.33,0.09,17.05,79.28,0.0,18.9,79.45,-0.18,17.4,78.93,-1.59,17.57,78.22,-1.5,15.38,80.25,1.59,17.75,81.66,1.59,15.73,80.69,-1.5,17.4,77.95,-1.68,16.08,80.34,-1.0,-1.0,-0.3656,-1.0,-1.0,1.0,1.0,-1.0,1.0,1.0,-1.0,1.0,-0.1855,-1.0,-0.5079,-1.0,-1.0,1.0,0.013,0.0,0.006,0.0,0.006,0.0,0.006,0.0,0.006,0.006,0.0,0.006,0.013,0.013,0.019,0.013,0.0,0.0,0.0,-0.0031,0.0,-0.0015,-0.0015,0.0031,0.0,-0.0031,0.0015,0.0,-0.0031,0.0031,0.0,0.0,0.0,0.0,-0.0031,0.0015,0.0,-0.0076,0.0,-0.0032,-0.0032,0.007,0.0,-0.0064,0.0038,0.0,-0.0076,0.0076,0.0,0.0,0.0,0.0,-0.0076,0.0038,0.0,0.0,-0.0056,-0.0074,-0.0012,0.0,0.0,0.0,0.0,0.0,0.0,0.0,0.0,0.0,0.0,0.0,0.0,0.0,0.0,0.0,0.0,0.0,0.0,0.0,0.0,0.0,0.0,0.0,0.0,0.0,0.0,0.0,0.0,0.0,0.0,0.0,0
0.04,run,-0.12,2.87,-0.03,-0.08,-0.27,0.0,0.0,0.0,0.019,-0.44,18.81,79.72,-0.18,16.61,79.1,0.09,18.81,80.33,0.26,16.96,79.37,-0.18,18.63,79.28,-0.44,17.23,79.01,-3.09,19.07,79.72,-3.0,13.88,81.75,0.09,16.25,80.16,3.09,14.23,82.19,-3.0,15.9,79.45,-3.18,14.58,81.84,-1.0,1.0,1.0,-1.0,-1.0,1.0,-1.0,-1.0,-1.0,1.0,-1.0,1.0,-1.0,0.3222,1.0,-1.0,-1.0,1.0,0.013,0.0,0.006,0.0,0.006,0.0,0.006,0.0,0.006,0.006,0.0,0.006,0.013,0.013,0.019,0.013,0.0,0.0,0.0,-0.0031,0.0,-0.0015,-0.0015,0.0031,0.0,-0.0031,0.0031,0.0,-0.0031,0.0015,0.0,0.0,0.0,0.0,-0.0031,0.0015,0.0,-0.0053,0.0,-0.0022,-0.0022,0.0049,0.0,-0.0045,0.0052,0.0,-0.0053,0.0028,0.0,0.0,0.0,0.0,-0.0053,0.0026,-0.0004,0.0013,0.0,0.0039,0.0091,-1.0,-1.0,-0.3656,-1.0,-1.0,1.0,1.0,-1.0,1.0,1.0,-1.0,1.0,-0.1855,-1.0,-0.5079,-1.0,-1.0,1.0,0.0,0.0,0.0,0.0,0.0,0.0,0.0,0.0,0.0,0.0,0.0,0.0,0.0,0
0.08,run,-0.17,2.79,0.57,-2.51,-0.22,0.0,0.0,0.0,0.019,-1.14,18.19,79.19,-0.7,16.08,79.8,0.18,18.02,80.86,0.88,16.35,80.07,-1.14,17.93,78.75,-1.32,16.61,79.63,-1.59,17.57,81.22,-4.5,12.38,83.25,-1.41,17.75,81.66,4.59,12.73,83.69,-4.5,17.4,80.95,-4.68,13.08,83.34,0.3816,0.6017,0.3558,-1.0,-1.0,0.706,-1.0,1.0,1.0,1.0,-1.0,1.0,-1.0,1.0,1.0,-1.0,-1.0,1.0,0.013,0.0,0.006,0.0,0.006,0.0,0.006,0.0,0.006,0.006,0.0,0.006,0.013,0.013,0.019,0.013,0.0,0.0,-0.0061,-0.0046,0.0,-0.0031,-0.0046,0.0061,0.0,-0.0077,0.0031,0.0031,-0.0046,0.0031,-0.0031,-0.0046,-0.0031,-0.0046,-0.0061,0.0031,-0.023,-0.0095,0.0,-0.0073,-0.0131,0.0149,0.0,-0.0204,0.0036,0.0115,-0.0095,0.0077,-0.0115,-0.0173,-0.0115,-0.0173,-0.0152,0.0076,-0.0035,0.0019,-0.0005,-0.0014,-0.0048,-1.0,1.0,1.0,-1.0,-1.0,1.0,-1.0,-1.0,-1.0,1.0,-1.0,1.0,-1.0,0.3222,1.0,-1.0,-1.0,1.0,0.0,0.0,0.0,0.0,0.0,0.0,0.0,0.0,0.0,0.0,0.0,0.0,0.0,0
0.12,run,-0.53,2.84,-8.92,0.47,-4.56,0.0,0.0,0.0,0.026,-1.85,17.84,78.93,-1.14,15.21,80.77,0.79,17.4,81.3,2.02,15.47,81.12,-1.85,17.05,78.57,-2.11,15.82,80.42,-3.09,19.07,82.72,-6.0,10.88,84.75,-2.91,19.25,83.16,6.09,11.23,85.19,-3.0,18.9,79.45,-6.18,11.58,84.84,-1.0,1.0,0.4225,-1.0,-1.0,1.0,-1.0,1.0,1.0,1.0,-1.0,1.0,0.6075,0.9799,-1.0,-1.0,-1.0,1.0,0.006,0.0,0.0,0.019,0.013,0.013,0.0,0.0,0.0,0.026,0.006,0.006,0.013,0.013,0.0,0.019,0.006,0.006,-0.0184,-0.0153,-0.0092,-0.0123,-0.0138,0.0184,0.0015,-0.0215,0.0123,0.0138,-0.0153,0.0153,-0.0199,-0.0169,-0.0123,-0.0199,-0.0169,0.0138,-0.062,-0.0468,-0.0344,-0.0396,-0.0436,0.0564,0.0057,-0.0659,0.037,0.0482,-0.0468,0.0513,-0.0712,-0.058,-0.0425,-0.0695,-0.0508,0.0455,-0.0075,-0.0047,0.0099,-0.0438,-0.0038,0.3816,0.6017,0.3558,-1.0,-1.0,0.706,-1.0,1.0,1.0,1.0,-1.0,1.0,-1.0,1.0,1.0,-1.0,-1.0,1.0,0.0,0.0,0.0,0.0,0.0,0.0,0.0,0.0,0.0,0.0,0.0,0.0,0.0,0
0.16,run,-0.64,2.87,-1.62,-0.24,-8.31,0.0,0.0,0.0,0.026,-2.37,17.58,79.01,-2.55,14.15,82.0,0.79,17.05,81.74,2.99,14.33,82.27,-2.81,16.61,78.93,-3.43,14.68,81.47,-4.59,20.57,81.22,-7.5,9.37,86.25,-4.41,20.75,84.66,7.59,9.73,86.69,-1.5,17.4,80.95,-7.68,10.08,86.34,-1.0,1.0,0.093,-1.0,-0.4831,1.0,-0.6352,1.0,0.575,1.0,-1.0,1.0,0.597,-0.1345,0.391,-1.0,-1.0,1.0,0.006,0.0,0.0,0.019,0.013,0.013,0.0,0.0,0.0,0.026,0.006,0.006,0.013,0.013,0.0,0.019,0.006,0.006,-0.0307,-0.0215,-0.0138,-0.0199,-0.0291,0.0353,0.0123,-0.0322,0.0199,0.0337,-0.0307,0.0337,-0.0322,-0.0322,-0.0153,-0.0337,-0.0307,0.0276,-0.0896,-0.0558,-0.0414,-0.0565,-0.0882,0.1029,0.0444,-0.0865,0.0547,0.1087,-0.0904,0.1051,-0.096,-0.0983,-0.0413,-0.1005,-0.0875,0.0837,-0.0394,-0.0001,-0.1556,0.0082,-0.0796,-1.0,1.0,0.4225,-1.0,-1.0,1.0,-1.0,1.0,1.0,1.0,-1.0,1.0,0.6075,0.9799,-1.0,-1.0,-1.0,1.0,0.0,0.0,0.0,0.0,0.0,0.0,0.0,0.0,0.0,0.0,0.0,0.0,0.0,0
0.2,run,-0.55,2.82,3.24,-1.7,-9.47,0.0,0.0,0.0,0.026,-3.08,17.49,79.54,-3.87,13.01,83.06,0.79,17.05,82.44,4.31,13.1,83.5,-3.34,16.7,79.45,-4.66,13.54,82.18,-6.09,22.07,82.72,-9.0,7.87,87.75,-5.91,19.25,86.16,9.09,8.23,88.19,0.0,15.9,82.45,-9.18,8.58,87.84,-1.0,1.0,0.8973,-1.0,-0.9608,1.0,-0.9667,0.2503,0.297,1.0,-1.0,1.0,0.1283,0.1403,1.0,-1.0,-1.0,1.0,0.006,0.0,0.0,0.019,0.013,0.013,0.0,0.0,0.0,0.026,0.006,0.006,0.013,0.013,0.0,0.019,0.006,0.006,-0.0399,-0.0261,-0.0123,-0.0445,-0.0476,0.0568,0.0123,-0.0383,0.0276,0.0506,-0.0506,0.0537,-0.0491,-0.0399,-0.0092,-0.0568,-0.0506,0.046,-0.0972,-0.0563,-0.0232,-0.1316,-0.1308,0.1525,0.0311,-0.0836,0.0671,0.1394,-0.1381,0.1483,-0.1304,-0.0975,-0.0059,-0.1567,-0.136,0.1276,-0.0489,0.0021,-0.0282,-0.0042,-0.145,-1.0,1.0,0.093,-1.0,-0.4831,1.0,-0.6352,1.0,0.575,1.0,-1.0,1.0,0.597,-0.1345,0.391,-1.0,-1.0,1.0,0.0,0.0,0.0,0.0,0.0,0.0,0.0,0.0,0.0,0.0,0.0,0.0,0.0,0
0.24,run,-0.6,2.88,-1.41,1.45,-12.31,0.0,0.0,0.0,0.123,-3.96,17.67,80.42,-5.19,12.13,84.55,-0.26,17.05,83.41,5.62,11.78,84.81,-3.78,16.88,80.33,-5.98,12.22,83.85,-7.59,20.57,84.22,-10.5,6.37,89.25,-7.41,20.75,87.66,10.59,6.73,89.69,-1.5,17.4,83.95,-10.68,7.08,89.34,-0.3232,0.6177,0.5878,-1.0,-1.0,1.0,-1.0,1.0,0.8511,1.0,-1.0,1.0,-0.9849,0.786,0.7095,-1.0,-1.0,1.0,0.013,0.058,0.006,0.013,0.026,0.006,0.019,0.123,0.006,0.026,0.013,0.019,0.0,0.026,0.013,0.013,0.013,0.013,-0.0522,-0.0276,-0.0031,-0.0675,-0.0675,0.0752,0.0123,-0.0383,0.0399,0.0736,-0.0721,0.0752,-0.0583,-0.0383,0.0,-0.0782,-0.0706,0.0583,-0.1141,-0.0452,0.0183,-0.1784,-0.1663,0.1758,0.0217,-0.0585,0.093,0.1839,-0.1772,0.1844,-0.1258,-0.0625,0.0304,-0.1902,-0.17,0.1354,-0.0412,-0.0019,0.0566,-0.0296,-0.1653,-1.0,1.0,0.8973,-1.0,-0.9608,1.0,-0.9667,0.2503,0.297,1.0,-1.0,1.0,0.1283,0.1403,1.0,-1.0,-1.0,1.0,0.0,0.0,0.0,0.0,0.0,0.0,0.0,0.0,0.0,0.0,0.0,0.0,0.0,0
0.28,run,-0.91,3.07,-7.98,3.98,-21.17,0.0,0.0,0.0,0.123,-5.45,18.11,81.65,-7.21,10.37,86.22,-1.58,17.93,84.73,7.29,10.2,86.4,-3.69,16.88,81.56,-7.73,10.72,85.52,-9.09,22.07,82.72,-12.0,4.87,90.75,-8.91,22.25,89.16,12.09,5.23,91.19,-3.0,15.9,82.45,-12.18,5.58,90.84,-1.0,1.0,0.1446,-1.0,-1.0,1.0,-1.0,1.0,1.0,1.0,-1.0,1.0,-0.6982,-0.3315,-1.0,-1.0,-1.0,1.0,0.013,0.058,0.006,0.013,0.026,0.006,0.019,0.123,0.006,0.026,0.013,0.019,0.0,0.026,0.013,0.013,0.013,0.013,-0.0675,-0.0245,0.0123,-0.0905,-0.0828,0.1012,-0.0061,-0.0383,0.0568,0.0966,-0.0951,0.0982,-0.066,-0.0353,0.0153,-0.1012,-0.0936,0.0874,-0.1373,-0.0201,0.0703,-0.2111,-0.1739,0.2208,-0.0538,-0.041,0.1283,0.215,-0.2103,0.2153,-0.1168,-0.0323,0.0788,-0.2194,-0.2053,0.204,-0.0455,0.0031,-0.0246,0.0253,-0.2149,-0.3232,0.6177,0.5878,-1.0,-1.0,1.0,-1.0,1.0,0.8511,1.0,-1.0,1.0,-0.9849,0.786,0.7095,-1.0,-1.0,1.0,0.0,0.0,0.0,0.0,0.0,0.0,0.0,0.0,0.0,0.0,0.0,0.0,0.0,0
0.32,run,-0.99,3.18,-3.27,2.26,-21.42,0.0,0.0,0.0,0.123,-6.68,18.54,82.53,-7.91,8.96,87.45,-2.9,18.63,85.87,8.61,8.96,87.8,-3.34,16.88,82.62,-8.96,9.76,86.84,-10.59,23.57,84.22,-13.5,3.37,92.25,-10.41,20.75,87.66,13.59,3.73,92.69,-4.5,14.4,83.95,-13.68,4.08,92.34,-1.0,1.0,0.5658,-1.0,0.445,1.0,-1.0,-0.8943,-0.6343,1.0,-1.0,1.0,-1.0,-1.0,1.0,-1.0,-1.0,1.0,0.013,0.058,0.006,0.013,0.026,0.006,0.019,0.123,0.006,0.026,0.013,0.019,0.0,0.026,0.013,0.013,0.013,0.013,-0.0936,-0.0169,0.0337,-0.1258,-0.1135,0.1304,-0.0291,-0.023,0.0798,0.1258,-0.1227,0.1258,-0.0644,-0.0353,0.0368,-0.1319,-0.1197,0.1166,-0.179,0.0103,0.1174,-0.2599,-0.2192,0.2471,-0.1107,0.0201,0.1629,0.243,-0.2349,0.2384,-0.0769,-0.0226,0.1234,-0.251,-0.2265,0.2354,-0.0723,0.0197,-0.1393,0.0695,-0.3694,-1.0,1.0,0.1446,-1.0,-1.0,1.0,-1.0,1.0,1.0,1.0,-1.0,1.0,-0.6982,-0.3315,-1.0,-1.0,-1.0,1.0,0.0,0.0,0.0,0.0,0.0,0.0,0.0,0.0,0.0,0.0,0.0,0.0,0.0,0
0.36,run,-1.21,3.36,-5.95,3.69,-25.22,0.0,0.0,0.0,0.13,-7.47,19.07,83.32,-9.58,7.65,88.86,-4.31,19.42,86.84,9.93,7.82,89.21,-2.99,16.26,83.32,-10.37,8.35,88.24,-9.09,22.07,82.72,-15.0,1.87,90.75,-11.91,19.25,86.16,15.09,2.23,94.19,-6.0,12.9,85.45,-15.18,2.58,93.84,1.0,0.2361,-0.2223,-1.0,-0.4015,-1.0,-1.0,-1.0,-0.2521,1.0,-1.0,1.0,-1.0,-0.2692,1.0,-1.0,-1.0,0.9743,0.0,0.13,0.006,0.0,0.026,0.006,0.033,0.117,0.0,0.013,0.019,0.013,0.0,0.006,0.006,0.013,0.013,0.019,-0.115,-0.0092,0.0491,-0.1381,-0.1381,0.1519,-0.0522,-0.0107,0.0997,0.1488,-0.1442,0.1503,-0.0583,-0.0353,0.0552,-0.1534,-0.1365,0.1396,-0.2051,0.0357,0.1392,-0.2275,-0.2447,0.2528,-0.163,0.0597,0.1882,0.2557,-0.2443,0.2581,-0.031,-0.0158,0.1548,-0.2555,-0.2213,0.2503,-0.0789,0.0291,-0.057,0.0394,-0.3738,-1.0,1.0,0.5658,-1.0,0.445,1.0,-1.0,-0.8943,-0.6343,1.0,-1.0,1.0,-1.0,-1.0,1.0,-1.0,-1.0,1.0,0.0,0.0,0.0,0.0,0.0,0.0,0.0,0.0,0.0,0.0,0.0,0.0,0.0,0
0.4,run,-1.67,3.23,-11.24,-3.42,-18.13,0.0,0.0,0.0,0.13,-8.88,19.86,83.23,-11.07,6.24,90.18,-5.71,20.13,87.63,11.43,6.5,90.62,-3.16,15.64,84.2,-11.78,6.86,89.56,-10.59,20.57,84.22,-16.5,0.37,89.25,-13.41,17.75,87.66,16.59,0.73,95.69,-7.5,11.4,86.95,-16.68,1.08,95.34,-1.0,0.1261,0.425,-1.0,0.043,-0.932,-1.0,0.7561,1.0,1.0,-1.0,1.0,-1.0,0.5764,1.0,-1.0,-1.0,1.0,0.0,0.13,0.006,0.0,0.026,0.006,0.033,0.117,0.0,0.013,0.019,0.013,0.0,0.006,0.006,0.013,0.013,0.019,-0.1289,0.0,0.0629,-0.1672,-0.1611,0.1764,-0.0767,0.0031,0.1166,0.1718,-0.1641,0.1749,-0.0522,-0.046,0.0675,-0.1779,-0.1611,0.1641,-0.1953,0.0595,0.1492,-0.2685,-0.2575,0.269,-0.2062,0.0935,0.195,0.2652,-0.2457,0.2727,0.0013,-0.0513,0.1544,-0.2709,-0.2469,0.2672,-0.0987,0.0448,-0.1038,0.0644,-0.4402,1.0,0.2361,-0.2223,-1.0,-0.4015,-1.0,-1.0,-1.0,-0.2521,1.0,-1.0,1.0,-1.0,-0.2692,1.0,-1.0,-1.0,0.9743,0.0,0.0,0.0,0.0,0.0,0.0,0.0,0.0,0.0,0.0,0.0,0.0,0.0,0
0.44,run,-2.06,3.13,-8.76,-3.57,-15.2,0.0,0.0,0.0,0.13,-9.76,20.48,83.67,-12.04,4.83,91.14,-7.12,20.39,88.24,12.83,5.01,92.02,-3.69,14.5,85.08,-13.1,5.54,90.97,-12.09,19.07,82.72,-18.0,1.87,88.52,-14.91,16.25,89.16,18.09,-0.77,97.19,-9.0,9.9,85.45,-18.18,-0.42,96.84,-1.0,-1.0,-0.3858,-1.0,1.0,0.2768,-1.0,0.1901,1.0,1.0,-1.0,1.0,-1.0,-1.0,-0.8801,-1.0,-1.0,0.8773,0.0,0.13,0.006,0.0,0.026,0.006,0.033,0.117,0.0,0.013,0.019,0.013,0.0,0.006,0.006,0.013,0.013,0.019,-0.1534,0.0138,0.0614,-0.1933,-0.1856,0.1994,-0.1012,0.0153,0.1304,0.1979,-0.1871,0.1994,-0.0552,-0.0568,0.0828,-0.2025,-0.1871,0.1871,-0.2288,0.0934,0.0987,-0.2858,-0.2723,0.2746,-0.2364,0.1115,0.1883,0.2835,-0.2583,0.283,-0.0106,-0.0762,0.1656,-0.2817,-0.2707,0.2734,-0.1388,0.0335,-0.1961,-0.0597,-0.3165,-1.0,0.1261,0.425,-1.0,0.043,-0.932,-1.0,0.7561,1.0,1.0,-1.0,1.0,-1.0,0.5764,1.0,-1.0,-1.0,1.0,0.0,0.0,0.0,0.0,0.0,0.0,0.0,0.0,0.0,0.0,0.0,0.0,0.0,0
0.48,run,-2.5,2.98,-10.16,-3.92,-13.84,0.0,0.0,0.0,0.13,-10.55,20.83,83.76,-13.89,3.52,91.76,-8.53,20.39,88.77,14.15,3.52,93.43,-4.57,13.1,85.96,-14.59,4.13,92.46,-13.59,17.57,81.22,-19.5,3.37,87.02,-16.41,14.75,87.66,19.59,-2.27,98.69,-10.5,8.4,86.95,-19.68,-1.92,95.34,-1.0,-0.6617,-0.2491,-1.0,1.0,-0.8177,-1.0,-1.0,-0.261,1.0,-1.0,1.0,-1.0,-0.9417,1.0,-1.0,-1.0,-0.2346,0.013,0.065,0.0,0.013,0.013,0.006,0.026,0.019,0.0,0.026,0.013,0.013,0.026,0.0,0.0,0.013,0.026,0.019,-0.1687,0.0245,0.069,-0.2102,-0.2102,0.2163,-0.1258,0.0199,0.1411,0.2224,-0.2132,0.224,-0.0644,-0.0767,0.0982,-0.2255,-0.2102,0.2117,-0.2177,0.1057,0.0978,-0.2633,-0.2827,0.2555,-0.2575,0.0953,0.1721,0.2905,-0.2786,0.2901,-0.0419,-0.1281,0.1734,-0.2835,-0.2757,0.2834,-0.1725,0.0248,-0.1529,-0.0623,-0.2654,-1.0,-1.0,-0.3858,-1.0,1.0,0.2768,-1.0,0.1901,1.0,1.0,-1.0,1.0,-1.0,-1.0,-0.8801,-1.0,-1.0,0.8773,0.0,0.0,0.0,0.0,0.0,0.0,0.0,0.0,0.0,0.0,0.0,0.0,0.0,0
0.52,run,-2.75,2.91,-5.27,-1.69,-20.98,0.0,0.0,0.0,0.13,-11.69,20.83,83.5,-14.94,2.37,92.11,-10.02,20.39,88.86,15.56,2.2,94.83,-5.62,11.69,86.57,-16.0,2.72,93.78,-15.09,16.07,79.72,-21.0,4.87,85.52,-17.91,13.25,89.16,21.09,-3.77,100.19,-12.0,6.9,88.45,-21.18,-3.42,93.84,-1.0,-1.0,-0.1008,-1.0,1.0,-1.0,-1.0,-0.9368,0.6284,1.0,-1.0,1.0,-1.0,-0.9086,1.0,-1.0,-1.0,-1.0,0.013,0.065,0.0,0.013,0.013,0.006,0.026,0.019,0.0,0.026,0.013,0.013,0.026,0.0,0.0,0.013,0.026,0.019,-0.1825,0.0307,0.0706,-0.2424,-0.2332,0.227,-0.1503,0.0199,0.1503,0.2454,-0.2393,0.2485,-0.0798,-0.1012,0.1135,-0.2516,-0.2347,0.2378,-0.2042,0.097,0.0742,-0.3052,-0.2842,0.2191,-0.2723,0.0667,0.155,0.2897,-0.2929,0.2952,-0.0869,-0.1818,0.179,-0.2963,-0.2851,0.2962,-0.2108,0.0117,-0.1773,-0.0684,-0.2415,-1.0,-0.6617,-0.2491,-1.0,1.0,-0.8177,-1.0,-1.0,-0.261,1.0,-1.0,1.0,-1.0,-0.9417,1.0,-1.0,-1.0,-0.2346,0.0,0.0,0.0,0.0,0.0,0.0,0.0,0.0,0.0,0.0,0.0,0.0,0.0,0
0.56,run,-2.83,2.62,-0.5,-5.38,-25.8,0.0,0.0,0.0,0.13,-13.01,20.83,82.71,-16.52,1.58,92.11,-11.51,19.42,88.86,17.05,0.7,96.33,-6.94,10.37,87.01,-17.4,1.32,94.92,-16.59,14.57,78.22,-22.5,6.37,84.02,-19.41,11.75,90.66,22.59,-5.27,101.69,-13.5,5.4,89.95,-19.68,-4.92,92.34,-1.0,-1.0,-0.3534,-1.0,1.0,-1.0,-1.0,-1.0,1.0,1.0,-0.7042,1.0,-1.0,-0.0539,1.0,-0.3143,-1.0,-1.0,0.013,0.065,0.0,0.013,0.013,0.006,0.026,0.019,0.0,0.026,0.013,0.013,0.026,0.0,0.0,0.013,0.026,0.019,-0.2025,0.0307,0.066,-0.2608,-0.2531,0.2332,-0.1764,0.0199,0.1519,0.27,-0.2623,0.273,-0.0982,-0.1258,0.1243,-0.2761,-0.2592,0.2608,-0.2181,0.0679,0.0346,-0.283,-0.2741,0.1765,-0.2889,0.0467,0.1143,0.2953,-0.2917,0.2991,-0.1302,-0.2197,0.1657,-0.2999,-0.2921,0.2941,-0.2331,0.0053,-0.0921,-0.0295,-0.3662,-1.0,-1.0,-0.1008,-1.0,1.0,-1.0,-1.0,-0.9368,0.6284,1.0,-1.0,1.0,-1.0,-0.9086,1.0,-1.0,-1.0,-1.0,0.0,0.0,0.0,0.0,0.0,0.0,0.0,0.0,0.0,0.0,0.0,0.0,0.0,0
0.6,run,-2.9,2.63,-1.25,1.47,-24.73,0.0,0.0,0.0,0.13,-14.15,20.3,81.74,-17.93,1.05,91.67,-12.92,18.46,88.95,18.46,-0.79,97.73,-8.35,8.88,87.89,-18.72,-0.09,95.8,-18.09,13.07,76.72,-24.0,7.87,82.52,-20.91,10.25,92.16,24.09,-6.77,103.19,-15.0,3.9,91.45,-18.18,-6.42,90.84,-1.0,-1.0,-0.2625,-1.0,1.0,-1.0,-1.0,0.488,1.0,1.0,0.1906,1.0,-1.0,0.1675,1.0,-0.3683,-1.0,-1.0,0.013,0.0,0.019,0.019,0.0,0.013,0.019,0.006,0.0,0.026,0.013,0.013,0.026,0.0,0.006,0.006,0.026,0.006,-0.2255,0.0307,0.0522,-0.2884,-0.2669,0.2332,-0.2025,0.0031,0.1519,0.2961,-0.2884,0.2991,-0.1212,-0.1488,0.1319,-0.3007,-0.2838,0.2807,-0.2385,0.0475,-0.0272,-0.3011,-0.2434,0.1236,-0.2995,-0.0302,0.08,0.3039,-0.3015,0.3066,-0.177,-0.2396,0.1446,-0.3014,-0.296,0.2802,-0.2398,-0.0201,-0.0088,-0.0939,-0.4503,-1.0,-1.0,-0.3534,-1.0,1.0,-1.0,-1.0,-1.0,1.0,1.0,-0.7042,1.0,-1.0,-0.0539,1.0,-0.3143,-1.0,-1.0,0.0,0.0,0.0,0.0,0.0,0.0,0.0,0.0,0.0,0.0,0.0,0.0,0.0,0
0.64,run,-2.89,2.72,0.0,0.07,-0.18,0.0,0.0,0.0,0.13,-19.78,11.43,75.67,-25.31,8.96,83.94,-22.15,8.61,93.69,25.4,-5.71,101.87,-16.17,2.11,92.99,-16.7,-7.38,89.47,-19.59,11.57,75.22,-25.5,9.37,84.02,-22.41,8.75,93.66,25.59,-5.27,101.69,-16.5,2.4,92.95,-16.68,-7.92,89.34,-1.0,-0.6589,0.067,-1.0,1.0,0.9131,-1.0,-0.6861,1.0,1.0,0.9096,0.2366,-1.0,-0.2789,1.0,0.4081,-1.0,-1.0,0.006,0.0,0.013,0.0,0.0,0.0,0.006,0.006,0.0,0.006,0.006,0.006,0.013,0.013,0.0,0.0,0.013,0.0,-0.2454,0.0215,0.0353,-0.3129,-0.2761,0.2255,-0.227,-0.0138,0.1534,0.3206,-0.3145,0.3237,-0.1457,-0.1749,0.1473,-0.3237,-0.3083,0.2961,-0.2416,-0.0012,-0.0823,-0.3027,-0.2048,0.0578,-0.3016,-0.0844,0.0617,0.3047,-0.3087,0.3066,-0.2158,-0.2654,0.1587,-0.2972,-0.2991,0.2536,-0.2459,-0.019,-0.0218,0.0257,-0.4316,-1.0,-1.0,-0.2625,-1.0,1.0,-1.0,-1.0,0.488,1.0,1.0,0.1906,1.0,-1.0,0.1675,1.0,-0.3683,-1.0,-1.0,0.0,0.0,0.0,0.0,0.0,0.0,0.0,0.0,0.0,0.0,0.0,0.0,0.0,0
0.68,run,-2.89,2.71,-0.06,-0.02,0.06,0.0,0.0,0.0,0.13,-19.78,11.43,75.67,-25.31,8.96,83.94,-22.15,8.61,93.69,25.4,-5.71,101.87,-16.17,2.11,92.99,-16.7,-7.38,89.47,-18.09,13.07,76.72,-27.0,7.87,85.52,-23.91,7.25,95.16,27.09,-3.77,100.19,-18.0,0.9,94.45,-15.18,-9.42,87.84,1.0,0.9801,1.0,-1.0,-0.6932,1.0,-1.0,-0.2848,1.0,1.0,1.0,-1.0,-1.0,-0.8843,1.0,-0.1295,-1.0,-1.0,0.006,0.0,0.013,0.0,0.0,0.0,0.006,0.006,0.0,0.006,0.006,0.006,0.013,0.013,0.0,0.0,0.013,0.0,-0.3436,-0.1335,-0.0706,-0.4418,-0.1381,0.0905,-0.3881,-0.1856,0.2362,0.4418,-0.4004,0.3958,-0.2823,-0.293,0.2362,-0.2884,-0.4357,0.1856,-0.2416,-0.0012,-0.0823,-0.3027,-0.2048,0.0578,-0.3016,-0.0844,0.0617,0.3047,-0.3087,0.3066,-0.2158,-0.2654,0.1587,-0.2972,-0.2991,0.2536,-0.2454,-0.0111,0.0,0.0011,-0.0032,-1.0,-0.6589,0.067,-1.0,1.0,0.9131,-1.0,-0.6861,1.0,1.0,0.9096,0.2366,-1.0,-0.2789,1.0,0.4081,-1.0,-1.0,0.0,0.0,0.0,0.0,0.0,0.0,0.0,0.0,0.0,0.0,0.0,0.0,0.0,0
0.72,run,-2.89,2.66,-0.11,-1.06,0.54,0.0,0.0,0.0,0.13,-19.78,11.43,75.67,-25.31,8.96,83.94,-22.15,8.35,93.69,25.4,-5.71,101.87,-16.17,2.02,92.99,-16.7,-7.38,89.38,-16.59,11.57,78.22,-28.5,6.37,87.02,-22.41,5.75,96.66,28.59,-2.27,98.69,-19.5,-0.6,92.95,-13.68,-10.92,86.34,1.0,-0.8457,1.0,-1.0,-1.0,1.0,1.0,0.3626,1.0,1.0,1.0,-1.0,-1.0,-0.1585,0.2507,1.0,-0.9788,-1.0,0.006,0.0,0.013,0.0,0.0,0.0,0.006,0.006,0.0,0.006,0.006,0.006,0.013,0.013,0.0,0.0,0.013,0.0,-0.3436,-0.1335,-0.0706,-0.4418,-0.1381,0.0905,-0.3881,-0.1856,0.2362,0.4418,-0.4004,0.3958,-0.2823,-0.293,0.2362,-0.2884,-0.4357,0.1856,-0.1691,-0.0008,-0.0576,-0.2119,-0.1434,0.0404,-0.2111,-0.0591,0.0432,0.2133,-0.2161,0.2146,-0.1511,-0.1858,0.1111,-0.208,-0.2094,0.1775,-0.245,-0.012,-0.0011,-0.0003,0.001,1.0,0.9801,1.0,-1.0,-0.6932,1.0,-1.0,-0.2848,1.0,1.0,1.0,-1.0,-1.0,-0.8843,1.0,-0.1295,-1.0,-1.0,0.0,0.0,0.0,0.0,0.0,0.0,0.0,0.0,0.0,0.0,0.0,0.0,0.0,0
0.76,run,-2.89,2.75,0.46,2.39,3.59,0.0,0.0,0.0,0.13,-19.34,11.43,75.76,-25.58,8.79,84.38,-22.41,8.09,94.04,25.84,-5.45,101.43,-16.52,1.49,93.08,-16.35,-7.82,89.03,-15.09,10.07,79.72,-30.0,4.87,85.52,-20.91,7.25,98.16,30.09,-0.77,97.19,-21.0,-2.1,91.45,-12.18,-9.42,84.84,0.9391,-0.895,1.0,-1.0,-1.0,-0.3734,1.0,0.6265,1.0,1.0,1.0,-0.5188,-1.0,-0.9957,-0.7009,1.0,1.0,-0.9767,0.019,0.0,0.0,0.013,0.006,0.0,0.0,0.006,0.0,0.013,0.026,0.026,0.039,0.0,0.019,0.006,0.019,0.013,-0.3436,-0.1335,-0.0706,-0.4418,-0.1381,0.0905,-0.3881,-0.1902,0.2362,0.4418,-0.4004,0.3958,-0.2823,-0.2945,0.2362,-0.2884,-0.4357,0.1841,-0.1184,-0.0006,-0.0403,-0.1483,-0.1004,0.0283,-0.1478,-0.0584,0.0303,0.1493,-0.1513,0.1502,-0.1057,-0.1358,0.0778,-0.1456,-0.1466,0.1186,-0.2452,-0.0164,-0.002,-0.0186,0.0094,1.0,-0.8457,1.0,-1.0,-1.0,1.0,1.0,0.3626,1.0,1.0,1.0,-1.0,-1.0,-0.1585,0.2507,1.0,-0.9788,-1.0,0.0,0.0,0.0,0.0,0.0,0.0,0.0,0.0,0.0,0.0,0.0,0.0,0.0,0
0.8,run,-2.62,2.97,7.11,3.42,-4.8,0.0,0.0,0.0,0.13,-18.46,11.07,76.38,-26.37,8.09,85.25,-22.41,7.21,94.92,26.81,-4.66,100.28,-17.49,0.62,92.72,-15.21,-8.44,88.24,-16.59,8.57,81.22,-31.5,3.37,87.02,-19.41,5.75,99.66,31.59,0.73,95.69,-22.5,-3.6,89.95,-10.68,-7.92,83.34,-1.0,-1.0,1.0,-1.0,-1.0,0.5347,1.0,-0.4812,1.0,1.0,1.0,-1.0,-1.0,-0.8864,-0.1398,1.0,1.0,-1.0,0.019,0.0,0.0,0.013,0.006,0.0,0.0,0.006,0.0,0.013,0.026,0.026,0.039,0.0,0.019,0.006,0.019,0.013,-0.3359,-0.1335,-0.069,-0.4464,-0.1411,0.0982,-0.3927,-0.1948,0.2424,0.4495,-0.3958,0.3881,-0.2884,-0.3037,0.2378,-0.2823,-0.4433,0.1779,-0.0542,-0.0004,-0.0225,-0.1211,-0.0817,0.0485,-0.1207,-0.0581,0.0442,0.1332,-0.0887,0.0764,-0.097,-0.1295,0.0602,-0.079,-0.1313,0.06,-0.2453,-0.0085,0.008,0.0418,0.0627,0.9391,-0.895,1.0,-1.0,-1.0,-0.3734,1.0,0.6265,1.0,1.0,1.0,-0.5188,-1.0,-0.9957,-0.7009,1.0,1.0,-0.9767,0.0,0.0,0.0,0.0,0.0,0.0,0.0,0.0,0.0,0.0,0.0,0.0,0.0,0
0.84,run,-2.6,3.16,1.39,5.78,-1.23,0.0,0.0,0.0,0.13,-17.49,10.46,77.43,-27.25,7.12,85.43,-22.15,7.12,95.8,27.77,-3.69,99.32,-18.54,-0.44,92.11,-14.06,-8.79,87.1,-18.09,7.07,82.72,-33.0,1.87,85.52,-17.91,4.25,101.16,30.09,-0.77,94.19,-24.0,-5.1,91.45,-9.18,-6.42,81.84,-1.0,-1.0,1.0,-1.0,-1.0,-0.1016,1.0,-1.0,1.0,0.0981,-0.3859,-1.0,-1.0,-1.0,1.0,1.0,1.0,-1.0,0.019,0.0,0.0,0.013,0.006,0.0,0.0,0.006,0.0,0.013,0.026,0.026,0.039,0.0,0.019,0.006,0.019,0.013,-0.3206,-0.1396,-0.0583,-0.4602,-0.1534,0.1135,-0.3927,-0.2102,0.2577,0.4663,-0.382,0.3682,-0.3053,-0.3191,0.2316,-0.2623,-0.4541,0.1641,0.0104,-0.0196,0.0181,-0.1282,-0.0958,0.0823,-0.0845,-0.089,0.0792,0.1464,-0.0186,-0.0093,-0.121,-0.1389,0.0228,0.0075,-0.1257,-0.0014,-0.2214,0.0111,0.124,0.0598,-0.0838,-1.0,-1.0,1.0,-1.0,-1.0,0.5347,1.0,-0.4812,1.0,1.0,1.0,-1.0,-1.0,-0.8864,-0.1398,1.0,1.0,-1.0,0.0,0.0,0.0,0.0,0.0,0.0,0.0,0.0,0.0,0.0,0.0,0.0,0.0,0
0.88,run,-2.46,3.5,4.19,12.05,17.23,0.0,0.0,0.0,0.13,-16.7,9.4,78.66,-28.56,5.98,85.69,-21.09,6.5,97.03,28.92,-2.81,98.17,-20.04,-1.49,91.14,-12.48,-8.79,85.69,-19.59,5.57,84.22,-34.5,0.37,84.02,-16.41,2.75,102.66,28.59,-2.27,95.69,-25.5,-6.6,92.95,-7.68,-4.92,80.34,-1.0,-1.0,1.0,-1.0,0.3395,-0.2965,1.0,-1.0,1.0,-0.6908,-1.0,1.0,-1.0,-1.0,1.0,1.0,1.0,-0.6162,0.019,0.0,0.0,0.026,0.013,0.006,0.013,0.006,0.006,0.006,0.052,0.065,0.019,0.026,0.006,0.006,0.006,0.006,-0.3037,-0.1503,-0.0399,-0.4755,-0.1703,0.1166,-0.3881,-0.2117,0.273,0.4832,-0.3651,0.3513,-0.3237,-0.3375,0.2209,-0.2424,-0.4602,0.1442,0.07,-0.0536,0.081,-0.1467,-0.1298,0.069,-0.042,-0.068,0.1124,0.1652,0.0497,-0.0692,-0.1531,-0.1656,-0.0239,0.0793,-0.1108,-0.0751,-0.2194,0.0278,0.0243,0.1008,-0.0215,-1.0,-1.0,1.0,-1.0,-1.0,-0.1016,1.0,-1.0,1.0,0.0981,-0.3859,-1.0,-1.0,-1.0,1.0,1.0,1.0,-1.0,0.0,0.0,0.0,0.0,0.0,0.0,0.0,0.0,0.0,0.0,0.0,0.0,0.0,0
0.92,run,-2.99,3.37,-11.89,-1.56,34.34,0.0,0.0,0.0,0.13,-16.08,8.17,80.07,-29.97,4.57,85.34,-19.86,5.45,98.44,29.88,-2.2,96.77,-21.71,-2.99,90.79,-11.6,-8.53,84.55,-21.09,4.07,85.72,-35.0,1.87,82.52,-14.91,1.25,104.16,27.09,-3.77,97.19,-27.0,-8.1,94.45,-6.18,-3.42,81.84,-1.0,-1.0,1.0,-1.0,1.0,-1.0,1.0,-1.0,1.0,-0.9986,-1.0,1.0,-1.0,-0.6464,1.0,1.0,1.0,1.0,0.019,0.0,0.0,0.026,0.013,0.006,0.013,0.006,0.006,0.006,0.052,0.065,0.019,0.026,0.006,0.006,0.006,0.006,-0.2899,-0.1687,-0.0184,-0.4985,-0.1902,0.1212,-0.3697,-0.2224,0.2945,0.5031,-0.3497,0.3313,-0.3497,-0.3559,0.204,-0.2148,-0.4602,0.1197,0.1008,-0.1066,0.1373,-0.189,-0.1656,0.0655,0.0396,-0.0879,0.1592,0.1904,0.0923,-0.1232,-0.205,-0.185,-0.08,0.1591,-0.0776,-0.1446,-0.208,0.057,0.0732,0.2103,0.3007,-1.0,-1.0,1.0,-1.0,0.3395,-0.2965,1.0,-1.0,1.0,-0.6908,-1.0,1.0,-1.0,-1.0,1.0,1.0,1.0,-0.6162,0.0,0.0,0.0,0.0,0.0,0.0,0.0,0.0,0.0,0.0,0.0,0.0,0.0,0
0.96,run,-2.83,3.75,4.64,7.77,33.45,0.0,0.0,0.0,0.13,-15.82,6.68,81.74,-31.64,3.6,84.81,-18.46,4.04,100.11,30.67,-1.76,95.45,-23.29,-4.66,90.79,-9.58,-7.73,83.06,-22.59,2.57,87.22,-35.0,3.37,84.02,-13.41,-0.25,105.66,25.59,-5.27,98.69,-28.5,-9.6,95.95,-7.68,-1.92,83.34,-1.0,-1.0,1.0,-1.0,1.0,1.0,1.0,-1.0,1.0,0.2052,-1.0,1.0,-1.0,-1.0,1.0,-1.0,1.0,1.0,0.019,0.0,0.0,0.026,0.013,0.006,0.013,0.006,0.006,0.006,0.052,0.065,0.019,0.026,0.006,0.006,0.006,0.006,-0.2792,-0.1902,0.0061,-0.5231,-0.2148,0.115,-0.3482,-0.2408,0.3191,0.52,-0.339,0.3068,-0.3789,-0.382,0.1979,-0.1994,-0.4556,0.0997,0.1108,-0.1551,0.1881,-0.2243,-0.208,0.0229,0.1083,-0.1305,0.2035,0.1966,0.1049,-0.1783,-0.2528,-0.2273,-0.079,0.1689,-0.037,-0.176,-0.2537,0.0459,-0.2076,-0.0272,0.5993,-1.0,-1.0,1.0,-1.0,1.0,-1.0,1.0,-1.0,1.0,-0.9986,-1.0,1.0,-1.0,-0.6464,1.0,1.0,1.0,1.0,0.0,0.0,0.0,0.0,0.0,0.0,0.0,0.0,0.0,0.0,0.0,0.0,0.0,0
1.0,run,-2.92,3.69,-3.05,-1.58,16.91,0.0,0.0,0.0,0.13,-16.08,5.45,82.88,-32.7,2.46,83.94,-17.31,2.81,101.34,31.11,-1.76,94.75,-24.61,-5.71,91.32,-8.61,-6.5,82.0,-24.09,1.07,88.72,-35.0,4.87,85.52,-11.91,-1.75,107.16,24.09,-6.77,100.19,-30.0,-11.1,97.45,-9.18,-3.42,84.84,-1.0,-1.0,1.0,-1.0,1.0,1.0,1.0,-1.0,1.0,-0.4121,-1.0,1.0,-1.0,-1.0,1.0,-1.0,-0.0781,1.0,0.013,0.0,0.006,0.006,0.013,0.006,0.026,0.0,0.006,0.013,0.039,0.013,0.019,0.013,0.006,0.013,0.006,0.006,-0.2746,-0.2163,0.0353,-0.5522,-0.2316,0.1058,-0.3237,-0.2654,0.3482,0.5338,-0.3313,0.2838,-0.4065,-0.4111,0.1979,-0.1641,-0.4418,0.0736,0.0929,-0.1953,0.2286,-0.254,-0.2017,-0.0146,0.1574,-0.173,0.2394,0.1835,0.0989,-0.2013,-0.2688,-0.256,-0.0553,0.2356,0.02,-0.2099,-0.2396,0.0791,0.081,0.1356,0.5839,-1.0,-1.0,1.0,-1.0,1.0,1.0,1.0,-1.0,1.0,0.2052,-1.0,1.0,-1.0,-1.0,1.0,-1.0,1.0,1.0,0.0,0.0,0.0,0.0,0.0,0.0,0.0,0.0,0.0,0.0,0.0,0.0,0.0,0
1.04,run,-2.54,3.87,7.23,3.4,-6.39,0.0,0.002,0.0,0.13,-17.14,3.87,84.55,-33.84,1.49,83.85,-15.73,1.05,103.1,30.5,-1.67,94.13,-26.28,-7.38,92.46,-7.38,-5.19,81.21,-25.59,-0.43,90.22,-35.0,6.37,87.02,-10.41,-3.25,108.66,22.59,-8.27,101.69,-31.5,-12.6,98.95,-10.68,-4.92,86.34,-1.0,-1.0,1.0,-1.0,1.0,1.0,1.0,-1.0,1.0,-0.7503,-1.0,1.0,-1.0,-1.0,1.0,-1.0,-0.193,1.0,0.013,0.0,0.006,0.006,0.013,0.006,0.026,0.0,0.006,0.013,0.039,0.013,0.019,0.013,0.006,0.013,0.006,0.006,-0.2792,-0.2378,0.0552,-0.5706,-0.2516,0.0905,-0.3037,-0.2869,0.3697,0.5415,-0.3313,0.2715,-0.4295,-0.4295,0.2071,-0.1473,-0.4203,0.0552,0.0451,-0.2296,0.2463,-0.2574,-0.2274,-0.0765,0.1964,-0.214,0.2604,0.1616,0.0692,-0.194,-0.2876,-0.2588,0.0011,0.2378,0.1069,-0.2265,-0.2474,0.0739,-0.0531,-0.0276,0.2952,-1.0,-1.0,1.0,-1.0,1.0,1.0,1.0,-1.0,1.0,-0.4121,-1.0,1.0,-1.0,-1.0,1.0,-1.0,-0.0781,1.0,0.0,0.0,0.0,0.0,0.0,0.0,0.0,0.0,0.0,0.0133,0.0,0.0133,0.0,0
1.08,run,-2.4,3.75,3.8,-2.58,-16.68,0.0,0.004,0.0,0.13,-18.02,2.55,85.96,-34.45,0.88,83.76,-14.5,-0.26,104.5,29.97,-1.93,94.39,-27.69,-8.79,93.52,-6.77,-4.39,80.33,-27.09,-1.93,91.72,-35.0,7.87,88.52,-8.91,-4.75,110.16,21.09,-9.77,103.19,-33.0,-14.1,100.45,-12.18,-3.42,87.84,-1.0,-0.7842,1.0,-1.0,1.0,1.0,1.0,-1.0,1.0,-1.0,-1.0,1.0,-1.0,-1.0,1.0,-1.0,0.5124,1.0,0.013,0.0,0.006,0.006,0.013,0.006,0.026,0.0,0.006,0.013,0.039,0.013,0.019,0.013,0.006,0.013,0.006,0.006,-0.2976,-0.2654,0.0844,-0.5906,-0.2684,0.089,-0.2761,-0.3175,0.4004,0.5308,-0.3298,0.2608,-0.4587,-0.4587,0.227,-0.1258,-0.3973,0.0414,-0.0261,-0.2473,0.2638,-0.2427,-0.2121,-0.0584,0.2241,-0.246,0.2785,0.0795,0.0533,-0.1695,-0.2927,-0.2725,0.0633,0.2338,0.1469,-0.2019,-0.2143,0.0893,0.1262,0.0594,-0.1116,-1.0,-1.0,1.0,-1.0,1.0,1.0,1.0,-1.0,1.0,-0.7503,-1.0,1.0,-1.0,-1.0,1.0,-1.0,-0.193,1.0,0.0,0.0,0.0,0.0,0.0,0.0,0.0,0.0,0.0,0.0267,0.0,0.0267,0.0,0
1.12,run,-2.21,3.67,3.44,-0.42,-15.39,0.0,0.006,0.0,0.13,-19.42,1.14,87.28,-34.72,0.62,84.11,-13.18,-1.58,105.91,29.0,-2.72,94.75,-29.09,-10.2,95.01,-6.5,-3.43,80.33,-28.59,-3.43,93.22,-35.0,9.37,90.02,-7.41,-6.25,111.66,19.59,-11.27,104.69,-34.5,-15.6,101.95,-13.68,-4.92,89.34,-1.0,-1.0,1.0,-1.0,1.0,1.0,1.0,-1.0,1.0,-1.0,-0.8813,1.0,-1.0,-1.0,1.0,-1.0,-0.1177,1.0,0.006,0.0,0.006,0.006,0.019,0.006,0.026,0.0,0.006,0.058,0.0,0.026,0.019,0.019,0.006,0.0,0.0,0.013,-0.3129,-0.2884,0.1089,-0.6013,-0.2792,0.0874,-0.2546,-0.3405,0.4249,0.5216,-0.3344,0.2654,-0.4832,-0.4832,0.2454,-0.115,-0.3835,0.0261,-0.0752,-0.2584,0.2757,-0.2097,-0.1883,-0.0466,0.2365,-0.2575,0.286,0.0215,0.0202,-0.1015,-0.2959,-0.2818,0.1126,0.2035,0.1541,-0.1982,-0.2021,0.0793,0.0664,-0.0451,-0.2911,-1.0,-0.7842,1.0,-1.0,1.0,1.0,1.0,-1.0,1.0,-1.0,-1.0,1.0,-1.0,-1.0,1.0,-1.0,0.5124,1.0,0.0,0.0,0.0,0.0,0.0,0.0,0.0,0.0,0.0,0.04,0.0,0.04,0.0,0
1.16,run,-2.31,3.44,-3.36,-5.82,-12.39,0.0,0.008,0.0,0.13,-20.92,-0.18,88.77,-34.8,0.18,85.34,-11.78,-2.99,107.31,27.77,-3.96,95.62,-30.5,-11.6,96.42,-6.59,-2.9,80.68,-30.09,-4.93,94.72,-35.0,10.88,91.52,-5.91,-7.75,113.16,18.09,-12.77,106.19,-35.0,-17.1,103.45,-15.18,-6.42,90.84,-1.0,-0.7708,1.0,-1.0,1.0,1.0,1.0,-1.0,1.0,-1.0,-0.5147,1.0,-1.0,-1.0,0.8316,-1.0,-0.7011,1.0,0.006,0.0,0.006,0.006,0.019,0.006,0.026,0.0,0.006,0.058,0.0,0.026,0.019,0.019,0.006,0.0,0.0,0.013,-0.3375,-0.3129,0.1319,-0.6059,-0.2838,0.0936,-0.2316,-0.3636,0.4495,0.5047,-0.3482,0.2715,-0.5077,-0.5077,0.2715,-0.1104,-0.3666,0.0261,-0.1455,-0.2738,0.28,-0.1642,-0.1492,-0.0094,0.2526,-0.2673,0.293,-0.0488,-0.0381,-0.0479,-0.3,-0.2901,0.1774,0.1599,0.1717,-0.1387,-0.186,0.072,0.0601,-0.0073,-0.2685,-1.0,-1.0,1.0,-1.0,1.0,1.0,1.0,-1.0,1.0,-1.0,-0.8813,1.0,-1.0,-1.0,1.0,-1.0,-0.1177,1.0,0.0,0.0,0.0,0.0,0.0,0.0,0.0,0.0,0.0,0.0533,0.0,0.0533,0.0,0
1.2,run,-2.37,3.26,-4.14,-3.4,-14.99,0.0,0.01,0.0,0.13,-22.32,-1.41,90.09,-34.89,1.14,86.48,-10.37,-4.39,108.72,26.46,-5.36,96.68,-31.9,-13.18,97.73,-7.21,-2.81,81.39,-31.59,-6.43,96.22,-35.0,12.38,93.02,-4.41,-9.25,114.66,16.59,-14.27,107.69,-35.0,-18.6,102.02,-16.68,-7.92,92.34,-1.0,-1.0,1.0,-1.0,1.0,1.0,1.0,-1.0,1.0,-1.0,0.0797,0.9788,-1.0,-1.0,0.4356,-1.0,-1.0,1.0,0.006,0.0,0.006,0.006,0.019,0.006,0.026,0.0,0.006,0.058,0.0,0.026,0.019,0.019,0.006,0.0,0.0,0.013,-0.3636,-0.3359,0.158,-0.6075,-0.2915,0.115,-0.2071,-0.3881,0.474,0.4832,-0.3697,0.2869,-0.5323,-0.5323,0.2961,-0.112,-0.3574,0.0322,-0.199,-0.2773,0.2931,-0.1207,-0.133,0.0734,0.2682,-0.2785,0.2965,-0.1141,-0.1066,0.0236,-0.3014,-0.2945,0.2156,0.1062,0.1544,-0.0743,-0.1945,0.0519,-0.0586,-0.1016,-0.2163,-1.0,-0.7708,1.0,-1.0,1.0,1.0,1.0,-1.0,1.0,-1.0,-0.5147,1.0,-1.0,-1.0,0.8316,-1.0,-0.7011,1.0,0.0,0.0,0.0,0.0,0.0,0.0,0.0,0.0,0.0,0.0667,0.0,0.0667,0.0,0
1.24,run,-2.39,2.99,-1.98,-5.85,-11.13,0.0,0.012,0.0,0.13,-23.73,-2.72,91.49,-34.89,1.93,87.8,-8.96,-5.8,110.13,25.05,-6.77,98.09,-33.05,-14.5,99.23,-8.17,-2.9,82.44,-33.09,-7.93,94.72,-33.5,13.88,94.52,-2.91,-10.75,116.16,15.09,-12.77,106.19,-35.0,-20.1,100.52,-18.18,-9.42,93.84,-1.0,-0.6568,0.1332,0.3038,1.0,1.0,1.0,-1.0,1.0,-1.0,0.2453,0.3255,-1.0,-1.0,0.2623,-1.0,-1.0,1.0,0.006,0.0,0.006,0.0,0.045,0.019,0.019,0.0,0.006,0.071,0.0,0.039,0.006,0.019,0.006,0.006,0.006,0.019,-0.3881,-0.3574,0.181,-0.609,-0.2746,0.135,-0.1825,-0.4126,0.4985,0.4602,-0.3942,0.3053,-0.5568,-0.5599,0.3191,-0.1227,-0.3559,0.0445,-0.2314,-0.2748,0.2916,-0.0902,-0.0298,0.1263,0.2799,-0.2871,0.2997,-0.1663,-0.1668,0.0856,-0.3031,-0.3098,0.2373,0.034,0.1139,-0.0059,-0.1995,0.0361,-0.0723,-0.0593,-0.2616,-1.0,-1.0,1.0,-1.0,1.0,1.0,1.0,-1.0,1.0,-1.0,0.0797,0.9788,-1.0,-1.0,0.4356,-1.0,-1.0,1.0,0.0,0.0,0.0,0.0,0.0,0.0,0.0,0.0,0.0,0.08,0.0,0.08,0.0,0
1.28,run,-2.77,2.74,-7.18,-4.59,-12.96,0.0,0.014,0.0,0.13,-25.4,-4.31,93.08,-34.8,3.16,89.38,-7.29,-7.47,111.71,23.47,-8.53,99.67,-34.19,-16.26,100.63,-9.32,-3.78,83.94,-34.59,-9.43,93.22,-32.0,12.38,93.02,-1.41,-12.25,117.66,13.59,-11.27,104.69,-35.0,-21.6,99.02,-19.68,-10.92,95.34,-1.0,-0.9241,-0.7201,1.0,-0.4075,0.2309,1.0,-1.0,1.0,-1.0,0.8279,-0.1042,-1.0,-1.0,-0.2556,-1.0,-1.0,1.0,0.006,0.0,0.006,0.0,0.045,0.019,0.019,0.0,0.006,0.071,0.0,0.039,0.006,0.019,0.006,0.006,0.006,0.019,-0.4126,-0.3804,0.2056,-0.609,-0.2608,0.158,-0.158,-0.4372,0.5231,0.4357,-0.4188,0.3298,-0.5768,-0.5829,0.3451,-0.1396,-0.3574,0.0629,-0.254,-0.2786,0.2961,-0.0632,0.0309,0.1747,0.288,-0.293,0.3018,-0.2084,-0.2088,0.152,-0.287,-0.3032,0.2639,-0.0395,0.074,0.0649,-0.2019,0.013,-0.0345,-0.1021,-0.1942,-1.0,-0.6568,0.1332,0.3038,1.0,1.0,1.0,-1.0,1.0,-1.0,0.2453,0.3255,-1.0,-1.0,0.2623,-1.0,-1.0,1.0,0.0,0.0,0.0,0.0,0.0,0.0,0.0,0.0,0.0,0.0933,0.0,0.0933,0.0,0
1.32,run,-3.13,2.46,-7.9,-4.92,-13.91,0.0,0.016,0.0,0.13,-26.81,-5.62,94.13,-34.45,4.31,90.62,-6.06,-8.88,113.12,22.06,-9.93,101.07,-34.72,-17.58,101.34,-10.72,-4.83,85.34,-35.0,-10.93,91.72,-30.5,10.88,94.52,0.09,-13.75,119.16,12.09,-9.77,103.19,-35.0,-23.1,97.52,-21.18,-12.42,96.84,-1.0,-1.0,-0.9911,1.0,-0.9108,1.0,1.0,-1.0,1.0,-1.0,0.6837,-0.7721,-1.0,-1.0,0.3208,-1.0,-1.0,1.0,0.006,0.0,0.006,0.0,0.045,0.019,0.019,0.0,0.006,0.071,0.0,0.039,0.006,0.019,0.006,0.006,0.006,0.019,-0.4418,-0.408,0.2332,-0.6075,-0.2393,0.1856,-0.1289,-0.4663,0.5507,0.408,-0.4495,0.3574,-0.5967,-0.6136,0.3697,-0.1595,-0.3728,0.089,-0.269,-0.2814,0.2937,-0.0394,0.0888,0.2086,0.2927,-0.2963,0.2976,-0.2323,-0.2421,0.1928,-0.2633,-0.3082,0.2615,-0.09,0.0038,0.127,-0.2345,-0.0097,-0.1254,-0.0801,-0.2262,-1.0,-0.9241,-0.7201,1.0,-0.4075,0.2309,1.0,-1.0,1.0,-1.0,0.8279,-0.1042,-1.0,-1.0,-0.2556,-1.0,-1.0,1.0,0.0,0.0,0.0,0.0,0.0,0.0,0.0,0.0,0.0,0.1067,0.0,0.1067,0.0,0
1.36,run,-3.58,2.34,-10.66,-2.23,-10.84,0.0,0.018,0.0,0.13,-28.21,-6.86,94.92,-33.66,5.54,91.76,-4.66,-10.28,114.43,20.65,-11.16,102.22,-34.98,-19.16,101.78,-12.3,-6.15,86.75,-35.0,-12.43,90.22,-29.0,9.37,96.02,1.59,-15.25,120.66,10.59,-11.27,101.69,-33.5,-24.6,99.02,-22.68,-13.92,98.34,-1.0,-1.0,-1.0,1.0,-1.0,1.0,1.0,-1.0,1.0,-1.0,0.249,-0.5853,-0.3433,-1.0,1.0,-1.0,-1.0,1.0,0.006,0.0,0.0,0.019,0.111,0.045,0.033,0.0,0.006,0.078,0.0,0.033,0.006,0.013,0.006,0.013,0.006,0.019,-0.4663,-0.431,0.2516,-0.6013,-0.2194,0.2071,-0.1074,-0.4909,0.5752,0.3835,-0.474,0.382,-0.6059,-0.6366,0.382,-0.1841,-0.3912,0.1135,-0.2796,-0.2826,0.274,-0.0048,0.1364,0.2259,0.2848,-0.2987,0.2997,-0.2539,-0.2608,0.2262,-0.2185,-0.3013,0.2287,-0.1543,-0.0658,0.1802,-0.2663,-0.0335,-0.1379,-0.0859,-0.2428,-1.0,-1.0,-0.9911,1.0,-0.9108,1.0,1.0,-1.0,1.0,-1.0,0.6837,-0.7721,-1.0,-1.0,0.3208,-1.0,-1.0,1.0,0.0,0.0,0.0,0.0,0.0,0.0,0.0,0.0,0.0,0.12,0.0,0.12,0.0,0
1.4,run,-4.04,2.07,-11.19,-5.56,-7.62,0.0,0.02,0.0,0.13,-29.71,-8.26,95.45,-32.78,6.5,92.99,-3.25,-11.6,115.84,19.34,-11.95,103.01,-34.98,-20.57,101.95,-13.62,-7.56,88.07,-35.0,-13.93,88.72,-27.5,7.87,97.52,3.09,-16.75,122.16,9.09,-12.77,100.19,-32.0,-26.1,100.52,-24.18,-15.42,99.84,-1.0,-0.9154,-1.0,1.0,-1.0,1.0,1.0,-0.5071,1.0,-1.0,-0.0604,-0.9855,1.0,-1.0,1.0,-1.0,-1.0,1.0,0.006,0.0,0.0,0.019,0.111,0.045,0.033,0.0,0.006,0.078,0.0,0.033,0.006,0.013,0.006,0.013,0.006,0.019,-0.4909,-0.4525,0.2654,-0.5875,-0.1979,0.227,-0.0828,-0.5154,0.5983,0.359,-0.4955,0.4019,-0.6105,-0.6642,0.3896,-0.2117,-0.4142,0.1381,-0.2877,-0.2783,0.2436,0.0484,0.1759,0.2329,0.2913,-0.3011,0.296,-0.2697,-0.263,0.2331,-0.1702,-0.3144,0.1888,-0.2115,-0.1323,0.2181,-0.3055,-0.0444,-0.1861,-0.039,-0.1893,-1.0,-1.0,-1.0,1.0,-1.0,1.0,1.0,-1.0,1.0,-1.0,0.249,-0.5853,-0.3433,-1.0,1.0,-1.0,-1.0,1.0,0.0,0.0,0.0,0.0,0.0,0.0,0.0,0.0,0.0,0.1333,0.0,0.1333,0.0,0
1.44,run,-4.49,2.04,-11.25,0.2,-8.59,0.0,0.022,0.0,0.13,-31.11,-9.58,95.45,-31.38,7.47,94.22,-1.85,-12.92,116.72,18.02,-12.83,103.62,-34.28,-21.88,101.43,-15.03,-8.96,89.47,-35.0,-15.43,87.22,-26.0,6.37,99.02,4.59,-15.25,123.66,7.59,-11.27,98.69,-30.5,-27.6,102.02,-25.68,-16.92,101.34,-1.0,-0.8926,-1.0,1.0,-1.0,1.0,1.0,0.6581,1.0,-1.0,0.4122,-1.0,1.0,-1.0,1.0,-1.0,-1.0,1.0,0.006,0.0,0.0,0.019,0.111,0.045,0.033,0.0,0.006,0.078,0.0,0.033,0.006,0.013,0.006,0.013,0.006,0.019,-0.517,-0.4771,0.2746,-0.5722,-0.181,0.2485,-0.0583,-0.5384,0.6228,0.3359,-0.5093,0.4157,-0.6105,-0.6888,0.3927,-0.2347,-0.4387,0.1611,-0.2992,-0.2869,0.205,0.0914,0.1864,0.2436,0.296,-0.297,0.2993,-0.2751,-0.2359,0.2149,-0.1191,-0.3121,0.1437,-0.2343,-0.1847,0.239,-0.3455,-0.0673,-0.1953,-0.0971,-0.1331,-1.0,-0.9154,-1.0,1.0,-1.0,1.0,1.0,-0.5071,1.0,-1.0,-0.0604,-0.9855,1.0,-1.0,1.0,-1.0,-1.0,1.0,0.0,0.0,0.0,0.0,0.0,0.0,0.0,0.0,0.0,0.1467,0.0,0.1467,0.0,0
1.48,run,-4.95,2.15,-12.12,3.9,-7.84,0.0,0.024,0.0,0.149,-32.43,-10.99,95.45,-30.15,8.09,95.54,-0.44,-14.24,118.3,16.7,-13.27,103.8,-33.4,-23.38,100.9,-16.52,-10.46,90.97,-35.0,-16.93,85.72,-24.5,4.87,100.52,6.09,-13.75,125.16,6.09,-12.77,97.19,-29.0,-29.1,103.52,-27.18,-18.42,102.84,-1.0,-0.4904,-1.0,1.0,-1.0,1.0,1.0,1.0,1.0,-1.0,-0.0087,-1.0,1.0,-1.0,1.0,-1.0,-1.0,1.0,0.006,0.013,0.019,0.026,0.136,0.045,0.026,0.0,0.006,0.149,0.013,0.026,0.013,0.006,0.006,0.019,0.006,0.019,-0.5415,-0.5001,0.2746,-0.5476,-0.1641,0.27,-0.0337,-0.5614,0.6381,0.3129,-0.5246,0.4264,-0.5983,-0.7118,0.3835,-0.2592,-0.4633,0.1856,-0.3014,-0.287,0.1435,0.1559,0.1937,0.2509,0.2991,-0.2941,0.2669,-0.2788,-0.2226,0.1907,-0.0374,-0.3047,0.0661,-0.256,-0.2212,0.2592,-0.3846,-0.0704,-0.1964,0.0035,-0.15,-1.0,-0.8926,-1.0,1.0,-1.0,1.0,1.0,0.6581,1.0,-1.0,0.4122,-1.0,1.0,-1.0,1.0,-1.0,-1.0,1.0,0.0,0.0,0.0,0.0,0.0,0.0,0.0,0.0,0.0,0.16,0.0,0.16,0.0,0
1.52,run,-5.65,2.39,-17.81,8.74,-11.4,0.0,0.026,0.0,0.149,-33.22,-12.39,94.75,-28.83,8.53,96.94,1.05,-15.29,119.79,15.29,-13.36,103.8,-32.34,-24.79,100.9,-17.93,-11.87,92.29,-35.0,-18.43,84.22,-23.0,3.37,102.02,7.59,-12.25,126.66,4.59,-14.27,95.69,-27.5,-30.6,105.02,-28.68,-19.92,104.34,-1.0,-0.0933,-1.0,1.0,-1.0,1.0,1.0,1.0,1.0,-1.0,-0.5782,-1.0,1.0,-1.0,1.0,-1.0,-1.0,1.0,0.006,0.013,0.019,0.026,0.136,0.045,0.026,0.0,0.006,0.149,0.013,0.026,0.013,0.006,0.006,0.019,0.006,0.019,-0.5645,-0.5246,0.2746,-0.5262,-0.1534,0.293,-0.0092,-0.5844,0.6657,0.2899,-0.5323,0.4295,-0.5829,-0.7378,0.3743,-0.2853,-0.4893,0.2117,-0.2973,-0.293,0.1005,0.1897,0.1759,0.262,0.3015,-0.2922,0.2905,-0.2815,-0.1846,0.145,0.0314,-0.3111,0.0117,-0.277,-0.2527,0.2793,-0.4249,-0.0608,-0.2116,0.068,-0.1369,-1.0,-0.4904,-1.0,1.0,-1.0,1.0,1.0,1.0,1.0,-1.0,-0.0087,-1.0,1.0,-1.0,1.0,-1.0,-1.0,1.0,0.0,0.0,0.0,0.0,0.0,0.0,0.0,0.0,0.0,0.1733,0.0,0.1733,0.0,0
1.56,run,-5.93,2.34,-7.56,-2.51,-4.28,0.0,0.028,0.0,0.149,-34.54,-13.54,93.78,-27.51,8.53,98.17,2.46,-16.08,121.11,13.8,-13.71,103.36,-31.03,-26.1,100.99,-19.34,-13.36,93.69,-35.0,-16.93,82.72,-21.5,1.87,103.52,9.09,-10.75,128.16,3.09,-15.77,94.19,-26.0,-32.1,106.52,-30.18,-21.42,105.84,-1.0,0.6337,-1.0,1.0,-0.7501,1.0,1.0,1.0,1.0,-1.0,-1.0,-1.0,1.0,-1.0,1.0,-1.0,-0.7345,1.0,0.006,0.013,0.019,0.026,0.136,0.045,0.026,0.0,0.006,0.149,0.013,0.026,0.013,0.006,0.006,0.019,0.006,0.019,-0.5783,-0.5492,0.2623,-0.5031,-0.1457,0.3175,0.0169,-0.6029,0.6918,0.2654,-0.5338,0.4295,-0.5645,-0.7624,0.3743,-0.3099,-0.5139,0.2347,-0.2599,-0.2972,0.0243,0.2191,0.1519,0.2755,0.3089,-0.2736,0.3012,-0.2891,-0.135,0.1015,0.091,-0.3099,0.0082,-0.286,-0.269,0.2818,-0.486,-0.0395,-0.3108,0.1525,-0.199,-1.0,-0.0933,-1.0,1.0,-1.0,1.0,1.0,1.0,1.0,-1.0,-0.5782,-1.0,1.0,-1.0,1.0,-1.0,-1.0,1.0,0.0,0.0,0.0,0.0,0.0,0.0,0.0,0.0,0.0,0.1867,0.0,0.1867,0.0,0
1.6,run,-6.54,3.83,-16.38,38.81,1.09,0.0,0.03,0.0,0.149,-34.37,-14.59,91.67,-26.1,8.53,99.67,3.96,-16.17,122.43,12.3,-14.06,102.48,-29.71,-27.6,102.13,-20.74,-14.85,95.1,-35.0,-15.43,81.22,-20.0,0.37,105.02,10.59,-9.25,129.66,1.59,-17.27,92.69,-24.5,-33.6,108.02,-31.68,-22.92,107.34,-1.0,0.4749,-1.0,1.0,-1.0,1.0,1.0,1.0,1.0,-1.0,-0.7629,-1.0,1.0,-1.0,1.0,-1.0,-0.9624,1.0,0.026,0.0,0.006,0.033,0.019,0.039,0.019,0.006,0.039,0.104,0.0,0.0,0.026,0.006,0.006,0.026,0.0,0.026,-0.6013,-0.5691,0.2454,-0.4801,-0.1457,0.339,0.0414,-0.6167,0.7148,0.2393,-0.54,0.4218,-0.5415,-0.7854,0.3758,-0.3344,-0.54,0.2592,-0.2683,-0.2829,-0.0463,0.2397,0.1063,0.2734,0.3083,-0.2433,0.2972,-0.3002,-0.1175,0.0423,0.15,-0.3033,0.0115,-0.2923,-0.2861,0.2894,-0.5101,-0.0441,-0.1319,-0.0438,-0.0747,-1.0,0.6337,-1.0,1.0,-0.7501,1.0,1.0,1.0,1.0,-1.0,-1.0,-1.0,1.0,-1.0,1.0,-1.0,-0.7345,1.0,0.0,0.0,0.0,0.0,0.0,0.0,0.0,0.0,0.0,0.2,0.0,0.2,0.0,0
1.64,run,-7.3,4.13,-18.76,10.13,-6.08,0.0,0.032,0.0,0.149,-34.98,-16.35,90.79,-24.7,8.44,100.99,5.36,-16.44,123.75,10.9,-15.03,101.43,-28.3,-29.44,103.01,-22.24,-16.44,96.42,-35.0,-13.93,79.72,-18.5,-1.13,106.52,12.09,-7.75,131.16,0.09,-18.77,91.19,-23.0,-35.1,109.52,-33.18,-23.58,108.84,-1.0,1.0,-1.0,1.0,0.1678,1.0,1.0,0.3998,1.0,-1.0,-1.0,-1.0,1.0,-1.0,1.0,-1.0,0.0259,1.0,0.026,0.0,0.006,0.033,0.019,0.039,0.019,0.006,0.039,0.104,0.0,0.0,0.026,0.006,0.006,0.026,0.0,0.026,-0.5983,-0.5875,0.2086,-0.4556,-0.1457,0.3651,0.0675,-0.6182,0.7378,0.2132,-0.5461,0.4065,-0.5185,-0.8115,0.3958,-0.359,-0.566,0.2838,-0.1763,-0.267,-0.1704,0.2598,0.0744,0.2892,0.3136,-0.1761,0.2943,-0.3079,-0.1053,-0.0279,0.1913,-0.31,0.0828,-0.2966,-0.2981,0.2946,-0.5634,0.0859,-0.2859,0.6774,0.0191,-1.0,0.4749,-1.0,1.0,-1.0,1.0,1.0,1.0,1.0,-1.0,-0.7629,-1.0,1.0,-1.0,1.0,-1.0,-0.9624,1.0,0.0,0.0,0.0,0.0,0.0,0.0,0.0,0.0,0.0,0.2133,0.0,0.2133,0.0,0
1.68,run,-7.6,4.25,-6.39,1.79,-0.49,0.0,0.034,0.0,0.149,-34.89,-17.23,89.82,-23.29,7.38,102.39,6.86,-15.91,125.07,9.4,-15.82,100.11,-27.07,-30.59,104.24,-23.64,-17.84,97.82,-35.0,-12.43,78.22,-17.0,-2.63,108.02,13.59,-6.25,132.66,-1.41,-20.27,89.69,-21.5,-36.6,111.02,-34.68,-25.08,110.34,-1.0,1.0,-1.0,1.0,-0.3998,1.0,1.0,1.0,1.0,-1.0,-1.0,-1.0,1.0,-1.0,1.0,-1.0,-0.6764,1.0,0.026,0.0,0.006,0.033,0.019,0.039,0.019,0.006,0.039,0.104,0.0,0.0,0.026,0.006,0.006,0.026,0.0,0.026,-0.609,-0.6182,0.1933,-0.431,-0.1473,0.3881,0.092,-0.6228,0.7609,0.1887,-0.563,0.3881,-0.4939,-0.8437,0.4111,-0.385,-0.5937,0.3068,-0.1636,-0.3019,-0.1768,0.2738,0.0464,0.2886,0.3115,-0.1405,0.2922,-0.3075,-0.1369,-0.0885,0.2259,-0.3377,0.1154,-0.3053,-0.3121,0.2924,-0.6301,0.1124,-0.3275,0.1767,-0.1061,-1.0,1.0,-1.0,1.0,0.1678,1.0,1.0,0.3998,1.0,-1.0,-1.0,-1.0,1.0,-1.0,1.0,-1.0,0.0259,1.0,0.0,0.0,0.0,0.0,0.0,0.0,0.0,0.0,0.0,0.2267,0.0,0.2267,0.0,0
1.72,run,-7.88,4.58,-7.55,8.63,4.83,0.0,0.036,0.0,0.149,-34.89,-16.7,87.98,-21.8,6.42,103.8,8.26,-15.38,126.47,7.91,-17.05,98.53,-25.58,-31.99,105.73,-25.05,-19.25,99.14,-35.0,-10.93,76.72,-15.5,-4.13,109.52,15.09,-4.75,134.16,-2.91,-21.77,88.19,-20.0,-38.1,112.52,-35.0,-26.58,111.84,-1.0,1.0,-1.0,1.0,-1.0,1.0,1.0,1.0,1.0,-0.6027,-1.0,-1.0,1.0,-1.0,1.0,-1.0,-0.868,1.0,0.0,0.013,0.006,0.026,0.0,0.078,0.019,0.045,0.039,0.052,0.0,0.0,0.026,0.0,0.026,0.019,0.0,0.039,-0.6075,-0.6335,0.1764,-0.4065,-0.1657,0.4126,0.1181,-0.6136,0.7839,0.1626,-0.5768,0.3651,-0.4725,-0.8636,0.4326,-0.4096,-0.6182,0.3313,-0.1088,-0.2688,-0.187,0.2837,-0.0366,0.2941,0.3158,-0.0638,0.2908,-0.3131,-0.1476,-0.1483,0.2386,-0.3112,0.1614,-0.3058,-0.3105,0.2967,-0.6563,0.1226,-0.1115,0.0312,-0.0085,-1.0,1.0,-1.0,1.0,-0.3998,1.0,1.0,1.0,1.0,-1.0,-1.0,-1.0,1.0,-1.0,1.0,-1.0,-0.6764,1.0,0.0,0.0,0.0,0.0,0.0,0.0,0.0,0.0,0.0,0.24,0.0,0.24,0.0,0
1.76,run,-8.37,5.15,-11.63,10.76,1.82,0.0,0.038,0.0,0.149,-34.89,-18.28,86.57,-20.21,5.01,105.29,9.76,-14.5,127.88,6.33,-18.28,97.12,-24.17,-33.49,107.14,-26.46,-20.83,100.63,-35.0,-9.43,75.22,-14.0,-5.63,111.02,16.59,-3.25,135.66,-1.41,-23.27,86.69,-18.5,-39.6,114.02,-35.0,-28.08,113.34,-1.0,1.0,-1.0,1.0,-0.5333,1.0,1.0,1.0,1.0,0.1522,-1.0,-1.0,1.0,-1.0,1.0,-1.0,-0.7819,1.0,0.0,0.013,0.006,0.026,0.0,0.078,0.019,0.045,0.039,0.052,0.0,0.0,0.026,0.0,0.026,0.019,0.0,0.039,-0.6075,-0.6243,0.1442,-0.3804,-0.1825,0.4372,0.1427,-0.6044,0.8084,0.1365,-0.5983,0.3375,-0.4464,-0.8882,0.4587,-0.4341,-0.6427,0.3543,-0.0762,-0.1536,-0.2518,0.2965,-0.0889,0.298,0.3132,-0.0101,0.2957,-0.317,-0.1839,-0.2074,0.2649,-0.3099,0.2108,-0.3062,-0.3095,0.2941,-0.6806,0.1515,-0.1318,0.1506,0.0844,-1.0,1.0,-1.0,1.0,-1.0,1.0,1.0,1.0,1.0,-0.6027,-1.0,-1.0,1.0,-1.0,1.0,-1.0,-0.868,1.0,0.0,0.0,0.0,0.0,0.0,0.0,0.0,0.0,0.0,0.2533,0.0,0.2533,0.0,0
1.8,run,-8.51,6.38,-3.22,28.68,-1.04,0.0,0.04,0.0,0.149,-34.89,-17.67,84.46,-18.81,3.6,106.7,11.07,-13.45,129.2,4.75,-19.42,95.71,-22.85,-34.98,108.54,-27.77,-22.41,102.04,-35.0,-7.93,73.72,-12.5,-7.13,112.52,18.09,-1.75,137.16,0.09,-24.77,85.19,-17.0,-41.1,115.52,-35.0,-29.58,114.84,-1.0,1.0,-1.0,1.0,0.121,1.0,1.0,0.5831,1.0,0.5326,-1.0,-1.0,1.0,-1.0,1.0,-1.0,-1.0,1.0,0.0,0.013,0.006,0.026,0.0,0.078,0.019,0.045,0.039,0.052,0.0,0.0,0.026,0.0,0.026,0.019,0.0,0.039,-0.6075,-0.6519,0.1197,-0.3528,-0.2071,0.4633,0.1687,-0.589,0.833,0.1089,-0.6197,0.3129,-0.4218,-0.9143,0.4832,-0.4587,-0.6703,0.3804,-0.0533,-0.2048,-0.2627,0.3048,-0.1487,0.3004,0.3111,0.0469,0.2934,-0.3192,-0.2044,-0.2316,0.2719,-0.3088,0.234,-0.3008,-0.3139,0.2977,-0.7235,0.2012,-0.2029,0.1878,0.0318,-1.0,1.0,-1.0,1.0,-0.5333,1.0,1.0,1.0,1.0,0.1522,-1.0,-1.0,1.0,-1.0,1.0,-1.0,-0.7819,1.0,0.0,0.0,0.0,0.0,0.0,0.0,0.0,0.0,0.0,0.2667,0.0,0.2667,0.0,0
1.84,run,-8.73,7.17,-4.85,18.4,11.08,0.0,0.042,0.0,0.221,-34.89,-17.05,83.41,-17.49,2.2,108.11,12.48,-12.3,130.52,3.16,-20.65,94.39,-21.62,-36.3,109.86,-29.18,-23.91,103.36,-35.0,-6.43,72.22,-11.0,-5.63,114.02,19.59,-3.25,138.66,1.59,-26.27,83.69,-15.5,-42.6,117.02,-35.0,-28.77,116.34,-1.0,1.0,-1.0,1.0,0.4318,1.0,1.0,-1.0,1.0,0.2084,-1.0,-0.1691,1.0,-1.0,1.0,-1.0,-0.0685,1.0,0.0,0.026,0.013,0.039,0.0,0.065,0.026,0.221,0.078,0.019,0.0,0.006,0.052,0.0,0.039,0.039,0.0,0.052,-0.6075,-0.6412,0.0828,-0.3283,-0.2316,0.4878,0.1917,-0.5706,0.856,0.0813,-0.6397,0.2884,-0.3988,-0.9403,0.5077,-0.4817,-0.698,0.405,-0.0373,-0.1034,-0.3208,0.3046,-0.1954,0.3016,0.3033,0.1013,0.291,-0.3261,-0.2172,-0.2534,0.2759,-0.3131,0.2551,-0.2961,-0.3224,0.2997,-0.7358,0.3086,-0.0562,0.5006,-0.0181,-1.0,1.0,-1.0,1.0,0.121,1.0,1.0,0.5831,1.0,0.5326,-1.0,-1.0,1.0,-1.0,1.0,-1.0,-1.0,1.0,0.0,0.0,0.0,0.0,0.0,0.0,0.0,0.0,0.0,0.28,0.0,0.28,0.0,0
1.88,run,-9.06,7.51,-7.45,5.53,23.56,0.0,0.044,0.0,0.221,-34.89,-16.17,82.0,-16.26,0.79,109.42,13.89,-11.16,131.84,1.85,-21.97,92.99,-20.13,-37.71,111.18,-30.32,-25.31,104.59,-35.0,-4.93,70.72,-9.5,-4.13,115.52,21.09,-4.75,137.16,3.09,-27.77,82.19,-14.0,-44.1,118.52,-35.0,-30.27,117.84,-1.0,1.0,-1.0,1.0,0.853,1.0,1.0,-1.0,0.4477,1.0,-1.0,-0.1514,1.0,-1.0,1.0,-1.0,-0.0983,1.0,0.0,0.026,0.013,0.039,0.0,0.065,0.026,0.221,0.078,0.019,0.0,0.006,0.052,0.0,0.039,0.039,0.0,0.052,-0.6075,-0.6305,0.0644,-0.3053,-0.2562,0.5123,0.2163,-0.5507,0.879,0.0537,-0.6611,0.2654,-0.3774,-0.9633,0.5308,-0.5062,-0.724,0.428,-0.0261,-0.0319,-0.294,0.3,-0.2293,0.3036,0.3048,0.1461,0.2904,-0.3323,-0.233,-0.2641,0.2741,-0.3059,0.2653,-0.2998,-0.324,0.2965,-0.7549,0.3778,-0.0847,0.3212,0.1934,-1.0,1.0,-1.0,1.0,0.4318,1.0,1.0,-1.0,1.0,0.2084,-1.0,-0.1691,1.0,-1.0,1.0,-1.0,-0.0685,1.0,0.0,0.0,0.0,0.0,0.0,0.0,0.0,0.0,0.0,0.2933,0.0,0.2933,0.0,0
1.92,run,-9.6,8.29,-13.98,16.47,20.54,0.0,0.046,0.0,0.221,-34.8,-15.12,80.6,-14.77,-0.53,110.74,15.21,-10.2,133.07,0.97,-22.76,91.93,-18.72,-39.29,112.41,-31.55,-26.72,105.73,-35.0,-3.43,69.22,-8.0,-2.63,117.02,22.59,-6.25,135.66,4.59,-29.27,83.69,-12.5,-45.6,120.02,-35.0,-31.77,119.34,-1.0,1.0,-1.0,0.9194,0.7425,1.0,1.0,-1.0,-0.8343,1.0,-1.0,0.5919,1.0,-1.0,0.7041,-1.0,-0.5527,1.0,0.0,0.026,0.013,0.039,0.0,0.065,0.026,0.221,0.078,0.019,0.0,0.006,0.052,0.0,0.039,0.039,0.0,0.052,-0.6075,-0.6151,0.0399,-0.2838,-0.2807,0.5354,0.2408,-0.5308,0.902,0.0307,-0.6842,0.2408,-0.3513,-0.9879,0.5538,-0.5262,-0.7486,0.4495,-0.0183,0.0352,-0.2978,0.2905,-0.2525,0.2988,0.3054,0.177,0.2896,-0.3189,-0.2494,-0.2769,0.2896,-0.3062,0.272,-0.2846,-0.3188,0.2881,-0.7835,0.407,-0.13,0.0965,0.4112,-1.0,1.0,-1.0,1.0,0.853,1.0,1.0,-1.0,0.4477,1.0,-1.0,-0.1514,1.0,-1.0,1.0,-1.0,-0.0983,1.0,0.0,0.0,0.0,0.0,0.0,0.0,0.0,0.0,0.0,0.3067,0.0,0.3067,0.0,0
1.96,run,-9.57,9.15,-0.28,19.36,4.88,0.0,0.048,0.0,0.364,-34.8,-13.97,79.19,-13.27,-1.67,112.24,16.52,-9.05,133.95,0.26,-24.43,90.26,-17.23,-40.61,113.73,-32.7,-28.12,107.05,-35.0,-1.93,67.72,-9.5,-1.13,118.52,24.09,-7.75,134.16,6.09,-30.77,85.19,-11.0,-47.1,121.52,-35.0,-33.27,120.84,-1.0,1.0,-1.0,-0.3556,1.0,1.0,1.0,-1.0,-1.0,1.0,-1.0,1.0,1.0,-1.0,0.7554,-1.0,-0.4297,1.0,0.013,0.058,0.0,0.019,0.0,0.071,0.039,0.364,0.117,0.0,0.006,0.0,0.033,0.0,0.111,0.058,0.0,0.117,-0.6059,-0.5967,0.0153,-0.2577,-0.3037,0.5584,0.2638,-0.5139,0.9235,0.0153,-0.698,0.2224,-0.3267,-1.0155,0.5752,-0.5476,-0.7731,0.4694,-0.0071,0.0933,-0.3,0.3007,-0.2626,0.295,0.2997,0.1869,0.2828,-0.2805,-0.2261,-0.2625,0.2943,-0.3174,0.2705,-0.2794,-0.3148,0.2761,-0.8307,0.475,-0.2439,0.2875,0.3586,-1.0,1.0,-1.0,0.9194,0.7425,1.0,1.0,-1.0,-0.8343,1.0,-1.0,0.5919,1.0,-1.0,0.7041,-1.0,-0.5527,1.0,0.0,0.0,0.0,0.0,0.0,0.0,0.0,0.0,0.0,0.32,0.0,0.32,0.0,0
2.0,run,-9.81,9.76,-5.0,12.52,-6.2,0.0,0.05,0.0,0.364,-34.8,-12.48,77.52,-11.6,-2.9,113.91,18.19,-7.91,134.47,0.18,-26.19,88.68,-15.47,-42.28,115.49,-33.75,-29.88,108.63,-34.38,-0.43,66.22,-11.0,-2.63,120.02,25.59,-9.25,132.66,7.59,-32.27,86.69,-9.5,-48.6,123.02,-35.0,-31.77,122.34,-0.9822,1.0,-0.7765,-1.0,0.3538,1.0,1.0,-1.0,-1.0,1.0,-1.0,1.0,1.0,-1.0,1.0,-1.0,0.1753,1.0,0.013,0.058,0.0,0.019,0.0,0.071,0.039,0.364,0.117,0.0,0.006,0.0,0.033,0.0,0.111,0.058,0.0,0.117,-0.6059,-0.5768,-0.0092,-0.2316,-0.3237,0.5844,0.2869,-0.4939,0.9388,0.0031,-0.7271,0.1933,-0.3007,-1.0385,0.5983,-0.5676,-0.7977,0.4924,-0.005,0.14,-0.302,0.3082,-0.2586,0.3042,0.296,0.2055,0.2555,-0.2423,-0.2675,-0.293,0.3037,-0.3084,0.2756,-0.2703,-0.3123,0.2795,-0.8278,0.5501,-0.0049,0.3378,0.0852,-1.0,1.0,-1.0,-0.3556,1.0,1.0,1.0,-1.0,-1.0,1.0,-1.0,1.0,1.0,-1.0,0.7554,-1.0,-0.4297,1.0,0.0,0.0,0.0,0.0,0.0,0.0,0.0,0.0,0.0,0.3333,0.0,0.3333,0.0,0
2.04,run,-10.27,9.84,-12.0,2.98,-0.76,0.0,0.05,0.0,0.364,-34.72,-11.16,75.94,-10.55,-3.6,115.31,19.51,-7.29,134.74,0.44,-27.51,87.36,-14.06,-43.77,116.89,-34.19,-31.29,110.04,-32.88,1.07,67.72,-12.5,-1.13,121.52,27.09,-10.75,131.16,9.09,-33.77,88.19,-8.0,-50.1,121.52,-35.0,-30.27,123.84,-0.2416,1.0,0.8638,-1.0,0.9672,1.0,1.0,-1.0,-1.0,1.0,-1.0,1.0,0.1267,-1.0,0.3186,-1.0,0.3411,1.0,0.013,0.058,0.0,0.019,0.0,0.071,0.039,0.364,0.117,0.0,0.006,0.0,0.033,0.0,0.111,0.058,0.0,0.117,-0.6059,-0.5507,-0.0383,-0.2025,-0.3451,0.6136,0.316,-0.474,0.948,0.0015,-0.7578,0.1657,-0.27,-1.0677,0.6289,-0.586,-0.8283,0.52,-0.0035,0.18,-0.303,0.3073,-0.2485,0.3045,0.2987,0.2065,0.2077,-0.1744,-0.2836,-0.2918,0.309,-0.3074,0.2893,-0.247,-0.315,0.2824,-0.8491,0.6032,-0.0873,0.2184,-0.1081,-0.9822,1.0,-0.7765,-1.0,0.3538,1.0,1.0,-1.0,-1.0,1.0,-1.0,1.0,1.0,-1.0,1.0,-1.0,0.1753,1.0,0.0,0.0,0.0,0.0,0.0,0.0,0.0,0.0,0.0,0.3333,0.0,0.3333,0.0,0
2.08,run,-10.35,9.85,-3.39,1.71,2.45,0.0,0.05,0.0,0.364,-34.45,-9.67,74.44,-9.76,-3.78,116.81,20.83,-6.94,134.82,1.41,-28.92,86.4,-12.66,-45.26,118.21,-34.28,-32.34,111.36,-31.38,2.57,69.22,-14.0,0.37,123.02,28.59,-12.25,129.66,10.59,-35.27,89.69,-9.5,-51.6,120.02,-35.0,-31.77,125.34,0.795,1.0,1.0,-1.0,1.0,0.9253,1.0,-1.0,-1.0,1.0,-1.0,1.0,-1.0,-0.8899,-0.8448,-1.0,-0.1403,1.0,0.006,0.058,0.0,0.006,0.0,0.078,0.045,0.234,0.111,0.0,0.019,0.006,0.026,0.0,0.065,0.033,0.0,0.117,-0.6044,-0.5277,-0.066,-0.1841,-0.3574,0.6381,0.339,-0.4633,0.9526,0.0061,-0.7808,0.1427,-0.2454,-1.0937,0.6535,-0.5937,-0.8529,0.5446,0.0032,0.2111,-0.3142,0.2832,-0.2193,0.3039,0.2942,0.1843,0.1624,-0.1051,-0.2836,-0.2894,0.3071,-0.3116,0.2933,-0.2013,-0.3113,0.2884,-0.8895,0.6105,-0.2094,0.052,-0.0133,-0.2416,1.0,0.8638,-1.0,0.9672,1.0,1.0,-1.0,-1.0,1.0,-1.0,1.0,0.1267,-1.0,0.3186,-1.0,0.3411,1.0,0.0,0.0,0.0,0.0,0.0,0.0,0.0,0.0,0.0,0.3333,0.0,0.3333,0.0,0
2.12,run,-10.59,9.69,-6.67,-2.62,0.8,0.0,0.05,0.0,0.364,-33.84,-8.26,73.04,-9.23,-3.96,118.12,22.32,-6.86,134.82,2.11,-30.32,85.69,-11.25,-46.67,119.27,-34.37,-33.05,112.76,-29.88,4.07,70.72,-15.5,1.49,121.52,30.09,-13.75,128.16,12.09,-36.77,91.19,-11.0,-50.1,118.52,-35.0,-33.27,123.84,1.0,1.0,1.0,-1.0,0.4816,0.5694,1.0,-1.0,-1.0,1.0,-1.0,1.0,-1.0,1.0,-0.8798,-1.0,-0.5181,0.6524,0.006,0.058,0.0,0.006,0.0,0.078,0.045,0.234,0.111,0.0,0.019,0.006,0.026,0.0,0.065,0.033,0.0,0.117,-0.5998,-0.5016,-0.092,-0.1703,-0.3605,0.6642,0.362,-0.4571,0.9541,0.023,-0.8053,0.1258,-0.2209,-1.1198,0.6765,-0.5952,-0.8713,0.5676,0.0195,0.2455,-0.3177,0.25,-0.165,0.3105,0.2922,0.152,0.1195,-0.0103,-0.2906,-0.2658,0.307,-0.3159,0.2916,-0.1467,-0.2869,0.2882,-0.8961,0.6115,-0.0591,0.0298,0.0427,0.795,1.0,1.0,-1.0,1.0,0.9253,1.0,-1.0,-1.0,1.0,-1.0,1.0,-1.0,-0.8899,-0.8448,-1.0,-0.1403,1.0,0.0,0.0,0.0,0.0,0.0,0.0,0.0,0.0,0.0,0.3333,0.0,0.3333,0.0,0
2.16,run,-10.98,9.35,-9.82,-6.43,0.25,0.0,0.05,0.0,0.364,-32.78,-6.86,71.72,-9.05,-3.96,119.53,23.73,-6.86,134.82,3.6,-31.82,85.34,-10.2,-48.08,120.15,-34.37,-33.66,114.08,-28.38,5.57,72.22,-17.0,-0.01,120.02,31.59,-15.25,126.66,13.59,-38.27,92.69,-12.5,-48.6,117.02,-35.0,-34.77,122.34,0.9459,1.0,1.0,-1.0,0.3136,0.6132,1.0,-1.0,-1.0,1.0,-1.0,1.0,-1.0,1.0,-1.0,-1.0,-1.0,-0.3402,0.006,0.058,0.0,0.006,0.0,0.078,0.045,0.234,0.111,0.0,0.019,0.006,0.026,0.0,0.065,0.033,0.0,0.117,-0.589,-0.4771,-0.1166,-0.1611,-0.3636,0.6872,0.3881,-0.4556,0.9541,0.0353,-0.8299,0.1135,-0.1963,-1.1443,0.6949,-0.5967,-0.8836,0.5921,0.0542,0.2644,-0.315,0.2097,-0.1271,0.3042,0.3029,0.1122,0.0836,0.0391,-0.296,-0.2324,0.3075,-0.3137,0.2735,-0.1084,-0.2471,0.2943,-0.9173,0.5973,-0.1164,-0.0458,0.014,1.0,1.0,1.0,-1.0,0.4816,0.5694,1.0,-1.0,-1.0,1.0,-1.0,1.0,-1.0,1.0,-0.8798,-1.0,-0.5181,0.6524,0.0,0.0,0.0,0.0,0.0,0.0,0.0,0.0,0.0,0.3333,0.0,0.3333,0.0,0
2.2,run,-11.11,9.01,-3.17,-6.29,0.77,0.0,0.05,0.0,0.364,-31.46,-5.36,70.66,-9.14,-3.78,120.59,25.14,-7.21,134.56,5.01,-33.13,85.25,-9.49,-49.13,120.76,-34.37,-34.1,115.4,-26.88,7.07,73.72,-18.5,-1.51,118.52,33.09,-16.75,125.16,15.09,-39.77,94.19,-14.0,-47.1,115.52,-35.0,-36.27,120.84,-0.4518,1.0,1.0,-1.0,0.1273,-0.9204,1.0,-1.0,-1.0,1.0,-1.0,1.0,-1.0,1.0,-1.0,-1.0,-1.0,-1.0,0.019,0.058,0.0,0.013,0.078,0.078,0.045,0.0,0.0,0.013,0.026,0.013,0.013,0.013,0.013,0.033,0.0,0.156,-0.5706,-0.4525,-0.1396,-0.158,-0.3636,0.7118,0.4126,-0.4556,0.9541,0.0614,-0.856,0.1074,-0.1779,-1.1689,0.7102,-0.5967,-0.8943,0.6151,0.1066,0.2767,-0.3063,0.1582,-0.089,0.3045,0.3036,0.0785,0.0585,0.1247,-0.3045,-0.1856,0.2839,-0.3112,0.2487,-0.0759,-0.2131,0.2919,-0.9515,0.5677,-0.1713,-0.1122,0.0044,0.9459,1.0,1.0,-1.0,0.3136,0.6132,1.0,-1.0,-1.0,1.0,-1.0,1.0,-1.0,1.0,-1.0,-1.0,-1.0,-0.3402,0.0,0.0,0.0,0.0,0.0,0.0,0.0,0.0,0.0,0.3333,0.0,0.3333,0.0,0
2.24,run,-11.21,8.36,-1.21,-14.9,5.54,0.0,0.05,0.0,0.364,-30.15,-4.04,69.87,-9.4,-3.16,121.29,26.54,-8.44,133.68,6.42,-34.63,85.61,-8.96,-49.75,120.85,-34.37,-34.89,116.81,-28.38,8.57,75.22,-20.0,-3.01,117.02,34.59,-18.25,123.66,16.59,-41.27,95.69,-15.5,-45.6,114.02,-35.0,-37.77,119.34,-1.0,1.0,1.0,-1.0,-0.3204,-1.0,1.0,-1.0,-1.0,1.0,-1.0,1.0,-1.0,1.0,-1.0,-1.0,-1.0,-1.0,0.019,0.058,0.0,0.013,0.078,0.078,0.045,0.0,0.0,0.013,0.026,0.013,0.013,0.013,0.013,0.033,0.0,0.156,-0.5476,-0.4264,-0.158,-0.1595,-0.3605,0.7302,0.4372,-0.4617,0.9495,0.0859,-0.879,0.1058,-0.1657,-1.1873,0.721,-0.5967,-0.902,0.6381,0.1614,0.292,-0.2838,0.105,-0.0507,0.2825,0.3051,0.0318,0.0236,0.1798,-0.2999,-0.1357,0.245,-0.2872,0.2146,-0.0531,-0.1781,0.2911,-0.9628,0.5376,-0.0553,-0.1097,0.0134,-0.4518,1.0,1.0,-1.0,0.1273,-0.9204,1.0,-1.0,-1.0,1.0,-1.0,1.0,-1.0,1.0,-1.0,-1.0,-1.0,-1.0,0.0,0.0,0.0,0.0,0.0,0.0,0.0,0.0,0.0,0.3333,0.0,0.3333,0.0,0
2.28,run,-11.63,7.89,-9.89,-11.71,5.61,0.0,0.05,0.0,0.364,-29.0,-2.46,69.35,-10.63,-2.72,121.82,27.95,-9.58,132.63,7.82,-36.04,86.66,-8.88,-50.19,120.59,-34.45,-35.6,117.95,-29.88,10.07,76.72,-21.5,-4.51,115.52,35.0,-16.75,122.16,18.09,-42.77,97.19,-17.0,-44.1,112.52,-35.0,-39.27,117.84,-1.0,1.0,1.0,-1.0,-0.786,-1.0,1.0,0.6438,-1.0,1.0,-1.0,1.0,-1.0,0.6476,-1.0,-1.0,-1.0,-1.0,0.019,0.058,0.0,0.013,0.078,0.078,0.045,0.0,0.0,0.013,0.026,0.013,0.013,0.013,0.013,0.033,0.0,0.156,-0.5246,-0.4034,-0.1718,-0.1641,-0.3497,0.7424,0.4617,-0.4832,0.9342,0.1104,-0.905,0.112,-0.1565,-1.198,0.7225,-0.5967,-0.9158,0.6627,0.1987,0.2902,-0.2502,0.0563,0.0045,0.2435,0.3051,-0.0578,-0.0407,0.2174,-0.3071,-0.0721,0.2058,-0.2411,0.1559,-0.0372,-0.1761,0.2952,-0.971,0.4811,-0.0212,-0.26,0.0968,-1.0,1.0,1.0,-1.0,-0.3204,-1.0,1.0,-1.0,-1.0,1.0,-1.0,1.0,-1.0,1.0,-1.0,-1.0,-1.0,-1.0,0.0,0.0,0.0,0.0,0.0,0.0,0.0,0.0,0.0,0.3333,0.0,0.3333,0.0,0
2.32,run,-11.81,7.4,-4.32,-10.97,3.12,0.0,0.05,0.0,0.364,-28.12,-1.14,69.26,-11.87,-2.37,121.9,29.44,-10.99,131.57,9.23,-37.44,87.71,-9.23,-50.45,119.97,-34.45,-36.74,118.83,-31.38,11.57,78.22,-23.0,-6.01,114.02,35.0,-15.25,120.66,19.59,-44.27,98.69,-18.5,-45.6,111.02,-33.81,-40.77,116.34,-1.0,1.0,1.0,-1.0,-0.378,-1.0,1.0,1.0,-1.0,1.0,-1.0,1.0,-1.0,-1.0,-1.0,-0.9661,-1.0,-1.0,0.013,0.065,0.013,0.026,0.052,0.019,0.045,0.0,0.026,0.013,0.019,0.013,0.026,0.019,0.006,0.013,0.0,0.065,-0.5047,-0.3758,-0.181,-0.1856,-0.3421,0.7517,0.4863,-0.5031,0.9158,0.135,-0.9296,0.1304,-0.1549,-1.2057,0.7179,-0.5983,-0.9281,0.6826,0.2139,0.3066,-0.2096,-0.0411,0.0319,0.205,0.3055,-0.1152,-0.0974,0.2441,-0.307,0.0185,0.1498,-0.1975,0.0919,-0.0318,-0.1693,0.2814,-1.0081,0.4404,-0.1727,-0.2043,0.0978,-1.0,1.0,1.0,-1.0,-0.786,-1.0,1.0,0.6438,-1.0,1.0,-1.0,1.0,-1.0,0.6476,-1.0,-1.0,-1.0,-1.0,0.0,0.0,0.0,0.0,0.0,0.0,0.0,0.0,0.0,0.3333,0.0,0.3333,0.0,0
2.36,run,-11.75,6.98,2.06,-13.02,2.4,0.0,0.05,0.0,0.364,-27.51,0.26,69.26,-13.18,-2.37,121.9,30.85,-12.39,130.61,10.72,-38.94,89.03,-10.02,-50.1,119.09,-34.45,-37.88,119.62,-32.88,13.07,79.72,-24.5,-7.51,112.52,35.0,-13.75,119.16,21.09,-45.77,100.19,-20.0,-47.1,109.52,-32.31,-42.27,114.84,-1.0,1.0,1.0,-1.0,-0.346,-1.0,1.0,1.0,-1.0,1.0,-1.0,1.0,-1.0,-1.0,-1.0,-0.1831,-1.0,-1.0,0.013,0.065,0.013,0.026,0.052,0.019,0.045,0.0,0.026,0.013,0.019,0.013,0.026,0.019,0.006,0.013,0.0,0.065,-0.4893,-0.3528,-0.1825,-0.2071,-0.3359,0.7532,0.5123,-0.5277,0.8974,0.1595,-0.9541,0.1488,-0.1611,-1.2103,0.7072,-0.5983,-0.948,0.698,0.2072,0.3009,-0.1525,-0.1092,0.0453,0.1492,0.3116,-0.1726,-0.1372,0.2629,-0.3069,0.0819,0.0819,-0.1555,0.0241,-0.0223,-0.1932,0.2545,-1.0233,0.3976,-0.0754,-0.1914,0.0544,-1.0,1.0,1.0,-1.0,-0.378,-1.0,1.0,1.0,-1.0,1.0,-1.0,1.0,-1.0,-1.0,-1.0,-0.9661,-1.0,-1.0,0.0,0.0,0.0,0.0,0.0,0.0,0.0,0.0,0.0,0.3333,0.0,0.3333,0.0,0
2.4,run,-11.83,6.79,-3.35,-5.55,2.01,0.0,0.05,0.0,0.364,-27.16,1.49,69.61,-14.5,-2.37,121.29,32.08,-13.54,129.02,12.04,-40.25,90.44,-10.99,-49.48,117.69,-34.19,-39.02,119.79,-34.38,14.57,81.22,-26.0,-9.01,111.02,35.0,-12.25,117.66,22.59,-47.27,101.69,-21.5,-48.6,108.02,-30.81,-43.77,113.34,-1.0,1.0,1.0,-1.0,-0.552,-1.0,1.0,1.0,-1.0,1.0,-1.0,1.0,-1.0,-1.0,-1.0,1.0,-1.0,-1.0,0.013,0.065,0.013,0.026,0.052,0.019,0.045,0.0,0.026,0.013,0.019,0.013,0.026,0.019,0.006,0.013,0.0,0.065,-0.4786,-0.3283,-0.1825,-0.2301,-0.3359,0.7532,0.5369,-0.5522,0.8805,0.1856,-0.9802,0.1718,-0.1749,-1.2042,0.6918,-0.5983,-0.9679,0.7118,0.1854,0.3028,-0.1067,-0.1629,0.0317,0.1045,0.3103,-0.213,-0.1594,0.2819,-0.3127,0.1438,0.0055,-0.0858,-0.0407,-0.0156,-0.2101,0.23,-1.0186,0.3609,0.036,-0.2272,0.0419,-1.0,1.0,1.0,-1.0,-0.346,-1.0,1.0,1.0,-1.0,1.0,-1.0,1.0,-1.0,-1.0,-1.0,-0.1831,-1.0,-1.0,0.0,0.0,0.0,0.0,0.0,0.0,0.0,0.0,0.0,0.3333,0.0,0.3333,0.0,0
2.44,run,-12.04,6.48,-6.21,-7.32,2.83,0.0,0.05,0.0,0.364,-27.33,2.81,70.49,-15.82,-2.72,120.23,33.05,-14.41,127.88,13.36,-41.48,91.85,-12.22,-48.87,116.46,-33.4,-40.25,119.79,-35.0,16.07,82.72,-27.5,-10.51,109.52,35.0,-10.75,116.16,24.09,-48.77,103.19,-23.0,-50.1,106.52,-29.31,-45.27,111.84,-1.0,1.0,1.0,-1.0,-0.0616,-1.0,1.0,1.0,-1.0,1.0,-1.0,1.0,-1.0,-1.0,-1.0,1.0,-1.0,-1.0,0.006,0.104,0.065,0.039,0.0,0.0,0.033,0.006,0.045,0.013,0.039,0.019,0.019,0.019,0.013,0.006,0.006,0.006,-0.4725,-0.3068,-0.1764,-0.2531,-0.3359,0.7424,0.5584,-0.5722,0.8529,0.2086,-1.0032,0.1963,-0.1917,-1.1934,0.6673,-0.5937,-0.9879,0.7148,0.1528,0.2925,-0.0517,-0.2003,0.0222,0.0329,0.2977,-0.2239,-0.2151,0.2836,-0.3052,0.1927,-0.0594,-0.0198,-0.1205,0.0064,-0.2219,0.1725,-1.0248,0.3439,-0.0585,-0.0968,0.0351,-1.0,1.0,1.0,-1.0,-0.552,-1.0,1.0,1.0,-1.0,1.0,-1.0,1.0,-1.0,-1.0,-1.0,1.0,-1.0,-1.0,0.0,0.0,0.0,0.0,0.0,0.0,0.0,0.0,0.0,0.3333,0.0,0.3333,0.0,0
2.48,run,-12.18,5.91,-3.72,-14.22,4.73,0.0,0.05,0.0,0.364,-27.6,4.13,71.63,-17.23,-3.69,119.0,33.66,-14.94,126.56,14.77,-42.8,93.34,-13.62,-48.43,114.79,-32.17,-40.96,119.62,-35.0,14.57,84.22,-29.0,-9.01,108.02,35.0,-9.25,114.66,25.59,-50.27,104.69,-24.5,-51.6,105.02,-27.81,-46.77,110.34,-1.0,0.4114,1.0,-1.0,0.3625,-1.0,1.0,1.0,-1.0,1.0,-1.0,1.0,-1.0,-1.0,-1.0,1.0,-1.0,-1.0,0.006,0.104,0.065,0.039,0.0,0.0,0.033,0.006,0.045,0.013,0.039,0.019,0.019,0.019,0.013,0.006,0.006,0.006,-0.4755,-0.2838,-0.1611,-0.2761,-0.3421,0.724,0.5752,-0.5875,0.833,0.2316,-1.0247,0.2209,-0.2132,-1.1827,0.6458,-0.5798,-1.0094,0.7148,0.0954,0.2909,0.0213,-0.2264,-0.0074,-0.046,0.2716,-0.2142,-0.2253,0.2848,-0.2941,0.2268,-0.1221,0.0264,-0.1649,0.0562,-0.2358,0.1207,-1.0438,0.3171,-0.1083,-0.1278,0.0493,-1.0,1.0,1.0,-1.0,-0.0616,-1.0,1.0,1.0,-1.0,1.0,-1.0,1.0,-1.0,-1.0,-1.0,1.0,-1.0,-1.0,0.0,0.0,0.0,0.0,0.0,0.0,0.0,0.0,0.0,0.3333,0.0,0.3333,0.0,0
2.52,run,-12.76,5.05,-13.93,-20.39,2.88,0.0,0.05,0.0,0.364,-28.92,5.54,73.12,-18.72,-4.83,117.69,34.01,-15.29,125.24,16.26,-44.12,94.66,-15.03,-48.34,113.47,-30.94,-42.71,118.92,-35.0,13.07,85.72,-30.5,-7.51,106.52,35.0,-7.75,113.16,27.09,-51.77,106.19,-26.0,-53.1,103.52,-26.31,-48.27,108.84,-1.0,-0.9995,1.0,-1.0,0.7271,-1.0,1.0,1.0,-1.0,1.0,-1.0,1.0,-1.0,-1.0,-1.0,1.0,-1.0,-1.0,0.006,0.104,0.065,0.039,0.0,0.0,0.033,0.006,0.045,0.013,0.039,0.019,0.019,0.019,0.013,0.006,0.006,0.006,-0.4801,-0.2608,-0.1411,-0.3007,-0.359,0.7026,0.586,-0.5967,0.8099,0.2562,-1.0477,0.247,-0.2378,-1.175,0.6167,-0.5584,-1.0216,0.7118,0.0495,0.29,0.0898,-0.2506,-0.0685,-0.1128,0.2304,-0.1845,-0.2441,0.2915,-0.2922,0.2567,-0.1776,0.0473,-0.2248,0.1199,-0.2111,0.073,-1.0562,0.2677,-0.065,-0.2481,0.0825,-1.0,0.4114,1.0,-1.0,0.3625,-1.0,1.0,1.0,-1.0,1.0,-1.0,1.0,-1.0,-1.0,-1.0,1.0,-1.0,-1.0,0.0,0.0,0.0,0.0,0.0,0.0,0.0,0.0,0.0,0.3333,0.0,0.3333,0.0,0
2.56,run,-13.13,4.61,-7.01,-5.05,10.51,0.0,0.05,0.0,0.364,-29.71,7.03,74.53,-20.39,-5.98,116.37,34.1,-15.29,123.93,17.67,-45.35,96.15,-16.52,-48.69,112.06,-29.53,-43.86,117.77,-35.0,11.57,87.22,-32.0,-6.01,105.02,35.0,-6.25,111.66,28.59,-53.27,107.69,-27.5,-54.6,102.02,-24.81,-49.77,107.34,-1.0,-1.0,1.0,-1.0,1.0,-1.0,1.0,1.0,-1.0,1.0,-1.0,1.0,-1.0,-1.0,-1.0,1.0,-1.0,-1.0,0.045,0.097,0.065,0.026,0.013,0.019,0.026,0.026,0.058,0.019,0.052,0.006,0.019,0.0,0.013,0.013,0.019,0.013,-0.5031,-0.2362,-0.115,-0.3267,-0.3789,0.6796,0.5921,-0.6029,0.7869,0.2823,-1.0707,0.27,-0.2623,-1.1735,0.5937,-0.5369,-1.0523,0.6995,-0.0516,0.295,0.1606,-0.2732,-0.1227,-0.1652,0.1843,-0.1521,-0.2571,0.3018,-0.2908,0.2659,-0.2163,0.0388,-0.2436,0.1645,-0.2628,0.0051,-1.1061,0.1923,-0.2431,-0.3558,0.0503,-1.0,-0.9995,1.0,-1.0,0.7271,-1.0,1.0,1.0,-1.0,1.0,-1.0,1.0,-1.0,-1.0,-1.0,1.0,-1.0,-1.0,0.0,0.0,0.0,0.0,0.0,0.0,0.0,0.0,0.0,0.3333,0.0,0.3333,0.0,0
2.6,run,-13.45,4.48,-7.11,-2.81,1.32,0.0,0.05,0.0,0.364,-31.2,8.26,76.2,-22.15,-6.59,114.7,34.19,-14.68,122.34,19.34,-46.93,97.82,-18.28,-49.48,110.39,-27.77,-45.53,116.19,-35.0,10.07,88.72,-33.5,-4.51,103.52,35.0,-4.75,110.16,30.09,-54.77,109.19,-29.0,-56.1,100.52,-23.31,-51.27,105.84,-1.0,-1.0,1.0,-1.0,1.0,-1.0,1.0,1.0,-1.0,1.0,-1.0,1.0,-1.0,-1.0,-1.0,1.0,-1.0,-1.0,0.045,0.097,0.065,0.026,0.013,0.019,0.026,0.026,0.058,0.019,0.052,0.006,0.019,0.0,0.013,0.013,0.019,0.013,-0.517,-0.2102,-0.0905,-0.3559,-0.3988,0.6565,0.5937,-0.6029,0.7639,0.3068,-1.0922,0.2961,-0.2884,-1.1796,0.5691,-0.5123,-1.0723,0.6796,-0.0876,0.3038,0.2039,-0.2999,-0.1603,-0.2014,0.1347,-0.1065,-0.2658,0.3028,-0.2837,0.2834,-0.2487,0.0043,-0.262,0.2066,-0.2583,-0.0708,-1.1385,0.1536,-0.1223,-0.0881,0.1834,-1.0,-1.0,1.0,-1.0,1.0,-1.0,1.0,1.0,-1.0,1.0,-1.0,1.0,-1.0,-1.0,-1.0,1.0,-1.0,-1.0,0.0,0.0,0.0,0.0,0.0,0.0,0.0,0.0,0.0,0.3333,0.0,0.3333,0.0,0
2.64,run,-13.89,4.42,-10.59,-2.48,0.51,0.0,0.05,0.0,0.364,-32.43,9.05,77.43,-23.73,-7.38,113.29,34.28,-14.06,120.85,20.74,-48.25,99.23,-19.69,-50.36,108.98,-26.54,-46.76,115.22,-35.0,8.57,90.22,-35.0,-3.01,102.02,35.0,-3.25,108.66,31.59,-56.27,110.69,-30.5,-57.6,99.02,-21.81,-52.77,104.34,-1.0,-1.0,1.0,-1.0,1.0,-1.0,1.0,1.0,-1.0,1.0,-0.8672,1.0,-1.0,-1.0,-1.0,1.0,-0.8827,-1.0,0.045,0.097,0.065,0.026,0.013,0.019,0.026,0.026,0.058,0.019,0.052,0.006,0.019,0.0,0.013,0.013,0.019,0.013,-0.543,-0.1887,-0.0614,-0.3866,-0.4096,0.6274,0.5952,-0.5921,0.7363,0.3359,-1.1198,0.3252,-0.3191,-1.1934,0.54,-0.4817,-1.1014,0.6519,-0.1432,0.2801,0.2343,-0.3063,-0.1459,-0.2326,0.0991,-0.0408,-0.2728,0.3035,-0.2853,0.2899,-0.2704,-0.0404,-0.275,0.241,-0.2724,-0.1363,-1.1665,0.1429,-0.124,-0.0491,0.0231,-1.0,-1.0,1.0,-1.0,1.0,-1.0,1.0,1.0,-1.0,1.0,-1.0,1.0,-1.0,-1.0,-1.0,1.0,-1.0,-1.0,0.0,0.0,0.0,0.0,0.0,0.0,0.0,0.0,0.0,0.3333,0.0,0.3333,0.0,0
2.68,run,-14.52,4.62,-17.4,3.94,-2.15,0.0,0.05,0.0,0.364,-33.31,9.67,78.75,-25.14,-8.0,111.97,34.28,-12.92,119.53,22.15,-49.66,100.63,-21.01,-51.77,107.49,-25.14,-48.08,113.64,-35.0,7.07,91.72,-35.0,-1.51,100.52,35.0,-1.75,107.16,33.09,-54.77,112.19,-32.0,-59.1,97.52,-20.31,-54.27,102.84,-1.0,-1.0,1.0,-1.0,1.0,-1.0,1.0,1.0,-1.0,1.0,-0.4625,1.0,-1.0,-1.0,-1.0,1.0,-0.6531,-1.0,0.033,0.182,0.071,0.006,0.006,0.019,0.013,0.052,0.065,0.013,0.078,0.006,0.019,0.019,0.013,0.013,0.045,0.013,-0.5645,-0.1749,-0.0399,-0.4142,-0.4234,0.6029,0.5967,-0.5814,0.7102,0.3605,-1.1428,0.3497,-0.3436,-1.2088,0.5154,-0.4602,-1.1229,0.6351,-0.1799,0.2473,0.2437,-0.3168,-0.1534,-0.2538,0.0751,0.0113,-0.2877,0.3035,-0.2851,0.294,-0.2803,-0.0852,-0.2835,0.2484,-0.2703,-0.158,-1.2054,0.1376,-0.1849,-0.0434,0.009,-1.0,-1.0,1.0,-1.0,1.0,-1.0,1.0,1.0,-1.0,1.0,-0.8672,1.0,-1.0,-1.0,-1.0,1.0,-0.8827,-1.0,0.0,0.0,0.0,0.0,0.0,0.0,0.0,0.0,0.0,0.3333,0.0,0.3333,0.0,0
2.72,run,-17.06,5.55,-17.69,6.72,6.9,0.0,0.05,0.0,0.364,-34.37,10.11,83.67,-30.23,-6.86,106.79,34.45,-7.65,114.35,27.33,-53.26,105.82,-26.1,-56.43,102.39,-20.39,-52.38,108.37,-35.0,5.57,93.22,-35.0,-0.01,99.02,35.0,-0.25,105.66,34.59,-53.27,113.69,-33.5,-60.6,96.02,-18.81,-52.77,101.34,-1.0,-1.0,1.0,-1.0,1.0,-1.0,1.0,1.0,-1.0,1.0,-0.1189,1.0,-1.0,-1.0,-1.0,1.0,0.0918,-1.0,0.026,0.0,0.117,0.019,0.006,0.013,0.013,0.026,0.065,0.013,0.039,0.013,0.026,0.058,0.019,0.006,0.026,0.013,-0.5798,-0.1641,-0.0169,-0.4387,-0.4341,0.5798,0.5967,-0.5614,0.6872,0.385,-1.1674,0.3743,-0.3666,-1.2333,0.4893,-0.4357,-1.1459,0.6075,-0.1837,0.2135,0.2572,-0.3142,-0.1478,-0.2643,0.0526,0.083,-0.288,0.3049,-0.292,0.2982,-0.2829,-0.152,-0.2967,0.2663,-0.2759,-0.2146,-1.2604,0.1545,-0.3038,0.0688,-0.0375,-1.0,-1.0,1.0,-1.0,1.0,-1.0,1.0,1.0,-1.0,1.0,-0.4625,1.0,-1.0,-1.0,-1.0,1.0,-0.6531,-1.0,0.0,0.0,0.0,0.0,0.0,0.0,0.0,0.0,0.0,0.3333,0.0,0.3333,0.0,0
2.76,run,-17.76,5.78,-23.0,9.19,8.92,0.0,0.05,0.0,0.364,-34.37,9.67,84.73,-31.46,-5.89,105.64,34.45,-6.5,113.2,28.39,-53.61,106.96,-27.25,-57.39,101.34,-19.78,-53.0,107.14,-35.0,4.07,94.72,-35.0,1.49,97.52,35.0,-1.75,104.16,35.0,-51.77,115.19,-35.0,-62.1,94.52,-17.31,-51.27,99.84,-1.0,-0.9149,1.0,-1.0,1.0,-1.0,1.0,-1.0,-0.3488,1.0,1.0,1.0,-1.0,-1.0,-1.0,1.0,1.0,-1.0,0.026,0.0,0.117,0.019,0.006,0.013,0.013,0.026,0.065,0.013,0.039,0.013,0.026,0.058,0.019,0.006,0.026,0.013,-0.5983,-0.1565,0.069,-0.5277,-0.4142,0.4893,0.5998,-0.4694,0.5967,0.4755,-1.2303,0.4648,-0.4556,-1.3146,0.4004,-0.3528,-1.221,0.5154,-0.1476,0.1574,0.2687,-0.3117,-0.0829,-0.2784,0.04,0.153,-0.295,0.3068,-0.2693,0.3021,-0.2898,-0.1903,-0.2995,0.2719,-0.2707,-0.2452,-1.4817,0.2356,-0.3088,0.1173,0.1205,-1.0,-1.0,1.0,-1.0,1.0,-1.0,1.0,1.0,-1.0,1.0,-0.1189,1.0,-1.0,-1.0,-1.0,1.0,0.0918,-1.0,0.0,0.0,0.0,0.0,0.0,0.0,0.0,0.0,0.0,0.3333,0.0,0.3333,0.0,0
2.8,run,-18.62,6.18,-22.08,10.72,12.83,0.0,0.05,0.0,0.364,-34.37,8.44,86.13,-32.7,-4.57,104.15,34.45,-5.01,111.71,29.79,-53.7,108.19,-28.65,-58.62,99.93,-19.07,-53.35,105.73,-35.0,2.57,96.22,-35.0,2.99,96.02,35.0,-3.25,102.66,35.0,-50.27,116.69,-35.0,-63.6,93.02,-15.81,-49.77,98.34,-1.0,0.3188,1.0,-1.0,1.0,-0.7336,1.0,-1.0,0.0274,1.0,1.0,1.0,-1.0,-1.0,-0.3325,1.0,1.0,-1.0,0.026,0.0,0.117,0.019,0.006,0.013,0.013,0.026,0.065,0.013,0.039,0.013,0.026,0.058,0.019,0.006,0.026,0.013,-0.5983,-0.1641,0.0874,-0.5492,-0.3973,0.4694,0.5998,-0.4495,0.5768,0.4939,-1.2364,0.4847,-0.4755,-1.3315,0.382,-0.3421,-1.2318,0.4939,-0.1033,0.074,0.2748,-0.3194,0.0215,-0.2889,0.028,0.2011,-0.3005,0.3015,-0.2174,0.3055,-0.2968,-0.2127,-0.2964,0.2409,-0.2401,-0.2728,-1.5425,0.2557,-0.4014,0.1605,0.1557,-1.0,-0.9149,1.0,-1.0,1.0,-1.0,1.0,-1.0,-0.3488,1.0,1.0,1.0,-1.0,-1.0,-1.0,1.0,1.0,-1.0,0.0,0.0,0.0,0.0,0.0,0.0,0.0,0.0,0.0,0.3333,0.0,0.3333,0.0,0
2.84,run,-19.36,6.55,-19.37,8.6,13.36,0.0,0.05,0.0,0.364,-34.37,7.29,87.63,-33.66,-3.08,102.74,34.45,-3.78,110.21,31.11,-53.79,109.51,-30.15,-60.03,98.53,-18.19,-53.35,104.33,-35.0,4.07,97.72,-35.0,4.49,94.52,35.0,-4.75,104.16,35.0,-48.77,118.19,-35.0,-65.1,91.52,-14.31,-48.27,96.84,-1.0,0.9608,1.0,-1.0,1.0,-0.7777,1.0,-1.0,0.7402,1.0,1.0,1.0,-1.0,-1.0,-0.3182,1.0,1.0,-1.0,0.033,0.0,0.143,0.006,0.006,0.013,0.006,0.013,0.052,0.026,0.006,0.026,0.019,0.039,0.019,0.013,0.006,0.013,-0.5983,-0.1856,0.112,-0.5706,-0.3743,0.4433,0.5998,-0.4234,0.5507,0.5185,-1.2379,0.5062,-0.5001,-1.353,0.3574,-0.3298,-1.2379,0.4694,-0.0723,-0.0281,0.2837,-0.3035,0.1006,-0.2992,0.0196,0.2378,-0.3073,0.3023,-0.1579,0.2937,-0.2991,-0.2288,-0.2987,0.2143,-0.1909,-0.2822,-1.6175,0.2907,-0.3854,0.1871,0.224,-1.0,0.3188,1.0,-1.0,1.0,-0.7336,1.0,-1.0,0.0274,1.0,1.0,1.0,-1.0,-1.0,-0.3325,1.0,1.0,-1.0,0.0,0.0,0.0,0.0,0.0,0.0,0.0,0.0,0.0,0.3333,0.0,0.3333,0.0,0
2.88,run,-20.18,6.92,-20.55,9.05,16.9,0.0,0.05,0.0,0.364,-34.37,5.98,89.12,-34.37,-1.76,101.34,34.45,-2.81,108.72,32.34,-53.44,110.83,-31.46,-61.52,97.12,-17.05,-53.26,102.92,-35.0,5.57,99.22,-35.0,5.99,93.02,35.0,-6.25,105.66,35.0,-47.27,119.69,-35.0,-66.6,90.02,-12.81,-46.77,95.34,-1.0,1.0,1.0,-1.0,1.0,-0.6591,1.0,-1.0,1.0,1.0,1.0,1.0,-1.0,-1.0,-0.0968,1.0,1.0,-1.0,0.033,0.0,0.143,0.006,0.006,0.013,0.006,0.013,0.052,0.026,0.006,0.026,0.019,0.039,0.019,0.013,0.006,0.013,-0.5983,-0.2056,0.1381,-0.5875,-0.3482,0.4188,0.5998,-0.4019,0.5246,0.5415,-1.2395,0.5292,-0.5262,-1.3775,0.3329,-0.3145,-1.2379,0.4449,-0.0506,-0.0941,0.2959,-0.2754,0.1678,-0.3011,0.0137,0.2466,-0.3125,0.2975,-0.1162,0.2915,-0.3067,-0.2518,-0.3008,0.2073,-0.1336,-0.2892,-1.682,0.3236,-0.3381,0.1501,0.2332,-1.0,0.9608,1.0,-1.0,1.0,-0.7777,1.0,-1.0,0.7402,1.0,1.0,1.0,-1.0,-1.0,-0.3182,1.0,1.0,-1.0,0.0,0.0,0.0,0.0,0.0,0.0,0.0,0.0,0.0,0.3333,0.0,0.3333,0.0,0
2.92,run,-20.74,7.25,-13.98,6.83,14.69,0.0,0.05,0.0,0.364,-34.37,5.1,90.62,-35.07,-0.26,99.84,34.45,-2.2,107.4,33.31,-52.91,112.15,-32.7,-62.93,95.71,-15.73,-52.65,101.51,-35.0,7.07,100.72,-35.0,7.49,91.52,35.0,-7.75,107.16,35.0,-45.77,121.19,-35.0,-68.1,88.52,-11.31,-45.27,93.84,-1.0,1.0,1.0,-1.0,1.0,0.1356,1.0,-1.0,1.0,1.0,0.6952,0.8737,-1.0,-1.0,0.0868,1.0,1.0,-1.0,0.033,0.0,0.143,0.006,0.006,0.013,0.006,0.013,0.052,0.026,0.006,0.026,0.019,0.039,0.019,0.013,0.006,0.013,-0.5983,-0.2286,0.1641,-0.5998,-0.3252,0.3942,0.5998,-0.385,0.4985,0.563,-1.2333,0.5522,-0.5492,-1.4036,0.3083,-0.2945,-1.2364,0.4203,-0.0354,-0.1521,0.3049,-0.2388,0.2037,-0.3027,0.0096,0.2359,-0.3165,0.2888,-0.0584,0.2903,-0.3009,-0.274,-0.3025,0.2198,-0.0878,-0.2944,-1.7541,0.3558,-0.3586,0.158,0.295,-1.0,1.0,1.0,-1.0,1.0,-0.6591,1.0,-1.0,1.0,1.0,1.0,1.0,-1.0,-1.0,-0.0968,1.0,1.0,-1.0,0.0,0.0,0.0,0.0,0.0,0.0,0.0,0.0,0.0,0.3333,0.0,0.3333,0.0,0
2.96,run,-21.16,7.51,-9.9,4.95,11.13,0.0,0.05,0.0,0.364,-34.28,4.31,92.02,-35.24,1.14,98.53,34.54,-1.93,106.44,34.01,-51.24,113.47,-33.66,-64.34,94.22,-14.41,-52.12,100.11,-35.0,8.57,102.22,-35.0,8.99,90.02,35.0,-9.25,108.66,35.0,-44.27,119.69,-35.0,-69.6,90.02,-9.81,-43.77,92.34,-1.0,1.0,1.0,-1.0,1.0,0.2764,1.0,-1.0,1.0,1.0,0.3581,0.399,-1.0,-1.0,0.6781,1.0,1.0,-1.0,0.039,0.0,0.104,0.0,0.006,0.013,0.006,0.006,0.026,0.019,0.019,0.071,0.013,0.026,0.019,0.013,0.052,0.013,-0.5983,-0.2439,0.1902,-0.6121,-0.2991,0.3682,0.5998,-0.3743,0.4755,0.5798,-1.2241,0.5752,-0.5706,-1.4281,0.2838,-0.2715,-1.2257,0.3958,-0.0248,-0.1639,0.3111,-0.2131,0.2402,-0.3096,0.0067,0.2053,-0.3077,0.2653,-0.0064,0.2894,-0.2911,-0.2837,-0.3037,0.24,-0.0212,-0.298,-1.8031,0.3843,-0.2441,0.1192,0.2564,-1.0,1.0,1.0,-1.0,1.0,0.1356,1.0,-1.0,1.0,1.0,0.6952,0.8737,-1.0,-1.0,0.0868,1.0,1.0,-1.0,0.0,0.0,0.0,0.0,0.0,0.0,0.0,0.0,0.0,0.3333,0.0,0.3333,0.0,0
3.0,run,-21.29,7.68,-2.26,3.26,5.89,0.0,0.05,0.0,0.364,-34.28,3.69,93.34,-35.24,2.46,97.03,34.54,-2.2,105.73,34.45,-49.92,114.96,-34.37,-65.83,92.81,-13.01,-50.98,98.61,-35.0,7.07,103.72,-35.0,10.49,91.52,35.0,-10.75,110.16,35.0,-42.77,118.19,-35.0,-71.1,91.52,-8.31,-42.27,90.84,-1.0,0.4734,0.6429,-1.0,1.0,0.4605,1.0,-1.0,1.0,1.0,-0.3126,-0.5636,-1.0,-1.0,1.0,1.0,1.0,-1.0,0.039,0.0,0.104,0.0,0.006,0.013,0.006,0.006,0.026,0.019,0.019,0.071,0.013,0.026,0.019,0.013,0.052,0.013,-0.5967,-0.2577,0.2148,-0.6151,-0.2746,0.3451,0.6013,-0.3697,0.4587,0.5921,-1.195,0.5983,-0.5875,-1.4527,0.2577,-0.2485,-1.2164,0.3712,-0.0116,-0.1666,0.31,-0.1607,0.2604,-0.3032,0.0105,0.161,-0.2788,0.2318,0.1051,0.289,-0.2672,-0.2908,-0.3106,0.2545,0.0197,-0.3009,-1.8398,0.4068,-0.1728,0.0864,0.1943,-1.0,1.0,1.0,-1.0,1.0,0.2764,1.0,-1.0,1.0,1.0,0.3581,0.399,-1.0,-1.0,0.6781,1.0,1.0,-1.0,0.0,0.0,0.0,0.0,0.0,0.0,0.0,0.0,0.0,0.3333,0.0,0.3333,0.0,0
3.04,run,-21.16,7.78,3.99,0.73,4.3,0.0,0.05,0.0,0.364,-34.28,3.52,94.75,-35.24,3.96,95.62,34.54,-2.81,105.29,34.63,-48.6,116.19,-34.8,-67.15,91.67,-11.69,-49.13,97.29,-35.0,5.57,102.22,-35.0,11.99,93.02,35.0,-12.25,111.66,35.0,-44.27,116.69,-35.0,-72.6,93.02,-6.81,-40.77,89.34,-1.0,-0.2449,-0.6811,-1.0,1.0,1.0,1.0,-1.0,1.0,1.0,-0.4851,-1.0,-1.0,-1.0,1.0,0.7487,1.0,-0.1116,0.039,0.0,0.104,0.0,0.006,0.013,0.006,0.006,0.026,0.019,0.019,0.071,0.013,0.026,0.019,0.013,0.052,0.013,-0.5967,-0.2684,0.2378,-0.6151,-0.2516,0.3191,0.6013,-0.3743,0.4464,0.5998,-1.172,0.6243,-0.5998,-1.4788,0.2332,-0.224,-1.1965,0.3451,-0.0081,-0.1571,0.3037,-0.1125,0.269,-0.3105,0.0073,0.0954,-0.2414,0.1912,0.1603,0.3006,-0.2333,-0.3019,-0.3099,0.2707,0.089,-0.3089,-1.8512,0.4223,-0.0394,0.0568,0.1028,-1.0,0.4734,0.6429,-1.0,1.0,0.4605,1.0,-1.0,1.0,1.0,-0.3126,-0.5636,-1.0,-1.0,1.0,1.0,1.0,-1.0,0.0,0.0,0.0,0.0,0.0,0.0,0.0,0.0,0.0,0.3333,0.0,0.3333,0.0,0
3.08,run,-20.85,7.85,7.15,1.35,-1.41,0.0,0.05,0.0,0.364,-34.28,3.43,96.06,-35.24,5.36,94.31,34.54,-3.78,105.21,34.72,-47.64,117.25,-34.89,-68.64,90.88,-10.28,-47.72,95.89,-35.0,4.07,100.72,-33.5,13.49,94.52,35.0,-13.75,113.16,35.0,-45.77,115.19,-35.0,-74.1,94.52,-8.31,-39.27,90.84,-1.0,-0.3677,-1.0,-0.7204,1.0,1.0,1.0,-1.0,1.0,1.0,-1.0,-1.0,-1.0,-1.0,1.0,-1.0,1.0,1.0,0.033,0.091,0.143,0.006,0.013,0.0,0.006,0.013,0.006,0.006,0.071,0.033,0.0,0.026,0.006,0.006,0.019,0.019,-0.5967,-0.2715,0.2623,-0.6151,-0.2255,0.2945,0.6013,-0.385,0.4387,0.6029,-1.149,0.6458,-0.6075,-1.5018,0.2132,-0.201,-1.1643,0.3221,-0.0057,-0.1214,0.3039,-0.0787,0.2854,-0.3087,0.0051,0.0268,-0.1975,0.1453,0.1978,0.2903,-0.1918,-0.2969,-0.2912,0.2751,0.1821,-0.3018,-1.8396,0.4306,0.0697,0.0127,0.0751,-1.0,-0.2449,-0.6811,-1.0,1.0,1.0,1.0,-1.0,1.0,1.0,-0.4851,-1.0,-1.0,-1.0,1.0,0.7487,1.0,-0.1116,0.0,0.0,0.0,0.0,0.0,0.0,0.0,0.0,0.0,0.3333,0.0,0.3333,0.0,0
3.12,run,-20.46,7.8,8.95,-1.61,-1.1,0.0,0.05,0.0,0.364,-34.28,3.43,97.38,-35.16,6.77,93.34,34.54,-4.92,105.29,34.8,-47.02,117.95,-34.8,-70.14,90.35,-8.96,-46.23,94.48,-35.0,2.57,99.22,-32.0,14.99,96.02,35.0,-15.25,114.66,35.0,-47.27,113.69,-35.0,-75.6,96.02,-9.81,-37.77,92.34,-1.0,0.0377,-1.0,0.8068,1.0,1.0,1.0,-1.0,1.0,1.0,-1.0,-1.0,-1.0,-1.0,1.0,-1.0,0.245,1.0,0.033,0.091,0.143,0.006,0.013,0.0,0.006,0.013,0.006,0.006,0.071,0.033,0.0,0.026,0.006,0.006,0.019,0.019,-0.5967,-0.273,0.2853,-0.6151,-0.201,0.2715,0.6013,-0.4019,0.4372,0.6044,-1.1321,0.6642,-0.609,-1.5278,0.1994,-0.1764,-1.1397,0.2976,-0.004,-0.0907,0.2993,-0.0551,0.292,-0.3026,0.0036,-0.0447,-0.144,0.1074,0.2019,0.2724,-0.1401,-0.3059,-0.2557,0.2848,0.2198,-0.3036,-1.8121,0.4363,0.1248,0.0235,-0.0246,-1.0,-0.3677,-1.0,-0.7204,1.0,1.0,1.0,-1.0,1.0,1.0,-1.0,-1.0,-1.0,-1.0,1.0,-1.0,1.0,1.0,0.0,0.0,0.0,0.0,0.0,0.0,0.0,0.0,0.0,0.3333,0.0,0.3333,0.0,0
3.16,run,-20.11,7.76,7.89,-0.86,-0.26,0.0,0.05,0.0,0.364,-34.28,3.43,98.35,-34.45,8.17,92.64,34.54,-6.33,105.73,34.8,-46.49,118.48,-34.8,-71.46,90.26,-8.0,-44.3,93.16,-35.0,1.07,97.72,-30.5,16.49,97.52,35.0,-16.75,116.16,35.0,-48.77,112.19,-35.0,-77.1,97.52,-11.31,-36.27,93.84,-1.0,-0.9084,-1.0,1.0,1.0,1.0,1.0,-1.0,1.0,1.0,-1.0,-1.0,-1.0,-1.0,1.0,-1.0,0.0423,1.0,0.033,0.091,0.143,0.006,0.013,0.0,0.006,0.013,0.006,0.006,0.071,0.033,0.0,0.026,0.006,0.006,0.019,0.019,-0.5967,-0.273,0.3083,-0.6136,-0.1764,0.2546,0.6013,-0.4218,0.4387,0.6059,-1.1213,0.6765,-0.6075,-1.5539,0.1902,-0.1534,-1.1137,0.273,-0.0028,-0.0635,0.2956,-0.0328,0.2962,-0.2749,0.0025,-0.1059,-0.0951,0.081,0.1815,0.2366,-0.0923,-0.3117,-0.2134,0.2855,0.2514,-0.3043,-1.7787,0.4326,0.1563,-0.028,-0.0191,-1.0,0.0377,-1.0,0.8068,1.0,1.0,1.0,-1.0,1.0,1.0,-1.0,-1.0,-1.0,-1.0,1.0,-1.0,0.245,1.0,0.0,0.0,0.0,0.0,0.0,0.0,0.0,0.0,0.0,0.3333,0.0,0.3333,0.0,0
3.2,run,-19.97,7.6,1.21,-4.54,0.48,0.0,0.05,0.0,0.364,-34.28,3.34,99.05,-33.75,9.23,92.2,34.54,-7.82,106.61,34.8,-46.05,118.65,-34.8,-72.95,90.53,-7.29,-43.33,92.29,-35.0,-0.43,96.22,-29.0,17.99,99.02,35.0,-18.25,117.66,35.0,-50.27,110.69,-35.0,-78.6,99.02,-12.81,-35.42,95.34,-1.0,-1.0,-1.0,1.0,1.0,1.0,1.0,-1.0,1.0,1.0,-1.0,-1.0,-1.0,-1.0,1.0,-1.0,-0.1894,1.0,0.033,0.013,0.13,0.019,0.026,0.0,0.006,0.013,0.006,0.006,0.078,0.006,0.006,0.026,0.013,0.0,0.013,0.006,-0.5967,-0.273,0.3252,-0.6013,-0.1519,0.2424,0.6013,-0.4464,0.4464,0.6059,-1.1121,0.6857,-0.6075,-1.5769,0.1887,-0.1365,-1.0799,0.25,-0.0019,-0.0445,0.2702,0.023,0.2994,-0.2385,0.0018,-0.1662,-0.0378,0.0567,0.1616,0.2002,-0.0646,-0.3045,-0.1552,0.2631,0.3025,-0.2993,-1.7481,0.4287,0.1376,-0.015,-0.0045,-1.0,-0.9084,-1.0,1.0,1.0,1.0,1.0,-1.0,1.0,1.0,-1.0,-1.0,-1.0,-1.0,1.0,-1.0,0.0423,1.0,0.0,0.0,0.0,0.0,0.0,0.0,0.0,0.0,0.0,0.3333,0.0,0.3333,0.0,0
3.24,run,-20.1,7.37,-4.54,-6.01,0.9,0.0,0.05,0.0,0.364,-34.28,3.25,99.58,-32.7,10.55,92.2,34.54,-9.23,107.75,34.8,-46.05,118.56,-34.8,-74.36,91.14,-7.03,-42.28,91.49,-35.0,-1.93,94.72,-27.5,19.49,100.52,35.0,-19.75,119.16,35.0,-51.77,109.19,-35.0,-80.0,100.52,-14.31,-36.92,96.84,-1.0,-1.0,-1.0,1.0,1.0,1.0,1.0,-1.0,1.0,1.0,-1.0,-1.0,-1.0,-1.0,1.0,-1.0,-0.4817,1.0,0.033,0.013,0.13,0.019,0.026,0.0,0.006,0.013,0.006,0.006,0.078,0.006,0.006,0.026,0.013,0.0,0.013,0.006,-0.5967,-0.2746,0.3375,-0.589,-0.1335,0.2347,0.6013,-0.4725,0.4617,0.6059,-1.1045,0.6888,-0.6075,-1.603,0.1933,-0.1243,-1.063,0.2347,-0.0014,-0.0369,0.2352,0.0622,0.2788,-0.1958,0.0012,-0.2143,0.0312,0.0397,0.1419,0.1516,-0.0452,-0.3111,-0.0913,0.2303,0.2752,-0.2672,-1.7356,0.4145,0.0212,-0.0792,0.0083,-1.0,-1.0,-1.0,1.0,1.0,1.0,1.0,-1.0,1.0,1.0,-1.0,-1.0,-1.0,-1.0,1.0,-1.0,-0.1894,1.0,0.0,0.0,0.0,0.0,0.0,0.0,0.0,0.0,0.0,0.3333,0.0,0.3333,0.0,0
3.28,run,-20.23,7.07,-2.31,-7.11,6.48,0.0,0.05,0.0,0.364,-34.28,2.2,99.76,-31.38,12.13,92.37,34.54,-10.63,108.63,34.8,-46.05,117.86,-34.8,-75.67,92.29,-7.03,-40.87,90.79,-35.0,-3.43,93.22,-26.0,20.99,102.02,35.0,-21.25,120.66,35.0,-53.27,107.69,-35.0,-80.0,102.02,-15.81,-38.42,98.34,-1.0,-1.0,-1.0,1.0,1.0,1.0,1.0,-1.0,1.0,1.0,-1.0,-1.0,-1.0,-1.0,1.0,-1.0,-0.8308,1.0,0.033,0.013,0.13,0.019,0.026,0.0,0.006,0.013,0.006,0.006,0.078,0.006,0.006,0.026,0.013,0.0,0.013,0.006,-0.5967,-0.2761,0.3467,-0.5706,-0.1104,0.2347,0.6013,-0.497,0.4817,0.6059,-1.1045,0.6872,-0.6075,-1.6276,0.204,-0.1197,-1.0446,0.2209,-0.001,-0.0316,0.1991,0.1124,0.2812,-0.137,0.0009,-0.2418,0.0964,0.0278,0.0993,0.1004,-0.0317,-0.3096,-0.0238,0.1784,0.2615,-0.2386,-1.7472,0.3946,-0.0793,-0.1049,0.0158,-1.0,-1.0,-1.0,1.0,1.0,1.0,1.0,-1.0,1.0,1.0,-1.0,-1.0,-1.0,-1.0,1.0,-1.0,-0.4817,1.0,0.0,0.0,0.0,0.0,0.0,0.0,0.0,0.0,0.0,0.3333,0.0,0.3333,0.0,0
3.32,run,-20.08,6.95,4.31,-4.02,5.49,0.0,0.05,0.0,0.364,-34.28,1.14,99.76,-29.79,13.45,93.43,34.54,-12.04,110.04,34.8,-46.05,116.98,-34.8,-77.08,93.52,-7.56,-39.55,90.7,-35.0,-4.93,91.72,-24.5,22.49,103.52,35.0,-22.75,122.16,35.0,-54.77,106.19,-33.5,-80.0,103.52,-17.31,-39.92,99.84,-1.0,-1.0,-1.0,1.0,1.0,1.0,1.0,-1.0,1.0,1.0,-0.8705,-1.0,-0.65,-1.0,1.0,-1.0,-1.0,1.0,0.039,0.0,0.013,0.006,0.039,0.019,0.006,0.013,0.006,0.013,0.0,0.006,0.0,0.019,0.0,0.006,0.013,0.013,-0.5967,-0.2945,0.3497,-0.5476,-0.0828,0.2378,0.6013,-0.5216,0.497,0.6059,-1.1045,0.675,-0.6075,-1.6506,0.224,-0.1197,-1.0201,0.2086,-0.0007,-0.0912,0.1509,0.1651,0.3006,-0.0844,0.0006,-0.2615,0.1251,0.0194,0.0695,0.0242,-0.0222,-0.3031,0.0583,0.1249,0.2752,-0.2132,-1.7579,0.3684,-0.0404,-0.1241,0.113,-1.0,-1.0,-1.0,1.0,1.0,1.0,1.0,-1.0,1.0,1.0,-1.0,-1.0,-1.0,-1.0,1.0,-1.0,-0.8308,1.0,0.0,0.0,0.0,0.0,0.0,0.0,0.0,0.0,0.0,0.3333,0.0,0.3333,0.0,0
3.36,run,-19.87,6.75,4.3,-6.51,2.73,0.0,0.05,0.0,0.364,-34.28,-0.18,99.84,-28.21,14.59,94.39,34.54,-13.45,111.62,34.8,-46.58,115.75,-34.8,-78.22,95.01,-8.53,-38.58,91.32,-35.0,-6.43,90.22,-23.0,23.99,105.02,35.0,-24.25,123.66,35.0,-56.27,104.69,-32.0,-80.0,105.02,-18.81,-41.42,101.34,-1.0,-1.0,-1.0,1.0,1.0,1.0,1.0,-1.0,1.0,1.0,-0.9538,-1.0,0.2435,-1.0,1.0,-1.0,-1.0,1.0,0.039,0.0,0.013,0.006,0.039,0.019,0.006,0.013,0.006,0.013,0.0,0.006,0.0,0.019,0.0,0.006,0.013,0.013,-0.5967,-0.3129,0.3497,-0.52,-0.0598,0.2562,0.6013,-0.5461,0.5216,0.6059,-1.1045,0.6596,-0.6075,-1.6751,0.2454,-0.1289,-0.9971,0.2071,-0.0005,-0.1329,0.1056,0.2191,0.2966,0.0099,0.0004,-0.275,0.1795,0.0136,0.0487,-0.0406,-0.0155,-0.3042,0.1213,0.0529,0.2789,-0.155,-1.7454,0.3578,0.0752,-0.0701,0.0958,-1.0,-1.0,-1.0,1.0,1.0,1.0,1.0,-1.0,1.0,1.0,-0.8705,-1.0,-0.65,-1.0,1.0,-1.0,-1.0,1.0,0.0,0.0,0.0,0.0,0.0,0.0,0.0,0.0,0.0,0.3333,0.0,0.3333,0.0,0
3.4,run,-19.66,6.59,4.19,-4.42,1.74,0.0,0.05,0.0,0.364,-34.28,-1.41,99.14,-27.16,15.82,95.71,34.54,-14.85,113.03,34.8,-47.55,114.61,-34.28,-79.01,96.33,-9.49,-37.97,92.11,-35.0,-7.93,88.72,-21.5,25.49,106.52,35.0,-25.75,125.16,35.0,-57.77,103.19,-30.5,-80.0,106.52,-20.31,-42.92,102.84,-1.0,-1.0,-1.0,1.0,1.0,1.0,1.0,-1.0,1.0,1.0,-0.6783,-1.0,1.0,-1.0,1.0,-1.0,-1.0,1.0,0.039,0.0,0.013,0.006,0.039,0.019,0.006,0.013,0.006,0.013,0.0,0.006,0.0,0.019,0.0,0.006,0.013,0.013,-0.5967,-0.3359,0.3513,-0.4924,-0.0399,0.273,0.6013,-0.5706,0.5492,0.6059,-1.1137,0.6381,-0.6075,-1.695,0.2715,-0.1457,-0.9802,0.2178,-0.0003,-0.1795,0.0797,0.2572,0.2826,0.0704,0.0003,-0.2848,0.2295,0.0095,-0.0005,-0.1091,-0.0109,-0.2879,0.1829,-0.0264,0.2587,-0.0681,-1.7268,0.3407,0.075,-0.1136,0.0476,-1.0,-1.0,-1.0,1.0,1.0,1.0,1.0,-1.0,1.0,1.0,-0.9538,-1.0,0.2435,-1.0,1.0,-1.0,-1.0,1.0,0.0,0.0,0.0,0.0,0.0,0.0,0.0,0.0,0.0,0.3333,0.0,0.3333,0.0,0
3.44,run,-19.51,6.52,3.14,-2.35,-1.2,0.0,0.05,0.0,0.364,-34.28,-2.64,98.0,-25.75,17.14,96.94,34.54,-16.26,114.43,34.8,-48.34,112.94,-33.31,-79.54,97.82,-10.81,-37.71,93.16,-35.0,-9.43,87.22,-20.0,26.99,108.02,35.0,-27.25,126.66,35.0,-56.27,101.69,-29.0,-80.0,108.02,-21.81,-44.42,104.34,-1.0,-1.0,-1.0,1.0,1.0,1.0,1.0,-1.0,1.0,1.0,-0.5221,-1.0,1.0,-1.0,1.0,-1.0,-1.0,1.0,0.039,0.0,0.0,0.013,0.071,0.065,0.006,0.013,0.026,0.006,0.019,0.006,0.013,0.006,0.0,0.026,0.006,0.033,-0.5967,-0.3574,0.339,-0.474,-0.0184,0.2961,0.6013,-0.5952,0.5737,0.6059,-1.1305,0.6182,-0.5983,-1.7089,0.2945,-0.1626,-0.9695,0.2316,-0.0002,-0.2061,0.0098,0.2489,0.2782,0.1354,0.0002,-0.2913,0.2526,0.0067,-0.0636,-0.1511,0.0269,-0.2532,0.2142,-0.0817,0.2213,0.004,-1.7086,0.327,0.0732,-0.0772,0.0303,-1.0,-1.0,-1.0,1.0,1.0,1.0,1.0,-1.0,1.0,1.0,-0.6783,-1.0,1.0,-1.0,1.0,-1.0,-1.0,1.0,0.0,0.0,0.0,0.0,0.0,0.0,0.0,0.0,0.0,0.3333,0.0,0.3333,0.0,0
3.48,run,-19.37,6.43,2.89,-2.45,-0.93,0.0,0.05,0.0,0.364,-34.28,-4.13,96.5,-24.17,18.54,98.35,34.54,-17.93,116.02,34.8,-50.19,111.36,-32.08,-79.72,99.49,-12.48,-37.62,94.57,-35.0,-10.93,85.72,-18.5,28.49,109.52,35.0,-28.75,128.16,35.0,-54.77,100.19,-27.5,-80.0,109.52,-23.31,-45.92,105.84,-1.0,-0.5664,-1.0,1.0,1.0,1.0,1.0,-1.0,1.0,1.0,-0.4839,-1.0,1.0,-1.0,1.0,-1.0,-1.0,1.0,0.039,0.0,0.0,0.013,0.071,0.065,0.006,0.013,0.026,0.006,0.019,0.006,0.013,0.006,0.0,0.026,0.006,0.033,-0.5967,-0.3789,0.3191,-0.4495,0.0046,0.3175,0.6013,-0.6197,0.5983,0.6059,-1.1443,0.589,-0.5814,-1.7181,0.3206,-0.1856,-0.9649,0.25,-0.0002,-0.2247,-0.0679,0.2663,0.281,0.1753,0.0001,-0.2959,0.2688,0.0047,-0.0962,-0.215,0.0821,-0.2118,0.2477,-0.1434,0.1721,0.0718,-1.6951,0.3202,0.0548,-0.0411,-0.0209,-1.0,-1.0,-1.0,1.0,1.0,1.0,1.0,-1.0,1.0,1.0,-0.5221,-1.0,1.0,-1.0,1.0,-1.0,-1.0,1.0,0.0,0.0,0.0,0.0,0.0,0.0,0.0,0.0,0.0,0.3333,0.0,0.3333,0.0,0
3.52,run,-19.53,6.3,-5.62,-3.13,0.67,0.0,0.05,0.0,0.364,-34.37,-5.36,95.19,-22.85,19.78,99.67,34.54,-19.25,117.42,34.8,-51.59,109.95,-30.76,-79.72,100.99,-13.89,-37.97,95.98,-35.0,-12.43,84.22,-17.0,29.99,111.02,35.0,-30.25,129.66,35.0,-53.27,98.69,-26.0,-80.0,111.02,-24.81,-47.42,107.34,-1.0,0.0352,-1.0,1.0,1.0,1.0,1.0,-1.0,1.0,1.0,0.0258,-1.0,1.0,-1.0,1.0,-1.0,-1.0,1.0,0.039,0.0,0.0,0.013,0.071,0.065,0.006,0.013,0.026,0.006,0.019,0.006,0.013,0.006,0.0,0.026,0.006,0.033,-0.5967,-0.405,0.293,-0.4218,0.0291,0.3421,0.6013,-0.6489,0.6259,0.6059,-1.1766,0.5614,-0.5599,-1.7211,0.3497,-0.2148,-0.9633,0.2746,-0.0001,-0.2406,-0.1308,0.2746,0.2751,0.2011,0.0001,-0.3002,0.2763,0.0033,-0.1703,-0.2387,0.126,-0.158,0.2665,-0.1935,0.1254,0.1287,-1.6834,0.3126,0.0504,-0.0428,-0.0162,-1.0,-0.5664,-1.0,1.0,1.0,1.0,1.0,-1.0,1.0,1.0,-0.4839,-1.0,1.0,-1.0,1.0,-1.0,-1.0,1.0,0.0,0.0,0.0,0.0,0.0,0.0,0.0,0.0,0.0,0.3333,0.0,0.3333,0.0,0
3.56,run,-19.85,6.31,-9.05,-0.81,-0.48,0.0,0.05,0.0,0.364,-34.37,-6.68,93.87,-21.18,20.92,101.07,34.54,-20.65,118.74,34.8,-52.73,108.54,-29.36,-79.72,102.3,-15.29,-38.76,97.38,-35.0,-10.93,82.72,-15.5,30.0,112.52,35.0,-31.75,131.16,35.0,-51.77,97.19,-24.5,-80.0,112.52,-26.31,-48.92,108.84,-1.0,0.5064,-1.0,1.0,1.0,1.0,1.0,-1.0,1.0,1.0,0.1321,-1.0,1.0,-1.0,1.0,-1.0,-1.0,1.0,0.019,0.006,0.006,0.013,0.156,0.078,0.0,0.026,0.026,0.006,0.019,0.013,0.019,0.006,0.006,0.039,0.013,0.033,-0.5983,-0.4264,0.27,-0.3988,0.0506,0.3651,0.6013,-0.6719,0.6504,0.6059,-1.2011,0.5369,-0.5369,-1.7211,0.3758,-0.2393,-0.9695,0.2991,-0.0058,-0.2481,-0.1769,0.2776,0.2723,0.2261,0.0001,-0.2955,0.2845,0.0023,-0.2102,-0.2581,0.1736,-0.1106,0.2833,-0.2265,0.065,0.1811,-1.6971,0.3011,-0.098,-0.0546,0.0116,-1.0,0.0352,-1.0,1.0,1.0,1.0,1.0,-1.0,1.0,1.0,0.0258,-1.0,1.0,-1.0,1.0,-1.0,-1.0,1.0,0.0,0.0,0.0,0.0,0.0,0.0,0.0,0.0,0.0,0.3333,0.0,0.3333,0.0,0
3.6,run,-20.31,6.56,-11.93,7.13,-0.13,0.0,0.05,0.0,0.364,-34.45,-7.91,92.46,-19.95,22.15,102.3,34.72,-21.97,120.23,34.8,-53.61,107.14,-27.95,-79.72,103.8,-16.61,-39.9,98.7,-35.0,-9.43,81.22,-14.0,30.0,114.02,35.0,-33.25,132.66,35.0,-50.27,95.69,-23.0,-80.0,114.02,-27.81,-50.42,110.34,-1.0,0.9451,-1.0,1.0,1.0,1.0,1.0,-1.0,1.0,1.0,-0.0626,-1.0,1.0,-1.0,1.0,-1.0,-1.0,1.0,0.019,0.006,0.006,0.013,0.156,0.078,0.0,0.026,0.026,0.006,0.019,0.013,0.019,0.006,0.006,0.039,0.013,0.033,-0.5983,-0.4495,0.247,-0.3697,0.0706,0.3896,0.6013,-0.6964,0.6734,0.6059,-1.221,0.5123,-0.5123,-1.7211,0.3988,-0.2638,-0.9833,0.3237,-0.004,-0.2599,-0.21,0.3035,0.2653,0.2502,0.0,-0.2988,0.2853,0.0016,-0.2219,-0.2726,0.2134,-0.0774,0.2845,-0.2505,-0.0062,0.2187,-1.7251,0.3022,-0.158,-0.014,-0.0083,-1.0,0.5064,-1.0,1.0,1.0,1.0,1.0,-1.0,1.0,1.0,0.1321,-1.0,1.0,-1.0,1.0,-1.0,-1.0,1.0,0.0,0.0,0.0,0.0,0.0,0.0,0.0,0.0,0.0,0.3333,0.0,0.3333,0.0,0
3.64,run,-20.86,7.08,-14.34,12.62,-3.49,0.0,0.05,0.0,0.364,-34.54,-8.96,91.14,-18.54,23.38,103.71,34.72,-23.38,121.64,34.8,-54.23,105.73,-26.63,-79.72,105.21,-18.02,-41.31,100.2,-35.0,-7.93,79.72,-12.5,30.0,115.52,35.0,-34.75,134.16,35.0,-51.77,94.19,-21.5,-80.0,115.52,-29.31,-51.92,111.84,-1.0,1.0,-1.0,1.0,1.0,1.0,1.0,-1.0,1.0,1.0,-0.8451,-1.0,1.0,-1.0,1.0,-1.0,-1.0,1.0,0.019,0.006,0.006,0.013,0.156,0.078,0.0,0.026,0.026,0.006,0.019,0.013,0.019,0.006,0.006,0.039,0.013,0.033,-0.5998,-0.4709,0.2224,-0.3482,0.092,0.4111,0.6044,-0.7194,0.6995,0.6059,-1.2364,0.4878,-0.4878,-1.7211,0.4249,-0.2869,-1.0032,0.3467,-0.0086,-0.2625,-0.2391,0.293,0.2663,0.2557,0.0115,-0.2955,0.2976,0.0011,-0.2128,-0.2829,0.2415,-0.0542,0.297,-0.2617,-0.0791,0.2394,-1.7651,0.324,-0.2082,0.1244,-0.0022,-1.0,0.9451,-1.0,1.0,1.0,1.0,1.0,-1.0,1.0,1.0,-0.0626,-1.0,1.0,-1.0,1.0,-1.0,-1.0,1.0,0.0,0.0,0.0,0.0,0.0,0.0,0.0,0.0,0.0,0.3333,0.0,0.3333,0.0,0
3.68,run,-21.78,7.7,-24.23,14.49,-15.8,0.0,0.05,0.0,0.364,-34.8,-9.76,89.74,-17.23,24.7,105.21,34.8,-24.79,123.13,34.8,-54.49,104.33,-25.22,-79.72,106.61,-19.34,-42.71,101.51,-35.0,-6.43,78.22,-11.0,30.0,117.02,35.0,-36.25,135.66,35.0,-53.27,92.69,-20.0,-80.0,117.02,-30.81,-53.42,113.34,-1.0,1.0,-1.0,1.0,1.0,1.0,1.0,-0.8076,1.0,1.0,-1.0,-1.0,1.0,-1.0,1.0,-1.0,-1.0,1.0,0.0,0.013,0.006,0.006,0.156,0.123,0.006,0.026,0.026,0.006,0.006,0.013,0.013,0.013,0.006,0.058,0.0,0.039,-0.6013,-0.4893,0.1994,-0.3237,0.1135,0.4357,0.6044,-0.744,0.724,0.6059,-1.2471,0.4633,-0.4648,-1.7211,0.4495,-0.3114,-1.0278,0.3728,-0.0118,-0.2526,-0.2535,0.297,0.2668,0.2709,0.0081,-0.2987,0.3002,0.0008,-0.1892,-0.2899,0.2552,-0.0379,0.2998,-0.275,-0.1473,0.2652,-1.8136,0.3695,-0.2502,0.2203,-0.061,-1.0,1.0,-1.0,1.0,1.0,1.0,1.0,-1.0,1.0,1.0,-0.8451,-1.0,1.0,-1.0,1.0,-1.0,-1.0,1.0,0.0,0.0,0.0,0.0,0.0,0.0,0.0,0.0,0.0,0.3333,0.0,0.3333,0.0,0
3.72,run,-22.6,8.54,-17.59,17.07,-19.16,0.0,0.05,0.0,0.364,-34.89,-10.2,88.07,-15.56,26.19,106.96,34.8,-26.63,124.8,34.8,-54.49,102.66,-23.47,-79.72,108.37,-20.83,-44.38,103.1,-35.0,-4.93,76.72,-9.5,30.0,118.52,35.0,-37.75,137.16,35.0,-54.77,91.19,-18.5,-80.0,118.52,-32.31,-54.92,114.84,-1.0,1.0,-1.0,1.0,1.0,1.0,1.0,-0.441,1.0,1.0,-1.0,-1.0,1.0,-1.0,1.0,-1.0,-0.9052,1.0,0.0,0.013,0.006,0.006,0.156,0.123,0.006,0.026,0.026,0.006,0.006,0.013,0.013,0.013,0.006,0.058,0.0,0.039,-0.6059,-0.5031,0.1749,-0.3007,0.1365,0.4617,0.6059,-0.7685,0.7501,0.6059,-1.2517,0.4387,-0.4403,-1.7211,0.474,-0.3344,-1.0523,0.3958,-0.0255,-0.2287,-0.2697,0.2944,0.2732,0.2876,0.0114,-0.3013,0.3081,0.0005,-0.1497,-0.2952,0.2709,-0.0266,0.3021,-0.279,-0.1954,0.2721,-1.8938,0.4237,-0.4229,0.2528,-0.2757,-1.0,1.0,-1.0,1.0,1.0,1.0,1.0,-0.8076,1.0,1.0,-1.0,-1.0,1.0,-1.0,1.0,-1.0,-1.0,1.0,0.0,0.0,0.0,0.0,0.0,0.0,0.0,0.0,0.0,0.3333,0.0,0.3333,0.0,0
3.76,run,-23.25,9.15,-15.14,16.46,-16.58,0.0,0.05,0.0,0.364,-35.16,-10.55,86.66,-13.89,27.07,108.46,34.8,-28.04,126.21,34.8,-54.32,101.16,-22.15,-79.72,109.78,-22.24,-45.88,104.41,-35.0,-3.43,75.22,-8.0,30.0,120.02,35.0,-36.25,138.66,35.0,-56.27,89.69,-17.0,-80.0,120.02,-33.81,-53.42,116.34,-1.0,1.0,-1.0,1.0,1.0,1.0,1.0,-0.1335,1.0,1.0,-1.0,-1.0,1.0,-1.0,1.0,-1.0,-0.4829,1.0,0.0,0.013,0.006,0.006,0.156,0.123,0.006,0.026,0.026,0.006,0.006,0.013,0.013,0.013,0.006,0.058,0.0,0.039,-0.6075,-0.5108,0.1457,-0.2715,0.1626,0.4924,0.6059,-0.8007,0.7793,0.6059,-1.2517,0.4096,-0.4096,-1.7211,0.5047,-0.3605,-1.0815,0.4234,-0.0226,-0.184,-0.2794,0.2967,0.2723,0.2967,0.008,-0.3111,0.3063,0.0004,-0.1048,-0.2973,0.285,-0.0186,0.3069,-0.2764,-0.2274,0.2764,-1.9652,0.4969,-0.307,0.2978,-0.3344,-1.0,1.0,-1.0,1.0,1.0,1.0,1.0,-0.441,1.0,1.0,-1.0,-1.0,1.0,-1.0,1.0,-1.0,-0.9052,1.0,0.0,0.0,0.0,0.0,0.0,0.0,0.0,0.0,0.0,0.3333,0.0,0.3333,0.0,0
3.8,run,-23.78,9.8,-13.14,16.84,-14.3,0.0,0.05,0.0,0.364,-35.16,-10.46,85.17,-12.66,27.69,109.95,34.8,-29.44,127.62,34.8,-53.96,99.76,-20.83,-79.72,111.27,-23.73,-47.29,105.73,-35.0,-1.93,73.72,-6.5,30.0,121.52,35.0,-34.75,140.16,35.0,-57.77,88.19,-15.5,-80.0,121.52,-35.0,-51.92,117.84,-1.0,1.0,-1.0,1.0,1.0,1.0,1.0,0.2247,1.0,1.0,-1.0,-1.0,1.0,-1.0,1.0,-1.0,-0.3167,1.0,0.0,0.013,0.013,0.013,0.091,0.091,0.0,0.019,0.033,0.006,0.0,0.013,0.013,0.006,0.006,0.104,0.0,0.065,-0.6121,-0.517,0.1212,-0.2424,0.1779,0.5185,0.6059,-0.8253,0.8038,0.6059,-1.2487,0.3835,-0.3866,-1.7211,0.5292,-0.385,-1.1075,0.4464,-0.033,-0.1516,-0.2868,0.316,0.2477,0.3047,0.0056,-0.309,0.3057,0.0003,-0.062,-0.305,0.285,-0.013,0.306,-0.2847,-0.2561,0.279,-2.0219,0.5505,-0.2643,0.2873,-0.2893,-1.0,1.0,-1.0,1.0,1.0,1.0,1.0,-0.1335,1.0,1.0,-1.0,-1.0,1.0,-1.0,1.0,-1.0,-0.4829,1.0,0.0,0.0,0.0,0.0,0.0,0.0,0.0,0.0,0.0,0.3333,0.0,0.3333,0.0,0
3.84,run,-23.91,10.31,-2.9,13.98,-6.69,0.0,0.05,0.0,0.364,-34.98,-10.37,83.76,-11.25,27.95,111.45,34.8,-30.85,129.02,34.8,-53.96,98.35,-19.34,-79.72,112.68,-25.05,-48.69,107.05,-35.0,-0.43,72.22,-5.0,30.0,123.02,35.0,-33.25,141.66,35.0,-59.27,86.69,-14.0,-80.0,123.02,-35.0,-50.42,119.34,-1.0,1.0,-1.0,1.0,1.0,1.0,1.0,0.4326,1.0,1.0,-1.0,-1.0,1.0,-1.0,1.0,-1.0,-0.1098,1.0,0.0,0.013,0.013,0.013,0.091,0.091,0.0,0.019,0.033,0.006,0.0,0.013,0.013,0.006,0.006,0.104,0.0,0.065,-0.6121,-0.5154,0.0951,-0.2209,0.1887,0.5446,0.6059,-0.8498,0.8283,0.6059,-1.2425,0.359,-0.3636,-1.7211,0.5553,-0.4111,-1.1321,0.4694,-0.0231,-0.1004,-0.2987,0.3018,0.2137,0.3111,0.0039,-0.3084,0.3061,0.0002,-0.0203,-0.3056,0.2859,-0.0091,0.3121,-0.2972,-0.2714,0.2817,-2.0682,0.6069,-0.2294,0.2938,-0.2496,-1.0,1.0,-1.0,1.0,1.0,1.0,1.0,0.2247,1.0,1.0,-1.0,-1.0,1.0,-1.0,1.0,-1.0,-0.3167,1.0,0.0,0.0,0.0,0.0,0.0,0.0,0.0,0.0,0.0,0.3333,0.0,0.3333,0.0,0
3.88,run,-23.86,10.65,1.31,8.84,-1.34,0.0,0.05,0.0,0.364,-34.8,-9.05,82.27,-9.76,28.04,112.85,34.8,-32.26,130.43,34.8,-53.96,96.94,-17.93,-79.72,114.08,-26.54,-50.1,108.46,-35.0,1.07,70.72,-3.5,30.0,124.52,35.0,-31.75,143.16,35.0,-60.77,85.19,-12.5,-80.0,124.52,-35.0,-48.92,120.84,-1.0,1.0,-1.0,1.0,1.0,1.0,1.0,0.7857,1.0,1.0,-1.0,-1.0,1.0,-1.0,1.0,-1.0,-0.0087,1.0,0.0,0.013,0.013,0.013,0.091,0.091,0.0,0.019,0.033,0.006,0.0,0.013,0.013,0.006,0.006,0.104,0.0,0.065,-0.609,-0.5139,0.0706,-0.1963,0.1933,0.5706,0.6059,-0.8744,0.8529,0.6059,-1.2425,0.3344,-0.3375,-1.7211,0.5798,-0.4341,-1.1566,0.4924,-0.0046,-0.0645,-0.3011,0.3033,0.1668,0.3155,0.0027,-0.3079,0.3063,0.0001,-0.0142,-0.3059,0.2979,-0.0064,0.3105,-0.2943,-0.282,0.2834,-2.0793,0.651,-0.0506,0.244,-0.1168,-1.0,1.0,-1.0,1.0,1.0,1.0,1.0,0.4326,1.0,1.0,-1.0,-1.0,1.0,-1.0,1.0,-1.0,-0.1098,1.0,0.0,0.0,0.0,0.0,0.0,0.0,0.0,0.0,0.0,0.3333,0.0,0.3333,0.0,0
3.92,run,-23.78,10.64,1.23,-1.66,-0.13,0.0,0.05,0.0,0.364,-34.72,-7.91,80.86,-8.35,28.04,114.17,34.8,-33.31,131.92,34.8,-54.4,95.54,-16.52,-79.72,115.4,-28.04,-50.98,109.86,-35.0,2.57,69.22,-2.0,30.0,126.02,35.0,-30.25,144.66,35.0,-62.27,83.69,-11.0,-80.0,126.02,-35.0,-47.42,122.34,-1.0,1.0,-1.0,1.0,1.0,1.0,1.0,1.0,1.0,1.0,-1.0,-1.0,1.0,-1.0,1.0,-1.0,0.0876,1.0,0.006,0.026,0.006,0.019,0.123,0.111,0.0,0.019,0.033,0.006,0.019,0.013,0.006,0.013,0.013,0.084,0.0,0.065,-0.6059,-0.4909,0.0445,-0.1703,0.1948,0.5952,0.6059,-0.8989,0.8774,0.6059,-1.2425,0.3099,-0.3129,-1.7211,0.6044,-0.4602,-1.1812,0.517,0.0083,0.0411,-0.3085,0.3101,0.1225,0.3129,0.0019,-0.3076,0.3064,0.0001,-0.01,-0.3062,0.3006,-0.0045,0.3094,-0.3038,-0.2894,0.2904,-2.0753,0.6809,0.0229,0.1542,-0.0234,-1.0,1.0,-1.0,1.0,1.0,1.0,1.0,0.7857,1.0,1.0,-1.0,-1.0,1.0,-1.0,1.0,-1.0,-0.0087,1.0,0.0,0.0,0.0,0.0,0.0,0.0,0.0,0.0,0.0,0.3333,0.0,0.3333,0.0,0
3.96,run,-23.78,10.28,-0.99,-10.47,-1.58,0.0,0.05,0.0,0.364,-34.89,-6.59,79.45,-6.86,28.04,115.58,34.8,-34.01,133.07,34.8,-55.11,94.04,-15.12,-79.72,116.81,-29.44,-51.68,111.27,-35.0,4.07,67.72,-0.5,28.5,127.52,35.0,-28.75,146.16,35.0,-63.77,82.19,-9.5,-80.0,127.52,-35.0,-45.92,123.84,-1.0,0.7573,-1.0,1.0,0.933,1.0,1.0,1.0,1.0,1.0,-1.0,-1.0,1.0,-1.0,1.0,-1.0,-0.2076,1.0,0.006,0.026,0.006,0.019,0.123,0.111,0.0,0.019,0.033,0.006,0.019,0.013,0.006,0.013,0.013,0.084,0.0,0.065,-0.6044,-0.4709,0.0199,-0.1457,0.1948,0.6182,0.6059,-0.9173,0.9035,0.6059,-1.2502,0.2853,-0.2884,-1.7211,0.6274,-0.4863,-1.1965,0.5415,0.0115,0.1036,-0.3081,0.3092,0.0858,0.3054,0.0013,-0.2844,0.3123,0.0001,-0.0358,-0.3064,0.3025,-0.0031,0.3029,-0.3105,-0.2602,0.2954,-2.0678,0.6799,0.0215,-0.029,-0.0024,-1.0,1.0,-1.0,1.0,1.0,1.0,1.0,1.0,1.0,1.0,-1.0,-1.0,1.0,-1.0,1.0,-1.0,0.0876,1.0,0.0,0.0,0.0,0.0,0.0,0.0,0.0,0.0,0.0,0.3333,0.0,0.3333,0.0,0
4.0,run,-23.8,9.75,-0.34,-12.64,-4.24,0.0,0.05,0.0,0.364,-34.8,-5.1,78.05,-5.45,28.04,116.98,34.8,-34.45,134.03,34.8,-56.25,92.72,-13.71,-79.72,118.39,-30.94,-51.94,112.68,-35.0,5.57,66.22,1.0,27.0,129.02,35.0,-27.25,147.66,35.0,-65.27,80.69,-8.0,-80.0,129.02,-35.0,-47.42,125.34,-1.0,0.5889,-1.0,1.0,0.6905,1.0,1.0,1.0,1.0,1.0,-1.0,-1.0,1.0,-1.0,1.0,-1.0,-0.5566,1.0,0.006,0.026,0.006,0.019,0.123,0.111,0.0,0.019,0.033,0.006,0.019,0.013,0.006,0.013,0.013,0.084,0.0,0.065,-0.6075,-0.4479,-0.0046,-0.1197,0.1948,0.6427,0.6059,-0.9296,0.9235,0.6059,-1.2625,0.2592,-0.2638,-1.7211,0.6519,-0.5108,-1.2088,0.566,-0.0034,0.1587,-0.3076,0.3141,0.06,0.3057,0.0009,-0.245,0.2934,0.0,-0.071,-0.3122,0.3037,-0.0022,0.304,-0.3093,-0.2281,0.2987,-2.0678,0.6488,-0.0173,-0.1827,-0.0275,-1.0,0.7573,-1.0,1.0,0.933,1.0,1.0,1.0,1.0,1.0,-1.0,-1.0,1.0,-1.0,1.0,-1.0,-0.2076,1.0,0.0,0.0,0.0,0.0,0.0,0.0,0.0,0.0,0.0,0.3333,0.0,0.3333,0.0,0
4.04,run,-23.6,9.25,4.1,-11.77,-3.64,0.0,0.05,0.0,0.364,-34.98,-3.69,76.55,-4.13,28.04,118.48,34.8,-34.45,134.74,34.8,-57.66,91.32,-12.39,-79.72,119.71,-32.26,-51.94,114.08,-35.0,7.07,64.72,2.5,25.5,130.52,35.0,-25.75,146.16,35.0,-66.77,79.19,-6.5,-80.0,127.52,-35.0,-48.92,126.84,-1.0,0.629,-1.0,1.0,0.6439,1.0,1.0,1.0,0.7429,1.0,-1.0,-1.0,1.0,-1.0,0.5632,-1.0,-0.9328,1.0,0.006,0.019,0.013,0.013,0.0,0.091,0.006,0.0,0.267,0.006,0.039,0.026,0.013,0.006,0.006,0.052,0.026,0.071,-0.6059,-0.4218,-0.0291,-0.0951,0.1948,0.6673,0.6059,-0.9373,0.9403,0.6059,-1.2824,0.2362,-0.2393,-1.7211,0.6796,-0.5369,-1.2134,0.5906,0.0033,0.2087,-0.3072,0.3117,0.042,0.3059,0.0007,-0.2002,0.2685,0.0,-0.1243,-0.3047,0.3045,-0.0015,0.3161,-0.3141,-0.1769,0.301,-2.0696,0.6023,-0.006,-0.2207,-0.074,-1.0,0.5889,-1.0,1.0,0.6905,1.0,1.0,1.0,1.0,1.0,-1.0,-1.0,1.0,-1.0,1.0,-1.0,-0.5566,1.0,0.0,0.0,0.0,0.0,0.0,0.0,0.0,0.0,0.0,0.3333,0.0,0.3333,0.0,0
4.08,run,-23.47,8.84,2.12,-10.77,-1.44,0.0,0.05,0.0,0.364,-34.89,-2.2,75.15,-2.64,27.86,119.88,34.8,-34.1,135.35,34.8,-59.15,89.91,-10.99,-79.72,121.11,-33.22,-51.94,115.49,-35.0,8.57,63.22,4.0,24.0,132.02,35.0,-24.25,144.66,35.0,-68.27,77.69,-5.0,-80.0,126.02,-35.0,-50.42,128.34,-1.0,0.912,-1.0,1.0,0.4022,1.0,1.0,1.0,-0.181,1.0,-1.0,-1.0,1.0,-1.0,0.5253,-1.0,-1.0,1.0,0.006,0.019,0.013,0.013,0.0,0.091,0.006,0.0,0.267,0.006,0.039,0.026,0.013,0.006,0.006,0.052,0.026,0.071,-0.609,-0.3973,-0.0552,-0.0721,0.1948,0.6934,0.6059,-0.9373,0.9526,0.6059,-1.307,0.2117,-0.2163,-1.7211,0.7026,-0.5599,-1.2134,0.6151,-0.0092,0.2384,-0.3131,0.3048,0.0294,0.3122,0.0005,-0.1402,0.2341,0.0,-0.1793,-0.3056,0.2996,-0.0011,0.3078,-0.3064,-0.1238,0.303,-2.052,0.5588,0.0716,-0.2054,-0.0635,-1.0,0.629,-1.0,1.0,0.6439,1.0,1.0,1.0,0.7429,1.0,-1.0,-1.0,1.0,-1.0,0.5632,-1.0,-0.9328,1.0,0.0,0.0,0.0,0.0,0.0,0.0,0.0,0.0,0.0,0.3333,0.0,0.3333,0.0,0
4.12,run,-23.33,8.27,3.83,-14.33,1.58,0.0,0.05,0.0,0.364,-34.89,-0.79,73.74,-1.49,26.81,121.29,34.8,-33.4,135.97,34.8,-60.64,88.51,-9.49,-79.72,122.61,-34.01,-51.59,116.89,-35.0,10.07,61.72,5.5,22.5,133.52,35.0,-22.75,143.16,35.0,-69.77,76.19,-3.5,-80.0,124.52,-35.0,-51.92,129.84,-1.0,1.0,-1.0,1.0,0.5841,1.0,1.0,1.0,-1.0,1.0,-1.0,-1.0,1.0,-1.0,-0.1087,-1.0,-1.0,1.0,0.006,0.019,0.013,0.013,0.0,0.091,0.006,0.0,0.267,0.006,0.039,0.026,0.013,0.006,0.006,0.052,0.026,0.071,-0.6075,-0.3712,-0.0798,-0.046,0.1917,0.7179,0.6059,-0.9311,0.9633,0.6059,-1.333,0.1871,-0.1917,-1.7211,0.7271,-0.5768,-1.2134,0.6397,-0.0007,0.2645,-0.311,0.3109,0.0091,0.3104,0.0003,-0.0752,0.2041,0.0,-0.2231,-0.3058,0.3016,-0.0008,0.3073,-0.2776,-0.0867,0.3039,-2.0408,0.5234,0.0369,-0.1879,-0.0251,-1.0,0.912,-1.0,1.0,0.4022,1.0,1.0,1.0,-0.181,1.0,-1.0,-1.0,1.0,-1.0,0.5253,-1.0,-1.0,1.0,0.0,0.0,0.0,0.0,0.0,0.0,0.0,0.0,0.0,0.3333,0.0,0.3333,0.0,0
4.16,run,-22.81,7.67,13.76,-15.32,4.15,0.0,0.05,0.0,0.747,-34.89,0.62,72.33,0.0,25.75,122.78,34.8,-32.34,136.49,34.8,-62.05,87.1,-8.09,-79.72,123.84,-34.37,-51.24,118.3,-35.0,11.57,60.22,4.0,21.0,135.02,35.0,-21.25,141.66,35.0,-71.27,77.69,-2.0,-80.0,123.02,-35.0,-53.42,131.34,-1.0,1.0,-1.0,-1.0,0.7203,1.0,1.0,1.0,-1.0,1.0,-1.0,0.2548,1.0,-1.0,-0.6336,-1.0,-1.0,1.0,0.006,0.026,0.013,0.019,0.0,0.136,0.006,0.006,0.747,0.006,0.033,0.026,0.013,0.006,0.0,0.019,0.058,0.071,-0.6075,-0.3467,-0.1043,-0.0261,0.1733,0.7424,0.6059,-0.9189,0.9741,0.6059,-1.3591,0.1626,-0.1657,-1.7211,0.7532,-0.5906,-1.2072,0.6642,-0.0005,0.2773,-0.3099,0.2925,-0.0627,0.3094,0.0002,-0.0065,0.1832,0.0,-0.2541,-0.3062,0.309,-0.0005,0.313,-0.2462,-0.0376,0.3049,-2.0291,0.4729,0.0668,-0.2501,0.0276,-1.0,1.0,-1.0,1.0,0.5841,1.0,1.0,1.0,-1.0,1.0,-1.0,-1.0,1.0,-1.0,-0.1087,-1.0,-1.0,1.0,0.0,0.0,0.0,0.0,0.0,0.0,0.0,0.0,0.0,0.3333,0.0,0.3333,0.0,0
4.2,run,-22.23,7.01,14.53,-15.77,4.67,0.0,0.05,0.0,0.747,-34.8,2.02,70.93,1.14,24.35,124.19,34.8,-30.94,136.76,34.8,-63.46,85.69,-6.68,-79.89,124.89,-34.45,-51.06,119.71,-33.5,13.07,58.72,2.5,19.5,133.52,35.0,-19.75,140.16,35.0,-72.77,79.19,-0.5,-80.0,121.52,-35.0,-54.92,132.84,-0.8466,1.0,-1.0,-1.0,0.4172,0.2575,1.0,1.0,-1.0,1.0,-1.0,1.0,0.7301,-1.0,-0.2478,-1.0,-1.0,1.0,0.006,0.026,0.013,0.019,0.0,0.136,0.006,0.006,0.747,0.006,0.033,0.026,0.013,0.006,0.0,0.019,0.058,0.071,-0.6075,-0.3221,-0.1289,0.0,0.1549,0.7685,0.6059,-0.9004,0.9833,0.6059,-1.3837,0.1381,-0.1411,-1.7211,0.7747,-0.5967,-1.2011,0.6888,-0.0003,0.2862,-0.309,0.3026,-0.113,0.3144,0.0002,0.0645,0.1627,0.0,-0.27,-0.3064,0.3084,-0.0004,0.2997,-0.1954,-0.0033,0.3055,-1.9838,0.4206,0.2402,-0.2673,0.0724,-1.0,1.0,-1.0,-1.0,0.7203,1.0,1.0,1.0,-1.0,1.0,-1.0,0.2548,1.0,-1.0,-0.6336,-1.0,-1.0,1.0,0.0,0.0,0.0,0.0,0.0,0.0,0.0,0.0,0.0,0.3333,0.0,0.3333,0.0,0
4.24,run,-21.72,6.43,12.44,-15.51,6.45,0.0,0.05,0.0,0.747,-34.8,3.43,69.52,2.37,23.03,125.6,34.8,-29.53,137.11,34.8,-64.86,84.29,-5.27,-79.8,125.51,-34.54,-51.06,121.2,-32.0,14.57,60.22,1.0,18.0,132.02,35.0,-18.25,138.66,35.0,-74.27,80.69,-2.0,-80.0,120.02,-35.0,-56.42,134.34,-0.5523,1.0,0.4432,-1.0,0.6976,0.2591,1.0,0.7547,-1.0,1.0,-1.0,1.0,-0.7997,-1.0,-0.9189,-1.0,-1.0,1.0,0.006,0.026,0.013,0.019,0.0,0.136,0.006,0.006,0.747,0.006,0.033,0.026,0.013,0.006,0.0,0.019,0.058,0.071,-0.6059,-0.2976,-0.1534,0.0199,0.1304,0.7931,0.6059,-0.8759,0.9879,0.6059,-1.4082,0.1135,-0.1166,-1.7242,0.7931,-0.5983,-1.198,0.7133,0.0055,0.2922,-0.3082,0.2865,-0.1709,0.312,0.0001,0.137,0.1311,0.0,-0.2808,-0.3064,0.3078,-0.0117,0.2787,-0.1425,0.0092,0.3057,-1.9327,0.3637,0.2535,-0.2753,0.0814,-0.8466,1.0,-1.0,-1.0,0.4172,0.2575,1.0,1.0,-1.0,1.0,-1.0,1.0,0.7301,-1.0,-0.2478,-1.0,-1.0,1.0,0.0,0.0,0.0,0.0,0.0,0.0,0.0,0.0,0.0,0.3333,0.0,0.3333,0.0,0
4.28,run,-21.19,5.92,13.11,-12.97,4.16,0.0,0.05,0.0,1.001,-34.28,4.75,68.12,3.25,21.62,127.0,34.8,-28.04,137.2,34.8,-66.27,82.97,-4.04,-79.8,125.86,-34.63,-51.15,122.61,-33.5,16.07,61.72,-0.5,19.5,130.52,35.0,-16.75,137.16,35.0,-72.77,82.19,-3.5,-80.0,118.52,-35.0,-57.92,135.84,-1.0,1.0,1.0,-1.0,0.8538,-0.4263,1.0,0.423,-1.0,1.0,-0.6101,1.0,-1.0,-1.0,-1.0,-1.0,-1.0,1.0,0.0,0.019,0.013,0.006,0.0,0.078,0.0,0.006,1.001,0.006,0.033,0.013,0.006,0.006,0.0,0.013,0.0,0.058,-0.6059,-0.273,-0.1779,0.0414,0.1074,0.8176,0.6059,-0.8514,0.994,0.6059,-1.4327,0.089,-0.092,-1.7227,0.8038,-0.5998,-1.198,0.7394,0.0039,0.2967,-0.3079,0.2812,-0.2061,0.3105,0.0001,0.1881,0.1148,0.0,-0.2887,-0.3066,0.3076,-0.0025,0.2354,-0.1055,0.0064,0.3119,-1.8882,0.3129,0.217,-0.2707,0.1125,-0.5523,1.0,0.4432,-1.0,0.6976,0.2591,1.0,0.7547,-1.0,1.0,-1.0,1.0,-0.7997,-1.0,-0.9189,-1.0,-1.0,1.0,0.0,0.0,0.0,0.0,0.0,0.0,0.0,0.0,0.0,0.3333,0.0,0.3333,0.0,0
4.32,run,-20.75,5.58,11.3,-8.85,4.8,0.0,0.05,0.0,1.001,-33.75,6.24,66.71,3.78,20.21,128.41,34.8,-26.63,137.2,34.8,-67.68,82.0,-2.99,-79.8,125.86,-34.72,-51.59,124.1,-35.0,17.57,63.22,-2.0,21.0,129.02,35.0,-15.25,135.66,35.0,-71.27,83.69,-5.0,-80.0,117.02,-35.0,-59.42,137.34,-1.0,1.0,1.0,-1.0,1.0,-1.0,1.0,0.4221,-1.0,1.0,-0.3351,1.0,-1.0,-1.0,-1.0,-1.0,-1.0,1.0,0.0,0.019,0.013,0.006,0.0,0.078,0.0,0.006,1.001,0.006,0.033,0.013,0.006,0.006,0.0,0.013,0.0,0.058,-0.5967,-0.25,-0.2025,0.0568,0.0828,0.8422,0.6059,-0.8253,0.9956,0.6059,-1.4573,0.066,-0.0706,-1.7227,0.8099,-0.6013,-1.1996,0.7639,0.0372,0.2939,-0.3075,0.2543,-0.2362,0.3093,0.0001,0.2293,0.0861,0.0,-0.2941,-0.3008,0.2958,-0.0017,0.1878,-0.0796,-0.0013,0.3103,-1.8419,0.2679,0.2288,-0.2264,0.0727,-1.0,1.0,1.0,-1.0,0.8538,-0.4263,1.0,0.423,-1.0,1.0,-0.6101,1.0,-1.0,-1.0,-1.0,-1.0,-1.0,1.0,0.0,0.0,0.0,0.0,0.0,0.0,0.0,0.0,0.0,0.3333,0.0,0.3333,0.0,0
4.36,run,-20.34,5.28,9.24,-7.44,3.12,0.0,0.05,0.0,1.001,-33.66,7.56,65.3,3.87,19.16,129.46,34.8,-25.22,137.2,34.8,-68.99,81.3,-2.29,-79.8,125.42,-34.72,-52.56,125.6,-35.0,19.07,64.72,-3.5,22.5,127.52,35.0,-16.75,134.16,35.0,-69.77,85.19,-6.5,-80.0,115.52,-35.0,-60.92,138.84,-1.0,1.0,1.0,-1.0,1.0,-1.0,1.0,0.0937,-1.0,1.0,-0.1813,1.0,-1.0,-1.0,-1.0,-1.0,-1.0,1.0,0.0,0.019,0.013,0.006,0.0,0.078,0.0,0.006,1.001,0.006,0.033,0.013,0.006,0.006,0.0,0.013,0.0,0.058,-0.5875,-0.224,-0.227,0.066,0.0583,0.8667,0.6059,-0.8007,0.9956,0.6059,-1.4818,0.0491,-0.0522,-1.7227,0.8099,-0.6029,-1.2072,0.79,0.0606,0.3036,-0.3074,0.2126,-0.2575,0.3087,0.0,0.2527,0.0603,0.0,-0.298,-0.2739,0.2761,-0.0012,0.1314,-0.0615,-0.0297,0.3151,-1.8035,0.2385,0.1972,-0.1545,0.0838,-1.0,1.0,1.0,-1.0,1.0,-1.0,1.0,0.4221,-1.0,1.0,-0.3351,1.0,-1.0,-1.0,-1.0,-1.0,-1.0,1.0,0.0,0.0,0.0,0.0,0.0,0.0,0.0,0.0,0.0,0.3333,0.0,0.3333,0.0,0
4.4,run,-20.14,5.17,4.86,-3.5,0.05,0.0,0.05,0.0,1.001,-33.75,8.96,64.07,3.87,18.54,130.17,34.8,-23.73,137.2,34.8,-70.22,80.95,-1.85,-79.8,124.45,-34.72,-53.88,127.18,-35.0,20.57,66.22,-5.0,24.0,126.02,35.0,-15.25,132.66,35.0,-68.27,86.69,-8.0,-80.0,114.02,-35.0,-62.42,140.34,-1.0,1.0,1.0,-1.0,1.0,-1.0,1.0,0.2717,-1.0,1.0,-0.1149,1.0,-1.0,-1.0,-1.0,-1.0,-1.0,1.0,0.019,0.033,0.0,0.013,0.0,0.058,0.006,0.006,0.396,0.006,0.019,0.0,0.006,0.006,0.013,0.013,0.013,0.052,-0.586,-0.201,-0.2516,0.0675,0.0399,0.8851,0.6059,-0.7762,0.9956,0.6059,-1.5048,0.0368,-0.0399,-1.7227,0.8023,-0.6029,-1.2241,0.8161,0.0482,0.2987,-0.3071,0.1545,-0.2492,0.285,0.0,0.2688,0.0422,0.0,-0.2948,-0.2377,0.2393,-0.0008,0.0633,-0.043,-0.084,0.3183,-1.7677,0.2125,0.1614,-0.1298,0.0545,-1.0,1.0,1.0,-1.0,1.0,-1.0,1.0,0.0937,-1.0,1.0,-0.1813,1.0,-1.0,-1.0,-1.0,-1.0,-1.0,1.0,0.0,0.0,0.0,0.0,0.0,0.0,0.0,0.0,0.0,0.3333,0.0,0.3333,0.0,0
4.44,run,-20.13,4.98,-1.64,-3.75,-6.02,0.0,0.05,0.0,1.001,-34.37,10.37,63.19,3.16,18.02,130.61,34.8,-22.32,137.2,34.8,-71.19,80.95,-1.85,-79.8,123.31,-34.8,-55.28,128.76,-35.0,22.07,67.72,-6.5,25.5,124.52,35.0,-16.75,131.16,35.0,-66.77,88.19,-9.5,-80.0,112.52,-35.0,-63.92,141.84,-1.0,1.0,1.0,-1.0,1.0,-1.0,1.0,-0.108,-1.0,1.0,-0.2745,1.0,-1.0,-1.0,-1.0,-1.0,-1.0,1.0,0.019,0.033,0.0,0.013,0.0,0.058,0.006,0.006,0.396,0.006,0.019,0.0,0.006,0.006,0.013,0.013,0.013,0.052,-0.5875,-0.1764,-0.273,0.0675,0.0291,0.8974,0.6059,-0.7501,0.9956,0.6059,-1.5263,0.0307,-0.0322,-1.7227,0.7854,-0.6029,-1.2471,0.8437,0.028,0.3011,-0.2955,0.1082,-0.2147,0.2455,0.0,0.2859,0.0295,0.0,-0.2869,-0.1894,0.1962,-0.0006,-0.019,-0.0301,-0.145,0.3263,-1.7504,0.2026,0.0849,-0.0611,0.0008,-1.0,1.0,1.0,-1.0,1.0,-1.0,1.0,0.2717,-1.0,1.0,-0.1149,1.0,-1.0,-1.0,-1.0,-1.0,-1.0,1.0,0.0,0.0,0.0,0.0,0.0,0.0,0.0,0.0,0.0,0.3333,0.0,0.3333,0.0,0
4.48,run,-20.41,4.8,-5.88,-5.21,-3.6,0.0,0.05,0.0,1.001,-34.8,11.69,62.58,2.29,17.93,130.78,34.8,-20.83,137.2,34.8,-71.81,81.47,-2.2,-79.8,121.9,-34.8,-56.25,130.25,-35.0,23.57,69.22,-8.0,27.0,123.02,35.0,-15.25,129.66,35.0,-65.27,89.69,-11.0,-80.0,111.02,-35.0,-65.42,143.34,-1.0,1.0,1.0,-1.0,1.0,-1.0,1.0,0.4906,-1.0,1.0,-0.3629,1.0,-1.0,-1.0,-1.0,-1.0,-1.0,1.0,0.019,0.033,0.0,0.013,0.0,0.058,0.006,0.006,0.396,0.006,0.019,0.0,0.006,0.006,0.013,0.013,0.013,0.052,-0.5983,-0.1519,-0.2884,0.0552,0.0199,0.905,0.6059,-0.7256,0.9956,0.6059,-1.5432,0.0307,-0.0322,-1.7227,0.7655,-0.6044,-1.2717,0.8713,-0.0176,0.2957,-0.2599,0.0333,-0.1821,0.1984,0.0,0.2851,0.0207,0.0,-0.2592,-0.1326,0.1374,-0.0004,-0.0823,-0.0264,-0.1864,0.3239,-1.7494,0.186,-0.0286,-0.0655,-0.1051,-1.0,1.0,1.0,-1.0,1.0,-1.0,1.0,-0.108,-1.0,1.0,-0.2745,1.0,-1.0,-1.0,-1.0,-1.0,-1.0,1.0,0.0,0.0,0.0,0.0,0.0,0.0,0.0,0.0,0.0,0.3333,0.0,0.3333,0.0,0
4.52,run,-20.53,4.58,-2.74,-4.47,-0.84,0.0,0.05,0.0,1.001,-34.8,13.01,62.4,0.97,17.93,130.61,34.8,-19.42,136.85,34.8,-72.07,82.18,-3.16,-79.8,120.41,-34.8,-57.92,131.66,-35.0,25.07,70.72,-9.5,28.5,121.52,35.0,-13.75,128.16,35.0,-63.77,91.19,-12.5,-80.0,109.52,-35.0,-66.92,141.84,-1.0,1.0,1.0,-1.0,1.0,-1.0,1.0,0.5626,-1.0,1.0,-0.447,1.0,-1.0,-1.0,-1.0,-1.0,-1.0,0.7601,0.006,0.052,0.006,0.013,0.104,0.0,0.006,0.006,0.0,0.006,0.0,0.006,0.019,0.006,0.019,0.006,0.019,0.026,-0.6059,-0.1289,-0.2991,0.0399,0.0184,0.9081,0.6059,-0.6995,0.9956,0.6059,-1.5539,0.0399,-0.0383,-1.7227,0.7409,-0.6044,-1.2885,0.8974,-0.0408,0.2925,-0.2218,-0.0337,-0.1332,0.1503,0.0,0.2964,0.0145,0.0,-0.2213,-0.0586,0.0734,-0.0003,-0.1488,-0.0185,-0.1932,0.3236,-1.7743,0.1702,-0.1027,-0.0909,-0.0628,-1.0,1.0,1.0,-1.0,1.0,-1.0,1.0,0.4906,-1.0,1.0,-0.3629,1.0,-1.0,-1.0,-1.0,-1.0,-1.0,1.0,0.0,0.0,0.0,0.0,0.0,0.0,0.0,0.0,0.0,0.3333,0.0,0.3333,0.0,0
4.56,run,-20.73,4.44,-6.46,-4.17,-0.69,0.0,0.05,0.0,1.001,-34.8,14.41,62.4,-0.18,18.28,129.73,34.8,-18.02,136.05,34.8,-72.07,83.23,-4.13,-79.8,119.0,-34.8,-59.41,133.24,-35.0,26.57,72.22,-11.0,30.0,120.02,35.0,-12.25,126.66,35.0,-62.27,92.69,-14.0,-80.0,108.02,-35.0,-68.42,140.34,-1.0,1.0,1.0,-1.0,1.0,-1.0,1.0,0.6899,-1.0,1.0,-0.4587,1.0,-1.0,-1.0,-1.0,-1.0,-1.0,-0.1422,0.006,0.052,0.006,0.013,0.104,0.0,0.006,0.006,0.0,0.006,0.0,0.006,0.019,0.006,0.019,0.006,0.019,0.026,-0.6059,-0.1058,-0.3022,0.0169,0.0184,0.905,0.6059,-0.675,0.9894,0.6059,-1.5585,0.0522,-0.0552,-1.7227,0.7148,-0.6044,-1.3177,0.9219,-0.0286,0.291,-0.1668,-0.1098,-0.0932,0.0937,0.0,0.2995,-0.0129,0.0,-0.1722,0.005,-0.0119,-0.0002,-0.2019,-0.0129,-0.2445,0.3185,-1.7842,0.1516,-0.0478,-0.078,-0.0147,-1.0,1.0,1.0,-1.0,1.0,-1.0,1.0,0.5626,-1.0,1.0,-0.447,1.0,-1.0,-1.0,-1.0,-1.0,-1.0,0.7601,0.0,0.0,0.0,0.0,0.0,0.0,0.0,0.0,0.0,0.3333,0.0,0.3333,0.0,0
4.6,run,-21.17,4.38,-11.85,-0.55,-2.81,0.0,0.05,0.0,1.001,-34.8,15.73,62.67,-1.49,19.16,128.58,34.8,-16.61,135.18,34.8,-71.63,84.64,-5.54,-79.8,117.6,-34.8,-60.82,134.74,-35.0,28.07,73.72,-12.5,30.0,118.52,35.0,-10.75,125.16,35.0,-60.77,94.19,-15.5,-80.0,106.52,-33.5,-69.92,138.84,-1.0,1.0,1.0,-1.0,1.0,-1.0,1.0,1.0,-1.0,1.0,-0.6382,1.0,-1.0,-1.0,-1.0,-0.302,-1.0,-1.0,0.006,0.052,0.006,0.013,0.104,0.0,0.006,0.006,0.0,0.006,0.0,0.006,0.019,0.006,0.019,0.006,0.019,0.026,-0.6059,-0.0813,-0.3022,-0.0031,0.0245,0.8897,0.6059,-0.6504,0.9756,0.6059,-1.5585,0.0706,-0.0721,-1.7227,0.6903,-0.6044,-1.3438,0.9495,-0.02,0.2958,-0.1167,-0.1517,-0.0422,0.008,0.0,0.3018,-0.0608,0.0,-0.1205,0.0726,-0.0717,-0.0001,-0.2334,-0.0091,-0.269,0.3266,-1.8019,0.1389,-0.1127,-0.0728,-0.0121,-1.0,1.0,1.0,-1.0,1.0,-1.0,1.0,0.6899,-1.0,1.0,-0.4587,1.0,-1.0,-1.0,-1.0,-1.0,-1.0,-0.1422,0.0,0.0,0.0,0.0,0.0,0.0,0.0,0.0,0.0,0.3333,0.0,0.3333,0.0,0
4.64,run,-21.76,4.5,-16.05,3.71,1.09,0.0,0.05,0.0,1.001,-34.8,17.05,63.46,-3.16,20.39,127.27,34.8,-15.12,134.21,34.8,-70.75,86.13,-6.94,-79.8,116.1,-34.72,-62.31,136.05,-35.0,29.57,75.22,-14.0,28.5,117.02,35.0,-9.25,123.66,35.0,-62.27,95.69,-17.0,-80.0,105.02,-32.0,-71.42,137.34,-1.0,1.0,1.0,-1.0,0.9386,-1.0,1.0,1.0,-1.0,1.0,-1.0,1.0,-1.0,-1.0,-1.0,1.0,-0.9461,-1.0,0.006,0.071,0.045,0.019,0.091,0.006,0.0,0.006,0.006,0.006,0.013,0.006,0.013,0.0,0.013,0.013,0.013,0.013,-0.6059,-0.0583,-0.2976,-0.0261,0.0399,0.8698,0.6059,-0.6259,0.9603,0.6059,-1.5509,0.0951,-0.0966,-1.7227,0.6657,-0.6044,-1.3683,0.9756,-0.014,0.2931,-0.0645,-0.1923,0.0278,-0.069,0.0,0.3031,-0.1,0.0,-0.0557,0.1426,-0.142,-0.0001,-0.2552,-0.0063,-0.2801,0.3262,-1.8404,0.1338,-0.2069,-0.0097,-0.0491,-1.0,1.0,1.0,-1.0,1.0,-1.0,1.0,1.0,-1.0,1.0,-0.6382,1.0,-1.0,-1.0,-1.0,-0.302,-1.0,-1.0,0.0,0.0,0.0,0.0,0.0,0.0,0.0,0.0,0.0,0.3333,0.0,0.3333,0.0,0
4.68,run,-22.46,4.57,-18.4,2.16,6.75,0.0,0.05,0.0,1.001,-34.8,18.37,64.51,-4.57,21.8,125.86,34.8,-13.8,132.98,34.8,-69.52,87.36,-8.35,-79.8,114.7,-34.28,-63.72,137.11,-35.0,28.31,76.72,-15.5,30.0,115.52,35.0,-7.75,122.16,35.0,-63.77,97.19,-18.5,-80.0,103.52,-30.5,-69.92,135.84,-1.0,0.9693,1.0,-1.0,1.0,-1.0,1.0,1.0,-1.0,1.0,-1.0,1.0,-1.0,-1.0,-1.0,1.0,-0.29,-1.0,0.006,0.071,0.045,0.019,0.091,0.006,0.0,0.006,0.006,0.006,0.013,0.006,0.013,0.0,0.013,0.013,0.013,0.013,-0.6059,-0.0353,-0.2838,-0.0552,0.0614,0.8468,0.6059,-0.5998,0.9434,0.6059,-1.5355,0.1212,-0.1212,-1.7227,0.6397,-0.6029,-1.3944,0.9986,-0.0098,0.2918,0.0068,-0.2443,0.1003,-0.1349,0.0,0.3103,-0.1335,0.0,0.0188,0.198,-0.1918,-0.0001,-0.2768,0.0013,-0.2942,0.3149,-1.892,0.1441,-0.28,0.0647,0.019,-1.0,1.0,1.0,-1.0,0.9386,-1.0,1.0,1.0,-1.0,1.0,-1.0,1.0,-1.0,-1.0,-1.0,1.0,-0.9461,-1.0,0.0,0.0,0.0,0.0,0.0,0.0,0.0,0.0,0.0,0.3333,0.0,0.3333,0.0,0
4.72,run,-23.2,4.55,-19.4,-0.51,11.25,0.0,0.05,0.0,1.001,-34.8,19.69,65.74,-5.98,23.2,124.37,34.8,-12.22,132.1,34.8,-68.2,88.86,-9.76,-79.8,113.29,-33.22,-65.04,137.9,-35.0,26.81,78.22,-17.0,30.0,114.02,35.0,-6.25,120.66,35.0,-65.27,98.69,-20.0,-80.0,102.02,-29.0,-68.42,134.34,-1.0,0.5275,1.0,-1.0,1.0,-1.0,1.0,1.0,-1.0,1.0,-1.0,1.0,-1.0,-1.0,-1.0,1.0,-0.0665,-1.0,0.006,0.071,0.045,0.019,0.091,0.006,0.0,0.006,0.006,0.006,0.013,0.006,0.013,0.0,0.013,0.013,0.013,0.013,-0.6059,-0.0123,-0.2654,-0.0798,0.0859,0.8222,0.6059,-0.5768,0.9219,0.6059,-1.514,0.1427,-0.1457,-1.7227,0.6151,-0.5952,-1.4189,1.017,-0.0069,0.2905,0.0738,-0.263,0.1622,-0.1865,0.0,0.3035,-0.174,0.0,0.0937,0.2191,-0.2263,-0.0,-0.2858,0.0297,-0.298,0.2895,-1.9531,0.1504,-0.3212,0.0378,0.1178,-1.0,0.9693,1.0,-1.0,1.0,-1.0,1.0,1.0,-1.0,1.0,-1.0,1.0,-1.0,-1.0,-1.0,1.0,-0.29,-1.0,0.0,0.0,0.0,0.0,0.0,0.0,0.0,0.0,0.0,0.3333,0.0,0.3333,0.0,0
4.76,run,-23.95,4.16,-19.69,-11.43,12.93,0.0,0.05,0.0,1.001,-34.8,20.92,66.97,-7.47,24.7,123.05,34.8,-10.81,130.61,34.8,-66.8,90.35,-11.16,-79.8,111.88,-32.17,-66.36,138.52,-35.0,25.31,79.72,-18.5,30.0,112.52,35.0,-4.75,119.16,35.0,-66.77,100.19,-21.5,-80.0,100.52,-27.5,-66.92,132.84,-1.0,0.1414,1.0,-1.0,1.0,-1.0,1.0,1.0,-1.0,1.0,-1.0,1.0,-1.0,-1.0,-1.0,1.0,-0.0055,-1.0,0.006,0.091,0.078,0.019,0.058,0.006,0.006,0.013,0.013,0.006,0.0,0.013,0.013,0.006,0.013,0.019,0.019,0.0,-0.6059,0.0107,-0.2439,-0.1043,0.1104,0.7961,0.6059,-0.5492,0.9066,0.6059,-1.491,0.1687,-0.1703,-1.7227,0.5906,-0.5768,-1.4419,1.0308,-0.0048,0.2895,0.1321,-0.276,0.2055,-0.2282,0.0,0.3158,-0.1792,0.0,0.1517,0.251,-0.2503,-0.0,-0.292,0.0897,-0.2948,0.2543,-2.0177,0.1487,-0.3387,-0.0089,0.1963,-1.0,0.5275,1.0,-1.0,1.0,-1.0,1.0,1.0,-1.0,1.0,-1.0,1.0,-1.0,-1.0,-1.0,1.0,-0.0665,-1.0,0.0,0.0,0.0,0.0,0.0,0.0,0.0,0.0,0.0,0.3333,0.0,0.3333,0.0,0
4.8,run,-24.8,3.5,-22.07,-17.93,11.9,0.0,0.05,0.0,1.001,-34.8,22.15,68.38,-8.88,26.19,121.55,34.8,-9.58,129.11,34.8,-65.74,91.67,-12.57,-79.8,110.48,-30.67,-67.32,138.78,-35.0,23.81,81.22,-20.0,30.0,111.02,35.0,-3.25,117.66,35.0,-68.27,101.69,-23.0,-80.0,99.02,-26.0,-65.42,131.34,-1.0,-0.7976,1.0,-1.0,1.0,-1.0,1.0,1.0,-1.0,1.0,-1.0,1.0,-1.0,-1.0,-1.0,1.0,-0.1818,-1.0,0.006,0.091,0.078,0.019,0.058,0.006,0.006,0.013,0.013,0.006,0.0,0.013,0.013,0.006,0.013,0.019,0.019,0.0,-0.6059,0.0322,-0.2224,-0.1304,0.1365,0.7731,0.6059,-0.5246,0.8805,0.6059,-1.4665,0.1948,-0.1948,-1.7227,0.566,-0.5584,-1.465,1.0416,-0.0034,0.2833,0.1731,-0.2912,0.2418,-0.2461,0.0,0.3132,-0.2234,0.0,0.1984,0.2736,-0.2674,-0.0,-0.2965,0.1319,-0.2927,0.2184,-2.0833,0.1151,-0.3436,-0.1995,0.2256,-1.0,0.1414,1.0,-1.0,1.0,-1.0,1.0,1.0,-1.0,1.0,-1.0,1.0,-1.0,-1.0,-1.0,1.0,-0.0055,-1.0,0.0,0.0,0.0,0.0,0.0,0.0,0.0,0.0,0.0,0.3333,0.0,0.3333,0.0,0
4.84,run,-25.57,2.75,-19.46,-19.9,10.87,0.0,0.05,0.0,1.001,-34.8,23.29,69.79,-10.28,27.42,120.06,34.8,-8.0,127.79,34.8,-64.95,93.08,-13.97,-79.8,109.07,-29.36,-68.12,138.69,-35.0,22.31,82.72,-21.5,30.0,109.52,35.0,-1.75,116.16,35.0,-69.77,103.19,-24.5,-80.0,97.52,-24.5,-63.92,129.84,-1.0,-1.0,1.0,-1.0,1.0,-1.0,1.0,1.0,-1.0,1.0,-1.0,1.0,-1.0,-1.0,-1.0,1.0,-0.3554,-1.0,0.006,0.091,0.078,0.019,0.058,0.006,0.006,0.013,0.013,0.006,0.0,0.013,0.013,0.006,0.013,0.019,0.019,0.0,-0.6059,0.0537,-0.1979,-0.1549,0.1626,0.747,0.6059,-0.5031,0.8544,0.6059,-1.4481,0.2178,-0.2194,-1.7227,0.5415,-0.5323,-1.4818,1.0462,-0.0024,0.2789,0.2132,-0.2958,0.267,-0.2701,0.0,0.2998,-0.2541,0.0,0.2079,0.2778,-0.2792,-0.0,-0.2996,0.1901,-0.2682,0.1701,-2.1574,0.0569,-0.3852,-0.3129,0.2078,-1.0,-0.7976,1.0,-1.0,1.0,-1.0,1.0,1.0,-1.0,1.0,-1.0,1.0,-1.0,-1.0,-1.0,1.0,-0.1818,-1.0,0.0,0.0,0.0,0.0,0.0,0.0,0.0,0.0,0.0,0.3333,0.0,0.3333,0.0,0
4.98,tail,-26.28,3.62,-5.59,6.62,9.48,,0.0,0.0,1.001,-34.8,21.62,70.14,-12.04,28.21,116.98,34.8,-4.57,126.47,34.8,-64.34,96.06,-16.17,-79.8,106.96,-25.93,-68.38,138.43,,,,,,,,,,,,,,,,,,,,,,,,,,,,,,,,,,,,,0.0,0.0,0.0,0.0,0.0,0.0,0.0,0.0,0.0,0.0,0.0,0.0,0.0,0.0,0.0,0.0,0.0,0.0,,,,,,,,,,,,,,,,,,,,,,,,,,,,,,,,,,,,,,,,,,,,,,,,,,,,,,,,,,,,,,,,,,,,,,,,,
5.08,tail,-26.0,4.82,1.97,10.02,-5.97,,0.0,0.0,1.001,-34.8,16.61,69.87,-12.04,28.21,116.72,34.8,-2.81,126.47,34.8,-64.34,96.33,-16.17,-79.8,106.96,-25.49,-68.47,138.08,,,,,,,,,,,,,,,,,,,,,,,,,,,,,,,,,,,,,0.0,0.0,0.0,0.0,0.0,0.0,0.0,0.0,0.0,0.0,0.0,0.0,0.0,0.0,0.0,0.0,0.006,0.0,,,,,,,,,,,,,,,,,,,,,,,,,,,,,,,,,,,,,,,,,,,,,,,,,,,,,,,,,,,,,,,,,,,,,,,,,
5.18,tail,-26.04,5.15,-0.5,2.48,1.03,,0.0,0.0,1.001,-34.8,13.36,69.87,-12.04,28.21,116.81,34.8,-2.37,126.47,34.8,-64.34,96.33,-16.17,-79.8,106.96,-25.49,-68.64,138.08,,,,,,,,,,,,,,,,,,,,,,,,,,,,,,,,,,,,,0.0,0.0,0.0,0.0,0.0,0.0,0.0,0.0,0.0,0.0,0.0,0.0,0.0,0.0,0.0,0.0,0.0,0.0,,,,,,,,,,,,,,,,,,,,,,,,,,,,,,,,,,,,,,,,,,,,,,,,,,,,,,,,,,,,,,,,,,,,,,,,,
5.28,tail,-26.08,5.13,-0.37,-0.18,0.8,,0.0,0.0,1.001,-34.8,13.18,69.87,-12.04,28.21,116.81,34.8,-2.37,126.47,34.8,-64.34,96.33,-16.17,-79.8,106.96,-25.49,-68.64,138.08,,,,,,,,,,,,,,,,,,,,,,,,,,,,,,,,,,,,,0.0,0.0,0.0,0.0,0.0,0.0,0.0,0.0,0.0,0.0,0.0,0.0,0.0,0.0,0.0,0.0,0.0,0.0,,,,,,,,,,,,,,,,,,,,,,,,,,,,,,,,,,,,,,,,,,,,,,,,,,,,,,,,,,,,,,,,,,,,,,,,,
5.38,tail,-26.1,5.14,-0.23,0.03,0.47,,0.0,0.0,1.001,-34.8,13.18,69.87,-12.04,28.21,116.81,34.8,-2.37,126.47,34.8,-64.34,96.33,-16.17,-79.8,106.96,-25.49,-68.64,138.08,,,,,,,,,,,,,,,,,,,,,,,,,,,,,,,,,,,,,0.0,0.0,0.0,0.0,0.0,0.0,0.0,0.0,0.0,0.0,0.006,0.0,0.0,0.0,0.0,0.0,0.0,0.0,,,,,,,,,,,,,,,,,,,,,,,,,,,,,,,,,,,,,,,,,,,,,,,,,,,,,,,,,,,,,,,,,,,,,,,,,
5.48,tail,-26.12,5.16,-0.16,0.18,0.31,,0.0,0.0,1.001,-34.8,13.18,69.87,-12.04,28.21,116.81,34.8,-2.37,126.47,34.8,-64.34,96.33,-16.17,-79.8,106.96,-25.49,-68.64,138.08,,,,,,,,,,,,,,,,,,,,,,,,,,,,,,,,,,,,,0.0,0.0,0.0,0.0,0.0,0.0,0.0,0.0,0.0,0.0,0.0,0.0,0.0,0.0,0.0,0.0,0.0,0.0,,,,,,,,,,,,,,,,,,,,,,,,,,,,,,,,,,,,,,,,,,,,,,,,,,,,,,,,,,,,,,,,,,,,,,,,,
5.58,tail,-26.14,5.18,-0.23,0.2,0.29,,0.0,0.0,1.001,-34.8,13.18,69.87,-12.04,28.21,116.81,34.8,-2.37,126.47,34.8,-64.34,96.33,-16.17,-79.8,106.96,-25.49,-68.64,138.08,,,,,,,,,,,,,,,,,,,,,,,,,,,,,,,,,,,,,0.0,0.0,0.0,0.0,0.0,0.0,0.0,0.0,0.0,0.0,0.0,0.0,0.0,0.0,0.0,0.0,0.0,0.0,,,,,,,,,,,,,,,,,,,,,,,,,,,,,,,,,,,,,,,,,,,,,,,,,,,,,,,,,,,,,,,,,,,,,,,,,
5.68,tail,-26.15,5.18,-0.11,0.1,0.37,,0.0,0.0,1.001,-34.8,13.18,69.87,-12.04,28.21,116.81,34.8,-2.37,126.47,34.8,-64.34,96.33,-16.17,-79.8,106.96,-25.49,-68.64,138.08,,,,,,,,,,,,,,,,,,,,,,,,,,,,,,,,,,,,,0.0,0.0,0.0,0.0,0.0,0.0,0.0,0.0,0.0,0.0,0.0,0.0,0.0,0.0,0.0,0.0,0.0,0.0,,,,,,,,,,,,,,,,,,,,,,,,,,,,,,,,,,,,,,,,,,,,,,,,,,,,,,,,,,,,,,,,,,,,,,,,,
5.78,tail,-26.16,5.18,-0.16,0.01,0.35,,0.0,0.0,1.001,-34.8,13.18,69.87,-12.04,28.21,116.81,34.8,-2.37,126.47,34.8,-64.34,96.33,-16.17,-79.8,106.96,-25.49,-68.73,138.08,,,,,,,,,,,,,,,,,,,,,,,,,,,,,,,,,,,,,0.0,0.0,0.0,0.0,0.0,0.0,0.0,0.0,0.0,0.0,0.0,0.0,0.0,0.0,0.0,0.0,0.0,0.0,,,,,,,,,,,,,,,,,,,,,,,,,,,,,,,,,,,,,,,,,,,,,,,,,,,,,,,,,,,,,,,,,,,,,,,,,
5.88,tail,-26.18,5.19,-0.14,0.06,0.42,,0.0,0.0,1.001,-34.8,13.18,69.87,-12.04,28.21,116.81,34.8,-2.37,126.47,34.8,-64.34,96.33,-16.17,-79.8,106.96,-25.49,-68.73,138.08,,,,,,,,,,,,,,,,,,,,,,,,,,,,,,,,,,,,,0.0,0.0,0.0,0.0,0.0,0.0,0.0,0.0,0.0,0.0,0.0,0.0,0.0,0.0,0.0,0.0,0.0,0.0,,,,,,,,,,,,,,,,,,,,,,,,,,,,,,,,,,,,,,,,,,,,,,,,,,,,,,,,,,,,,,,,,,,,,,,,,
5.98,tail,-26.19,5.18,-0.17,-0.0,0.39,,0.0,0.0,1.001,-34.8,13.18,69.87,-12.04,28.21,116.81,34.8,-2.37,126.47,34.8,-64.34,96.33,-16.17,-79.8,106.96,-25.49,-68.73,138.08,,,,,,,,,,,,,,,,,,,,,,,,,,,,,,,,,,,,,0.0,0.0,0.0,0.0,0.0,0.0,0.0,0.0,0.0,0.0,0.0,0.0,0.0,0.0,0.0,0.0,0.0,0.0,,,,,,,,,,,,,,,,,,,,,,,,,,,,,,,,,,,,,,,,,,,,,,,,,,,,,,,,,,,,,,,,,,,,,,,,,
6.08,tail,-26.21,5.18,-0.17,-0.0,0.41,,0.0,0.0,1.001,-34.8,13.18,69.87,-12.04,28.21,116.81,34.8,-2.37,126.47,34.8,-64.34,96.33,-16.17,-79.8,106.96,-25.49,-68.73,138.08,,,,,,,,,,,,,,,,,,,,,,,,,,,,,,,,,,,,,0.0,0.0,0.0,0.0,0.0,0.0,0.0,0.0,0.0,0.0,0.0,0.0,0.0,0.0,0.0,0.0,0.0,0.0,,,,,,,,,,,,,,,,,,,,,,,,,,,,,,,,,,,,,,,,,,,,,,,,,,,,,,,,,,,,,,,,,,,,,,,,,
6.18,tail,-26.21,5.18,-0.11,0.02,0.38,,0.0,0.0,1.001,-34.8,13.18,69.87,-12.04,28.21,116.81,34.8,-2.37,126.47,34.8,-64.34,96.33,-16.17,-79.8,106.96,-25.49,-68.73,138.08,,,,,,,,,,,,,,,,,,,,,,,,,,,,,,,,,,,,,0.0,0.0,0.0,0.0,0.0,0.0,0.0,0.0,0.0,0.0,0.0,0.0,0.0,0.0,0.0,0.0,0.0,0.0,,,,,,,,,,,,,,,,,,,,,,,,,,,,,,,,,,,,,,,,,,,,,,,,,,,,,,,,,,,,,,,,,,,,,,,,,
6.28,tail,-26.23,5.17,-0.18,-0.02,0.43,,0.0,0.0,1.001,-34.8,13.18,69.87,-12.04,28.21,116.81,34.8,-2.37,126.47,34.8,-64.34,96.33,-16.17,-79.8,106.96,-25.49,-68.73,138.08,,,,,,,,,,,,,,,,,,,,,,,,,,,,,,,,,,,,,0.0,0.0,0.0,0.0,0.0,0.0,0.0,0.0,0.0,0.0,0.0,0.0,0.0,0.0,0.0,0.0,0.0,0.0,,,,,,,,,,,,,,,,,,,,,,,,,,,,,,,,,,,,,,,,,,,,,,,,,,,,,,,,,,,,,,,,,,,,,,,,,
6.38,tail,-26.25,5.18,-0.19,0.07,0.38,,0.0,0.0,1.001,-34.8,13.18,69.87,-12.04,28.21,116.81,34.8,-2.37,126.47,34.8,-64.34,96.33,-16.17,-79.8,106.96,-25.49,-68.73,138.08,,,,,,,,,,,,,,,,,,,,,,,,,,,,,,,,,,,,,0.0,0.0,0.0,0.0,0.0,0.0,0.0,0.0,0.0,0.0,0.0,0.0,0.0,0.0,0.0,0.0,0.0,0.0,,,,,,,,,,,,,,,,,,,,,,,,,,,,,,,,,,,,,,,,,,,,,,,,,,,,,,,,,,,,,,,,,,,,,,,,,
6.48,tail,-26.26,5.18,-0.13,0.08,0.39,,0.0,0.0,1.001,-34.8,13.18,69.87,-12.04,28.21,116.81,34.8,-2.37,126.47,34.8,-64.34,96.33,-16.17,-79.8,106.96,-25.49,-68.73,138.08,,,,,,,,,,,,,,,,,,,,,,,,,,,,,,,,,,,,,0.0,0.0,0.0,0.0,0.0,0.0,0.0,0.0,0.0,0.0,0.0,0.0,0.0,0.0,0.0,0.0,0.0,0.0,,,,,,,,,,,,,,,,,,,,,,,,,,,,,,,,,,,,,,,,,,,,,,,,,,,,,,,,,,,,,,,,,,,,,,,,,
6.58,tail,-26.26,5.17,-0.11,-0.02,0.38,,0.0,0.0,1.001,-34.8,13.18,69.87,-12.04,28.21,116.81,34.8,-2.37,126.47,34.8,-64.34,96.33,-16.17,-79.8,106.96,-25.49,-68.73,138.08,,,,,,,,,,,,,,,,,,,,,,,,,,,,,,,,,,,,,0.0,0.0,0.0,0.0,0.0,0.0,0.0,0.0,0.0,0.0,0.0,0.0,0.0,0.0,0.0,0.0,0.0,0.0,,,,,,,,,,,,,,,,,,,,,,,,,,,,,,,,,,,,,,,,,,,,,,,,,,,,,,,,,,,,,,,,,,,,,,,,,
