t_s,phase,roll_deg,pitch_deg,gyro_x_dps,gyro_y_dps,gyro_z_dps,height_ref_mm,vx_ref_mps,vy_ref_mps,max_cur_a,q0_deg,q1_deg,q2_deg,q3_deg,q4_deg,q5_deg,q6_deg,q7_deg,q8_deg,q9_deg,q10_deg,q11_deg,q12_deg,q13_deg,q14_deg,q15_deg,q16_deg,q17_deg,cmd0_deg,cmd1_deg,cmd2_deg,cmd3_deg,cmd4_deg,cmd5_deg,cmd6_deg,cmd7_deg,cmd8_deg,cmd9_deg,cmd10_deg,cmd11_deg,cmd12_deg,cmd13_deg,cmd14_deg,cmd15_deg,cmd16_deg,cmd17_deg,act0,act1,act2,act3,act4,act5,act6,act7,act8,act9,act10,act11,act12,act13,act14,act15,act16,act17,cur0_a,cur1_a,cur2_a,cur3_a,cur4_a,cur5_a,cur6_a,cur7_a,cur8_a,cur9_a,cur10_a,cur11_a,cur12_a,cur13_a,cur14_a,cur15_a,cur16_a,cur17_a,obs0,obs1,obs2,obs3,obs4,obs5,obs6,obs7,obs8,obs9,obs10,obs11,obs12,obs13,obs14,obs15,obs16,obs17,obs18,obs19,obs20,obs21,obs22,obs23,obs24,obs25,obs26,obs27,obs28,obs29,obs30,obs31,obs32,obs33,obs34,obs35,obs36,obs37,obs38,obs39,obs40,obs41,obs42,obs43,obs44,obs45,obs46,obs47,obs48,obs49,obs50,obs51,obs52,obs53,obs54,obs55,obs56,obs57,obs58,obs59,obs60,obs61,obs62,obs63,obs64,obs65,obs66,obs67,rot60_k
0.0,run,5.07,3.4,0.2,0.0,-0.56,0.0,0.0,0.0,0.026,0.0,19.25,79.37,0.26,16.61,78.57,-0.26,19.42,80.33,0.09,17.75,79.1,-0.18,19.34,80.24,0.18,17.67,79.98,-0.03,17.84,77.87,1.76,15.29,77.07,1.24,18.01,78.66,-1.41,16.25,77.6,1.32,17.75,78.57,1.59,16.34,78.22,-0.0008,0.3351,-0.0811,0.1334,0.4406,-0.3128,0.1641,-0.0821,-0.1982,-0.2259,0.5753,-0.0815,0.0697,-0.0308,-0.2548,0.4151,0.4367,-0.1729,0.0,0.0,0.006,0.006,0.0,0.013,0.006,0.013,0.006,0.019,0.006,0.013,0.006,0.013,0.026,0.013,0.0,0.019,0.0,0.0,0.0,0.0,-0.0031,0.0,0.0,0.0,0.0,0.0,0.0,0.0,0.0,0.0015,0.0031,0.0015,-0.0031,0.0,0.0,0.0,0.0,0.0,-0.0075,0.0,0.0,0.0,0.0,0.0,0.0,0.0,0.0,0.0037,0.0075,0.0037,-0.0075,0.0,0.0,0.0,-0.0015,-0.0113,-0.0009,0.0,0.0,0.0,0.0,0.0,0.0,0.0,0.0,0.0,0.0,0.0,0.0,0.0,0.0,0.0,0.0,0.0,0.0,0.0,0.0,0.0,0.0,0.0,0.0,0.0,0.0,0.0,
0.04,run,5.08,3.4,0.24,-0.05,2.77,0.0,0.0,0.0,0.026,0.0,19.25,79.1,0.53,16.35,78.22,-0.18,19.16,80.33,-0.44,17.67,78.66,0.09,18.9,80.24,0.53,17.58,79.98,-0.45,16.34,76.37,3.26,13.79,75.57,2.74,16.51,77.16,-2.14,14.75,76.1,2.82,16.25,77.07,3.09,14.84,76.72,-0.0129,0.5483,-0.2824,0.1647,0.5622,-0.4383,0.1782,0.1642,-0.1645,-0.0612,0.6183,-0.3988,0.1383,0.1338,-0.0233,0.3323,0.5797,-0.5145,0.0,0.0,0.006,0.006,0.0,0.013,0.006,0.013,0.006,0.019,0.006,0.013,0.006,0.013,0.026,0.013,0.0,0.019,0.0,-0.0015,0.0,0.0,-0.0031,0.0,0.0,-0.0015,0.0031,0.0,0.0,0.0,0.0,0.0015,0.0031,0.0015,-0.0031,0.0046,0.0,-0.0025,0.0,0.0,-0.0052,0.0,0.0,-0.0025,0.005,0.0,0.0,0.0,0.0,0.0026,0.0052,0.0026,-0.0052,0.0075,0.0012,0.0006,0.0035,0.0001,-0.0098,-0.0008,0.3351,-0.0811,0.1334,0.4406,-0.3128,0.1641,-0.0821,-0.1982,-0.2259,0.5753,-0.0815,0.0697,-0.0308,-0.2548,0.4151,0.4367,-0.1729,0.0,0.0,0.0,0.0,0.0,0.0,0.0,0.0,0.0,
0.08,run,5.65,3.6,16.29,4.92,12.38,0.0,0.0,0.0,0.026,0.0,18.54,78.49,1.05,15.73,77.26,0.44,18.19,80.07,-1.05,17.05,77.87,0.88,18.37,79.8,1.32,16.96,79.89,-0.29,14.84,74.87,4.76,12.29,74.07,4.24,15.01,75.66,-0.64,13.25,74.6,4.32,14.75,75.57,4.59,13.34,75.22,-0.0083,0.6065,-0.3483,0.1826,0.6353,-0.462,0.1984,0.1888,-0.0822,-0.0137,0.6354,-0.4375,0.1633,0.1846,-0.0762,0.2746,0.5616,-0.4967,0.0,0.0,0.006,0.006,0.0,0.013,0.006,0.013,0.006,0.019,0.006,0.013,0.006,0.013,0.026,0.013,0.0,0.019,0.0,-0.0015,-0.0046,0.0046,-0.0077,-0.0061,0.0015,-0.0061,0.0031,-0.0092,-0.0015,-0.0077,0.0046,-0.0061,0.0031,0.0077,-0.0046,0.0046,0.0,-0.0018,-0.0141,0.0141,-0.0177,-0.0188,0.0047,-0.0158,0.0035,-0.0281,-0.0047,-0.0234,0.0141,-0.0216,0.0037,0.0206,-0.0084,0.0053,0.0016,0.001,0.0043,-0.0009,0.0483,-0.0129,0.5483,-0.2824,0.1647,0.5622,-0.4383,0.1782,0.1642,-0.1645,-0.0612,0.6183,-0.3988,0.1383,0.1338,-0.0233,0.3323,0.5797,-0.5145,0.0,0.0,0.0,0.0,0.0,0.0,0.0,0.0,0.0,
0.12,run,5.57,3.27,-0.54,-6.88,15.96,0.0,0.0,0.0,0.149,-0.26,17.75,78.05,1.85,14.94,76.46,1.23,17.4,79.37,-1.67,16.26,76.99,1.67,17.49,78.93,2.2,16.17,79.45,-0.84,13.34,73.37,5.15,10.79,72.57,5.74,13.51,74.16,0.74,11.75,73.1,5.03,13.25,74.07,6.09,11.84,73.72,-0.0241,0.581,-0.2371,0.1472,0.6325,-0.3625,0.1868,0.2509,-0.0801,0.0211,0.6364,-0.3514,0.1437,0.2498,-0.1088,0.2366,0.5932,-0.4654,0.013,0.019,0.006,0.013,0.013,0.019,0.019,0.013,0.091,0.0,0.019,0.013,0.026,0.039,0.149,0.019,0.019,0.117,0.0,-0.0138,-0.0153,0.0138,-0.0184,-0.023,0.0123,-0.023,-0.0015,-0.0199,-0.0123,-0.0215,0.0184,-0.0153,-0.0046,0.0215,-0.0153,0.0031,0.0,-0.0467,-0.0497,0.044,-0.0522,-0.0757,0.0431,-0.0737,-0.0146,-0.0595,-0.0431,-0.0676,0.0611,-0.0493,-0.0259,0.0656,-0.0457,-0.002,0.0517,0.018,0.2843,0.0859,0.216,-0.0083,0.6065,-0.3483,0.1826,0.6353,-0.462,0.1984,0.1888,-0.0822,-0.0137,0.6354,-0.4375,0.1633,0.1846,-0.0762,0.2746,0.5616,-0.4967,0.0,0.0,0.0,0.0,0.0,0.0,0.0,0.0,0.0,
0.16,run,5.12,2.89,-11.11,-6.29,16.32,0.0,0.0,0.0,0.149,-0.53,16.79,76.64,2.72,14.15,75.23,2.37,16.26,78.49,-2.02,15.21,75.85,2.81,16.17,76.82,3.34,15.64,78.49,-0.86,11.84,71.87,4.15,9.29,71.07,4.86,12.01,72.66,-0.29,10.94,71.6,3.98,11.75,72.57,5.66,10.34,72.22,-0.0246,0.6077,-0.0861,0.1186,0.6149,-0.1851,0.1387,0.4255,-0.0372,-0.0082,0.6534,-0.1814,0.1136,0.4017,-0.0079,0.1617,0.5719,-0.2699,0.013,0.019,0.006,0.013,0.013,0.019,0.019,0.013,0.091,0.0,0.019,0.013,0.026,0.039,0.149,0.019,0.019,0.117,-0.0046,-0.0276,-0.023,0.0276,-0.0322,-0.0368,0.0261,-0.0368,-0.0138,-0.0307,-0.0261,-0.0368,0.0322,-0.0307,-0.0199,0.0368,-0.0291,-0.0046,-0.0173,-0.0845,-0.0636,0.0826,-0.0884,-0.1048,0.082,-0.1034,-0.0563,-0.082,-0.082,-0.1049,0.0946,-0.0921,-0.0757,0.1035,-0.0838,-0.0302,0.0442,-0.0105,-0.0094,-0.1201,0.2785,-0.0241,0.581,-0.2371,0.1472,0.6325,-0.3625,0.1868,0.2509,-0.0801,0.0211,0.6364,-0.3514,0.1437,0.2498,-0.1088,0.2366,0.5932,-0.4654,0.0,0.0,0.0,0.0,0.0,0.0,0.0,0.0,0.0,
0.2,run,6.15,2.2,24.62,-16.55,10.88,0.0,0.0,0.0,0.149,-0.88,15.56,75.5,3.43,13.01,74.0,3.43,14.94,77.43,-1.93,13.97,74.53,3.87,14.77,75.85,4.48,14.15,77.78,-0.43,10.34,73.37,2.65,8.27,72.57,3.36,11.3,74.16,-0.79,12.44,73.1,2.48,10.25,74.07,4.16,8.84,73.44,-0.0122,0.6275,0.2289,0.0617,0.605,0.1571,0.0501,0.6599,0.1291,-0.0226,0.693,0.1584,0.0469,0.6226,0.2099,0.0322,0.5761,0.0992,0.013,0.019,0.006,0.013,0.013,0.019,0.019,0.013,0.091,0.0,0.019,0.013,0.026,0.039,0.149,0.019,0.019,0.117,-0.0092,-0.0445,-0.0476,0.043,-0.046,-0.0583,0.046,-0.0568,-0.0291,-0.0368,-0.0445,-0.0568,0.0522,-0.0537,-0.0568,0.0568,-0.0383,-0.0215,-0.0293,-0.1224,-0.1365,0.1153,-0.1136,-0.1539,0.1321,-0.1471,-0.0969,-0.0804,-0.1264,-0.1482,0.1409,-0.1507,-0.191,0.1472,-0.0932,-0.0844,0.0049,-0.0443,-0.194,-0.1097,0.2849,-0.0246,0.6077,-0.0861,0.1186,0.6149,-0.1851,0.1387,0.4255,-0.0372,-0.0082,0.6534,-0.1814,0.1136,0.4017,-0.0079,0.1617,0.5719,-0.2699,0.0,0.0,0.0,0.0,0.0,0.0,0.0,0.0,0.0,
0.24,run,6.65,2.41,12.7,5.9,9.68,0.0,0.0,0.0,0.299,-0.62,14.33,74.18,4.31,11.43,72.77,4.39,13.54,76.46,-1.41,12.92,73.39,4.39,13.54,74.44,5.27,12.92,76.99,1.07,8.84,74.87,1.15,6.77,74.07,1.86,9.8,75.66,-0.94,13.94,74.6,0.98,11.75,75.57,2.66,10.34,74.94,0.0371,0.5736,0.3896,0.011,0.5726,0.3908,-0.0056,0.6322,0.2561,-0.027,0.7329,0.2871,-0.0022,0.6709,0.2554,0.0029,0.7074,0.3075,0.006,0.026,0.006,0.0,0.013,0.006,0.0,0.006,0.13,0.013,0.013,0.006,0.006,0.033,0.026,0.0,0.026,0.299,-0.0153,-0.066,-0.0675,0.0552,-0.066,-0.0798,0.0644,-0.0798,-0.0476,-0.0353,-0.066,-0.0798,0.0706,-0.0782,-0.0736,0.0767,-0.0644,-0.0337,-0.0436,-0.1663,-0.1704,0.1268,-0.1544,-0.1883,0.1616,-0.1893,-0.1369,-0.0505,-0.1691,-0.1901,0.1677,-0.1976,-0.197,0.1779,-0.1631,-0.1051,0.0953,-0.1042,0.4297,-0.2889,0.1899,-0.0122,0.6275,0.2289,0.0617,0.605,0.1571,0.0501,0.6599,0.1291,-0.0226,0.693,0.1584,0.0469,0.6226,0.2099,0.0322,0.5761,0.0992,0.0,0.0,0.0,0.0,0.0,0.0,0.0,0.0,0.0,
0.28,run,7.29,2.87,17.15,11.88,12.83,0.0,0.0,0.0,0.299,-0.26,12.92,72.77,4.75,10.63,71.89,5.01,12.48,75.59,-0.79,12.13,72.51,4.75,12.57,73.74,5.8,11.78,76.46,2.02,8.4,76.37,1.27,7.61,75.57,0.36,8.3,77.16,-0.77,15.23,76.1,-0.52,10.69,77.07,1.16,11.84,76.44,0.0577,0.6072,0.3249,0.0362,0.5929,0.3717,-0.0193,0.5748,0.284,-0.0221,0.7315,0.3048,-0.0163,0.649,0.2562,-0.012,0.7237,0.2988,0.006,0.026,0.006,0.0,0.013,0.006,0.0,0.006,0.13,0.013,0.013,0.006,0.006,0.033,0.026,0.0,0.026,0.299,-0.0107,-0.0874,-0.0905,0.0706,-0.0936,-0.1012,0.0813,-0.1043,-0.0644,-0.0261,-0.0844,-0.0997,0.0798,-0.0997,-0.0982,0.0905,-0.0859,-0.0476,-0.0133,-0.1969,-0.2055,0.1462,-0.2116,-0.2123,0.1764,-0.2245,-0.1591,-0.0009,-0.1874,-0.2078,0.1519,-0.2188,-0.2299,0.1763,-0.1947,-0.1253,0.1387,-0.0853,0.2216,0.1031,0.169,0.0371,0.5736,0.3896,0.011,0.5726,0.3908,-0.0056,0.6322,0.2561,-0.027,0.7329,0.2871,-0.0022,0.6709,0.2554,0.0029,0.7074,0.3075,0.0,0.0,0.0,0.0,0.0,0.0,0.0,0.0,0.0,
0.32,run,8.17,3.12,21.4,7.07,11.85,0.0,0.0,0.0,0.299,0.53,11.6,72.51,5.01,9.23,71.37,5.36,11.07,74.97,-0.79,11.51,71.89,4.66,11.43,72.69,6.15,10.99,76.03,2.13,8.26,77.87,1.29,6.34,77.07,-0.78,6.8,78.66,-0.72,14.87,77.6,-0.14,10.83,78.57,-0.25,13.34,77.94,0.0609,0.6048,0.3286,0.0367,0.5699,0.3834,-0.0222,0.5473,0.2867,-0.0204,0.7248,0.3056,-0.0039,0.6515,0.2578,-0.007,0.7401,0.2893,0.006,0.026,0.006,0.0,0.013,0.006,0.0,0.006,0.13,0.013,0.013,0.006,0.006,0.033,0.026,0.0,0.026,0.299,-0.0046,-0.112,-0.115,0.0782,-0.1074,-0.1166,0.092,-0.1227,-0.0798,-0.0153,-0.0982,-0.115,0.0859,-0.1166,-0.1104,0.0997,-0.1058,-0.0568,0.0137,-0.2298,-0.2358,0.1311,-0.1998,-0.2061,0.1637,-0.2262,-0.1688,0.0396,-0.1829,-0.2029,0.1293,-0.2164,-0.2069,0.1579,-0.211,-0.1222,0.1949,-0.0458,0.2994,0.2074,0.224,0.0577,0.6072,0.3249,0.0362,0.5929,0.3717,-0.0193,0.5748,0.284,-0.0221,0.7315,0.3048,-0.0163,0.649,0.2562,-0.012,0.7237,0.2988,0.0,0.0,0.0,0.0,0.0,0.0,0.0,0.0,0.0,
0.36,run,9.14,3.5,26.07,11.43,4.47,0.0,0.0,0.0,0.299,1.32,10.46,72.16,4.83,7.56,71.1,5.36,9.84,74.71,-0.79,11.34,71.72,4.13,10.72,72.77,5.54,10.37,75.59,2.09,7.9,79.37,1.07,5.28,78.57,-0.94,5.3,80.16,-0.82,14.78,79.1,0.01,10.86,80.07,-0.12,14.84,79.44,0.0598,0.5983,0.3386,0.0307,0.5506,0.4009,-0.0268,0.5322,0.294,-0.0235,0.7232,0.303,0.0003,0.6519,0.2586,-0.0033,0.7512,0.2914,0.0,0.019,0.006,0.019,0.0,0.0,0.013,0.019,0.084,0.0,0.006,0.0,0.013,0.006,0.0,0.0,0.039,0.247,0.0092,-0.135,-0.1197,0.0828,-0.1319,-0.1258,0.0982,-0.1473,-0.0905,-0.0153,-0.1089,-0.1258,0.0844,-0.1365,-0.1289,0.1058,-0.1197,-0.0644,0.0614,-0.2472,-0.1823,0.109,-0.2319,-0.1788,0.1376,-0.2504,-0.1585,0.0277,-0.1683,-0.1823,0.0848,-0.2263,-0.2139,0.1335,-0.1995,-0.1143,0.2715,-0.0239,0.3735,0.1233,0.2068,0.0609,0.6048,0.3286,0.0367,0.5699,0.3834,-0.0222,0.5473,0.2867,-0.0204,0.7248,0.3056,-0.0039,0.6515,0.2578,-0.007,0.7401,0.2893,0.0,0.0,0.0,0.0,0.0,0.0,0.0,0.0,0.0,
0.4,run,9.83,3.36,18.73,-2.94,-7.17,0.0,0.0,0.0,0.299,2.02,9.4,72.51,3.87,6.77,71.1,5.36,8.44,74.71,-0.79,11.34,71.89,3.25,10.46,72.77,4.83,10.2,75.59,2.03,7.81,80.87,0.66,4.61,80.07,-0.93,3.8,81.66,-0.63,14.2,80.6,0.32,10.66,81.57,0.15,16.34,80.94,0.058,0.5965,0.3373,0.0189,0.5383,0.4069,-0.0266,0.5101,0.3071,-0.018,0.7127,0.3036,0.0092,0.6484,0.2666,0.0044,0.7596,0.2916,0.0,0.019,0.006,0.019,0.0,0.0,0.013,0.019,0.084,0.0,0.006,0.0,0.013,0.006,0.0,0.0,0.039,0.247,0.023,-0.1549,-0.1258,0.0798,-0.1611,-0.1304,0.0982,-0.1687,-0.0951,-0.0153,-0.112,-0.1289,0.0752,-0.1488,-0.1273,0.0951,-0.1304,-0.0721,0.0948,-0.2479,-0.1507,0.0648,-0.2718,-0.1424,0.0963,-0.2559,-0.1282,0.0194,-0.1293,-0.1392,0.0248,-0.2045,-0.144,0.0531,-0.18,-0.1088,0.356,0.0095,0.455,0.1995,0.078,0.0598,0.5983,0.3386,0.0307,0.5506,0.4009,-0.0268,0.5322,0.294,-0.0235,0.7232,0.303,0.0003,0.6519,0.2586,-0.0033,0.7512,0.2914,0.0,0.0,0.0,0.0,0.0,0.0,0.0,0.0,0.0,
0.44,run,9.83,3.48,-0.28,1.7,-20.68,0.0,0.0,0.0,0.299,2.02,8.26,72.69,2.99,6.06,71.98,4.48,7.12,74.71,-0.79,11.95,72.33,2.2,10.63,73.56,3.87,10.2,75.59,1.6,7.17,82.37,-0.2,3.53,81.57,-0.86,3.4,83.16,-0.48,14.32,82.1,0.08,10.74,83.07,0.05,16.69,82.44,0.0457,0.585,0.3687,-0.0056,0.5187,0.4272,-0.0245,0.5164,0.3018,-0.0138,0.7149,0.3045,0.0023,0.6499,0.2478,0.0014,0.7579,0.3053,0.0,0.019,0.006,0.019,0.0,0.0,0.013,0.019,0.084,0.0,0.006,0.0,0.013,0.006,0.0,0.0,0.039,0.247,0.0353,-0.1733,-0.1197,0.0629,-0.1749,-0.1304,0.0982,-0.1933,-0.0951,-0.0153,-0.112,-0.1258,0.0598,-0.1534,-0.1273,0.0828,-0.1335,-0.0721,0.1123,-0.2425,-0.0825,-0.0178,-0.242,-0.0997,0.0674,-0.2711,-0.0898,0.0136,-0.0905,-0.0859,-0.0401,-0.1604,-0.1008,-0.0088,-0.1375,-0.0762,0.4164,-0.0025,0.3268,-0.0514,-0.1252,0.058,0.5965,0.3373,0.0189,0.5383,0.4069,-0.0266,0.5101,0.3071,-0.018,0.7127,0.3036,0.0092,0.6484,0.2666,0.0044,0.7596,0.2916,0.0,0.0,0.0,0.0,0.0,0.0,0.0,0.0,0.0,
0.48,run,9.85,3.65,-2.13,1.56,-30.15,0.0,0.0,0.0,0.299,1.76,7.91,73.48,2.11,5.19,72.86,3.34,5.8,74.88,-0.7,12.83,73.48,1.14,10.72,74.53,2.64,10.28,75.59,1.14,6.35,83.87,-1.16,4.1,83.07,-1.05,2.47,84.66,0.41,13.53,83.6,-0.48,10.59,84.57,-0.34,15.61,83.94,0.0327,0.57,0.3763,-0.033,0.5292,0.4156,-0.0299,0.4994,0.2975,0.0116,0.7005,0.337,-0.0138,0.6472,0.2307,-0.0098,0.7384,0.3197,0.006,0.006,0.013,0.033,0.0,0.019,0.026,0.013,0.0,0.0,0.0,0.006,0.006,0.0,0.019,0.006,0.0,0.006,0.0353,-0.1933,-0.1166,0.0476,-0.1871,-0.115,0.0828,-0.2163,-0.0951,-0.0153,-0.1012,-0.1181,0.0414,-0.1503,-0.1135,0.066,-0.1335,-0.0721,0.0786,-0.2446,-0.0462,-0.07,-0.2154,-0.0122,-0.0104,-0.2761,-0.0628,0.0095,-0.0231,-0.0314,-0.0972,-0.1008,-0.0187,-0.0695,-0.0962,-0.0533,0.4159,0.0073,-0.0049,0.0296,-0.361,0.0457,0.585,0.3687,-0.0056,0.5187,0.4272,-0.0245,0.5164,0.3018,-0.0138,0.7149,0.3045,0.0023,0.6499,0.2478,0.0014,0.7579,0.3053,0.0,0.0,0.0,0.0,0.0,0.0,0.0,0.0,0.0,
0.52,run,10.98,3.56,21.61,-6.09,-34.13,0.0,0.0,0.0,0.299,1.32,7.29,74.44,1.14,4.39,74.09,2.02,4.66,75.67,-0.26,13.54,74.53,0.44,10.72,75.67,1.41,10.99,75.94,0.83,5.45,85.37,-1.99,4.46,84.57,-1.03,1.98,86.16,0.98,13.05,85.1,-0.79,9.93,84.44,-0.55,15.48,85.44,0.0236,0.5535,0.3912,-0.057,0.5356,0.4167,-0.0294,0.4905,0.2984,0.028,0.6919,0.3454,-0.0225,0.6352,0.2287,-0.0157,0.736,0.3319,0.006,0.006,0.013,0.033,0.0,0.019,0.026,0.013,0.0,0.0,0.0,0.006,0.006,0.0,0.019,0.006,0.0,0.006,0.0307,-0.1994,-0.1028,0.0322,-0.2025,-0.0997,0.0629,-0.2393,-0.092,-0.0138,-0.0859,-0.0982,0.023,-0.1488,-0.0966,0.0445,-0.1319,-0.0721,0.0378,-0.1942,0.0193,-0.1064,-0.2082,0.0488,-0.0819,-0.2794,-0.0325,0.0124,0.0412,0.0527,-0.1369,-0.0648,0.05,-0.129,-0.0616,-0.0373,0.4177,0.0225,-0.0372,0.0273,-0.5262,0.0327,0.57,0.3763,-0.033,0.5292,0.4156,-0.0299,0.4994,0.2975,0.0116,0.7005,0.337,-0.0138,0.6472,0.2307,-0.0098,0.7384,0.3197,0.0,0.0,0.0,0.0,0.0,0.0,0.0,0.0,0.0,
0.56,run,11.9,3.43,23.11,-3.87,-26.8,0.0,0.0,0.0,0.299,0.97,6.59,75.85,0.09,3.69,75.5,0.97,3.52,76.82,0.26,13.97,76.03,-0.18,10.72,77.17,0.53,11.95,77.43,0.65,5.15,86.87,-2.23,3.48,86.07,-0.27,2.63,87.66,0.81,13.7,86.6,-0.69,9.82,85.65,-0.01,16.68,86.94,0.0187,0.5482,0.4027,-0.0637,0.5179,0.4311,-0.0078,0.5024,0.3057,0.0232,0.7037,0.3058,-0.0197,0.6331,0.243,-0.0002,0.7579,0.3266,0.006,0.006,0.013,0.033,0.0,0.019,0.026,0.013,0.0,0.0,0.0,0.006,0.006,0.0,0.019,0.006,0.0,0.006,0.023,-0.2102,-0.0859,0.0153,-0.2163,-0.0782,0.0399,-0.2592,-0.0782,-0.0061,-0.0736,-0.0798,0.0107,-0.1488,-0.0767,0.023,-0.1197,-0.066,-0.001,-0.1744,0.074,-0.135,-0.1952,0.1111,-0.1398,-0.267,0.0267,0.0362,0.0728,0.1028,-0.1398,-0.0454,0.1065,-0.1672,0.0008,-0.0041,0.5167,0.0142,0.3772,-0.1062,-0.5958,0.0236,0.5535,0.3912,-0.057,0.5356,0.4167,-0.0294,0.4905,0.2984,0.028,0.6919,0.3454,-0.0225,0.6352,0.2287,-0.0157,0.736,0.3319,0.0,0.0,0.0,0.0,0.0,0.0,0.0,0.0,0.0,
0.6,run,11.52,3.08,-12.1,-9.78,-25.7,0.0,0.0,0.0,0.299,0.7,5.89,77.17,-0.7,3.52,76.82,0.18,2.64,78.13,0.79,13.97,77.43,-0.62,10.11,78.57,-0.09,13.1,78.75,0.58,4.27,88.37,-2.74,3.17,87.57,0.16,2.31,89.16,1.1,13.64,88.1,-0.7,10.8,85.09,0.29,17.05,88.44,0.0165,0.5322,0.3973,-0.0783,0.5122,0.4345,0.0046,0.4965,0.3077,0.0315,0.7026,0.293,-0.02,0.6508,0.2363,0.0083,0.7645,0.3047,0.0,0.006,0.013,0.019,0.0,0.039,0.019,0.0,0.006,0.006,0.0,0.006,0.006,0.006,0.006,0.006,0.0,0.0,0.0169,-0.2224,-0.0614,-0.0031,-0.2286,-0.0537,0.0215,-0.2792,-0.0583,0.0031,-0.066,-0.0537,0.0,-0.1488,-0.0506,0.0077,-0.1028,-0.0399,-0.0246,-0.1699,0.1474,-0.1662,-0.1845,0.1734,-0.1695,-0.2646,0.0964,0.0612,0.0809,0.1736,-0.1397,-0.0317,0.1761,-0.1768,0.0663,0.0987,0.5968,0.0029,0.4033,-0.0676,-0.4677,0.0187,0.5482,0.4027,-0.0637,0.5179,0.4311,-0.0078,0.5024,0.3057,0.0232,0.7037,0.3058,-0.0197,0.6331,0.243,-0.0002,0.7579,0.3266,0.0,0.0,0.0,0.0,0.0,0.0,0.0,0.0,0.0,
0.64,run,11.93,2.32,8.7,-19.61,-18.39,0.0,0.0,0.0,0.299,0.7,5.36,78.57,-1.41,3.25,78.05,-0.35,2.2,79.54,0.88,13.97,78.84,-0.62,10.11,80.07,-0.44,14.33,80.16,0.4,2.77,89.87,-4.0,4.67,89.07,-0.41,0.81,89.95,1.59,13.87,89.6,-1.57,11.44,83.77,0.42,15.55,89.58,0.0115,0.491,0.3932,-0.1143,0.5416,0.3993,-0.0116,0.4588,0.2935,0.0453,0.7068,0.2962,-0.0448,0.6625,0.2209,0.0121,0.7307,0.2892,0.0,0.006,0.013,0.019,0.0,0.039,0.019,0.0,0.006,0.006,0.0,0.006,0.006,0.006,0.006,0.006,0.0,0.0,0.0123,-0.2347,-0.0383,-0.0169,-0.2316,-0.0307,0.0077,-0.2945,-0.0353,0.0123,-0.066,-0.0291,-0.0077,-0.1595,-0.0261,-0.0031,-0.0828,-0.0169,-0.0346,-0.1652,0.1899,-0.1684,-0.1407,0.2081,-0.1707,-0.243,0.1542,0.0775,0.0566,0.214,-0.1267,-0.0627,0.2158,-0.1643,0.1216,0.1558,0.5636,-0.0276,-0.2112,-0.1707,-0.4485,0.0165,0.5322,0.3973,-0.0783,0.5122,0.4345,0.0046,0.4965,0.3077,0.0315,0.7026,0.293,-0.02,0.6508,0.2363,0.0083,0.7645,0.3047,0.0,0.0,0.0,0.0,0.0,0.0,0.0,0.0,0.0,
0.68,run,11.79,1.26,-3.59,-26.61,-24.26,0.0,0.0,0.0,0.299,0.35,4.66,79.98,-1.93,3.08,79.37,-0.53,1.85,81.04,1.23,13.97,80.24,-0.88,10.37,81.39,-0.26,15.29,81.47,0.31,1.27,91.37,-4.19,4.14,90.57,0.4,1.66,88.45,1.14,14.45,88.1,-1.43,11.65,82.6,1.22,15.65,88.22,0.0088,0.4645,0.4036,-0.1197,0.5298,0.4129,0.0113,0.4846,0.2722,0.0326,0.7173,0.2465,-0.0409,0.6663,0.2071,0.035,0.739,0.2732,0.0,0.006,0.013,0.019,0.0,0.039,0.019,0.0,0.006,0.006,0.0,0.006,0.006,0.006,0.006,0.006,0.0,0.0,0.0123,-0.2439,-0.0138,-0.0291,-0.2362,-0.0092,-0.0015,-0.3022,-0.0107,0.0138,-0.066,-0.0046,-0.0077,-0.1595,0.0,-0.0092,-0.0614,0.0077,-0.0242,-0.1502,0.225,-0.1639,-0.1157,0.2263,-0.154,-0.1989,0.2,0.06,0.0396,0.2419,-0.0887,-0.0439,0.2489,-0.138,0.1657,0.2011,0.5993,-0.0935,0.1519,-0.3423,-0.321,0.0115,0.491,0.3932,-0.1143,0.5416,0.3993,-0.0116,0.4588,0.2935,0.0453,0.7068,0.2962,-0.0448,0.6625,0.2209,0.0121,0.7307,0.2892,0.0,0.0,0.0,0.0,0.0,0.0,0.0,0.0,0.0,
0.72,run,12.15,1.18,6.63,-2.22,-28.39,0.0,0.0,0.0,0.299,0.35,3.87,81.39,-2.72,3.08,80.68,-0.44,1.23,82.35,1.41,13.45,81.65,-1.32,10.81,82.79,0.35,16.0,82.97,0.39,-0.23,92.87,-4.95,5.15,92.07,0.23,1.59,86.95,1.46,15.18,86.6,-1.83,11.59,82.28,1.45,14.15,87.36,0.0111,0.4232,0.3949,-0.1413,0.5481,0.3909,0.0065,0.4834,0.2557,0.0417,0.7305,0.2116,-0.0521,0.6653,0.2033,0.0414,0.708,0.263,0.0,0.013,0.013,0.006,0.033,0.078,0.013,0.013,0.006,0.006,0.026,0.013,0.006,0.006,0.013,0.0,0.006,0.006,0.0061,-0.2562,0.0107,-0.0383,-0.2393,0.0138,-0.0046,-0.3083,0.0153,0.0199,-0.066,0.0199,-0.0123,-0.1549,0.023,-0.0061,-0.0445,0.0307,-0.0398,-0.1507,0.2488,-0.149,-0.0924,0.244,-0.1192,-0.1621,0.237,0.0648,0.0277,0.2606,-0.0792,-0.0136,0.2598,-0.0852,0.1787,0.2264,0.5876,-0.1857,-0.0626,-0.4645,-0.4234,0.0088,0.4645,0.4036,-0.1197,0.5298,0.4129,0.0113,0.4846,0.2722,0.0326,0.7173,0.2465,-0.0409,0.6663,0.2071,0.035,0.739,0.2732,0.0,0.0,0.0,0.0,0.0,0.0,0.0,0.0,0.0,
0.76,run,12.28,1.46,8.28,5.46,-19.57,0.0,0.0,0.0,0.299,0.35,2.72,82.88,-3.52,3.08,82.0,-0.35,1.32,83.58,1.41,14.59,82.97,-1.67,11.78,83.23,1.05,16.7,84.2,0.08,-1.73,94.37,-5.18,5.96,93.57,0.42,3.02,85.45,1.95,14.66,85.1,-1.97,13.09,80.78,1.54,15.17,85.86,0.0022,0.4201,0.3823,-0.148,0.5629,0.3839,0.0119,0.5095,0.2309,0.0557,0.7211,0.2284,-0.0562,0.7062,0.1568,0.0441,0.7304,0.229,0.0,0.013,0.013,0.006,0.033,0.078,0.013,0.013,0.006,0.006,0.026,0.013,0.006,0.006,0.013,0.0,0.006,0.006,0.0061,-0.27,0.0353,-0.0522,-0.2393,0.0368,-0.0031,-0.3191,0.0383,0.023,-0.0752,0.0445,-0.0199,-0.1473,0.0476,0.0046,-0.0322,0.0568,-0.0278,-0.1576,0.2668,-0.1564,-0.0647,0.2576,-0.0777,-0.154,0.2528,0.057,-0.0153,0.2751,-0.0844,0.0194,0.2745,-0.0191,0.1714,0.2569,0.6184,-0.1927,0.1158,-0.0387,-0.4956,0.0111,0.4232,0.3949,-0.1413,0.5481,0.3909,0.0065,0.4834,0.2557,0.0417,0.7305,0.2116,-0.0521,0.6653,0.2033,0.0414,0.708,0.263,0.0,0.0,0.0,0.0,0.0,0.0,0.0,0.0,0.0,
0.8,run,12.23,1.48,-0.49,-1.87,-9.91,0.0,0.0,0.0,0.299,0.26,1.76,84.2,-4.22,3.43,83.32,-0.18,1.49,84.55,1.76,14.41,84.38,-1.93,11.51,84.02,1.41,16.88,85.52,-0.06,-2.56,95.05,-5.35,5.98,95.07,0.42,3.68,83.95,2.29,14.11,83.73,-2.2,14.59,79.28,1.47,15.44,84.36,-0.0017,0.4081,0.3535,-0.1529,0.5632,0.379,0.012,0.5215,0.219,0.0654,0.711,0.2204,-0.0628,0.7434,0.145,0.0421,0.7353,0.2017,0.0,0.013,0.013,0.006,0.033,0.078,0.013,0.013,0.006,0.006,0.026,0.013,0.006,0.006,0.013,0.0,0.006,0.006,0.0061,-0.2899,0.0614,-0.066,-0.2393,0.0598,-0.0015,-0.3175,0.0598,0.023,-0.0552,0.0675,-0.0261,-0.1304,0.0552,0.0169,-0.0199,0.0782,-0.0195,-0.1853,0.2848,-0.1614,-0.0453,0.2668,-0.0486,-0.102,0.2576,0.0399,0.0642,0.279,-0.0821,0.077,0.221,0.0327,0.1661,0.2605,0.6297,-0.1684,0.1444,0.0953,-0.3416,0.0022,0.4201,0.3823,-0.148,0.5629,0.3839,0.0119,0.5095,0.2309,0.0557,0.7211,0.2284,-0.0562,0.7062,0.1568,0.0441,0.7304,0.229,0.0,0.0,0.0,0.0,0.0,0.0,0.0,0.0,0.0,
0.84,run,12.24,1.74,4.86,4.85,-0.39,0.0,0.0,0.0,0.299,-0.18,0.35,85.61,-4.66,3.87,84.64,0.09,2.02,84.99,1.76,14.85,85.25,-2.11,12.3,84.2,1.58,16.88,86.4,0.03,-3.53,93.55,-5.52,6.2,95.85,0.35,2.67,83.86,2.12,14.12,82.27,-2.25,16.09,77.78,1.66,14.39,82.86,0.0008,0.3904,0.3347,-0.1576,0.5673,0.363,0.01,0.503,0.2219,0.0605,0.7113,0.2032,-0.0643,0.7568,0.1502,0.0475,0.7162,0.1927,0.006,0.013,0.013,0.019,0.084,0.136,0.0,0.019,0.006,0.006,0.006,0.006,0.006,0.006,0.052,0.0,0.019,0.0,0.0046,-0.3068,0.0844,-0.0782,-0.2332,0.0828,0.0015,-0.3145,0.0767,0.0291,-0.0583,0.092,-0.0307,-0.135,0.069,0.023,-0.0169,0.1012,-0.0194,-0.193,0.2856,-0.159,-0.0087,0.2731,-0.0225,-0.0599,0.2436,0.0509,0.0334,0.2874,-0.0748,0.0366,0.2065,0.0459,0.1278,0.2687,0.626,-0.1669,-0.0085,-0.0326,-0.173,-0.0017,0.4081,0.3535,-0.1529,0.5632,0.379,0.012,0.5215,0.219,0.0654,0.711,0.2204,-0.0628,0.7434,0.145,0.0421,0.7353,0.2017,0.0,0.0,0.0,0.0,0.0,0.0,0.0,0.0,0.0,
0.88,run,12.06,2.13,-0.52,7.94,0.17,0.0,0.0,0.0,0.299,-0.18,-0.53,86.92,-4.83,4.13,85.96,0.09,2.46,85.96,2.2,15.03,85.96,-2.2,13.1,84.2,1.58,16.44,87.19,-0.14,-3.44,92.65,-5.48,6.3,95.91,0.59,3.31,83.29,2.06,13.51,83.31,-2.2,17.59,77.22,1.82,14.47,81.36,-0.004,0.3919,0.3253,-0.1566,0.569,0.3637,0.0169,0.5147,0.2152,0.0587,0.7003,0.2154,-0.0629,0.7773,0.1438,0.0519,0.7176,0.1861,0.006,0.013,0.013,0.019,0.084,0.136,0.0,0.019,0.006,0.006,0.006,0.006,0.006,0.006,0.052,0.0,0.019,0.0,-0.0031,-0.3313,0.1089,-0.0859,-0.2255,0.1058,0.0061,-0.3053,0.0844,0.0291,-0.0506,0.1074,-0.0337,-0.1212,0.0721,0.0261,-0.0169,0.1166,-0.0423,-0.2271,0.2919,-0.14,0.0227,0.2774,0.0015,-0.0074,0.1993,0.0356,0.0521,0.2586,-0.0638,0.0774,0.156,0.0437,0.0895,0.2456,0.6265,-0.1444,0.0849,0.0847,-0.0068,0.0008,0.3904,0.3347,-0.1576,0.5673,0.363,0.01,0.503,0.2219,0.0605,0.7113,0.2032,-0.0643,0.7568,0.1502,0.0475,0.7162,0.1927,0.0,0.0,0.0,0.0,0.0,0.0,0.0,0.0,0.0,
0.92,run,12.0,2.38,0.79,4.66,-1.3,0.0,0.0,0.0,0.299,-0.26,-1.49,88.42,-4.83,4.22,87.28,0.09,2.72,86.31,2.2,14.5,86.4,-2.2,14.15,83.5,1.67,15.82,87.63,-0.14,-3.11,91.82,-5.53,7.06,94.64,0.37,2.89,84.3,2.15,13.53,83.89,-2.19,18.07,78.72,1.6,13.99,81.0,-0.0041,0.3981,0.3155,-0.1581,0.5829,0.3487,0.0107,0.5071,0.227,0.0613,0.7006,0.2222,-0.0625,0.783,0.1622,0.0457,0.709,0.1883,0.006,0.013,0.013,0.019,0.084,0.136,0.0,0.019,0.006,0.006,0.006,0.006,0.006,0.006,0.052,0.0,0.019,0.0,-0.0031,-0.3467,0.1319,-0.089,-0.2209,0.1289,0.0061,-0.2976,0.1012,0.0368,-0.0476,0.1197,-0.0353,-0.1074,0.0721,0.0261,-0.0245,0.1304,-0.0296,-0.2165,0.2907,-0.1095,0.0331,0.2805,0.001,0.0236,0.2029,0.0537,0.048,0.2271,-0.0504,0.106,0.1092,0.0306,0.0338,0.2237,0.6112,-0.1101,-0.009,0.1385,0.003,-0.004,0.3919,0.3253,-0.1566,0.569,0.3637,0.0169,0.5147,0.2152,0.0587,0.7003,0.2154,-0.0629,0.7773,0.1438,0.0519,0.7176,0.1861,0.0,0.0,0.0,0.0,0.0,0.0,0.0,0.0,0.0,
0.96,run,11.85,2.63,-3.24,4.93,-3.35,0.0,0.0,0.0,0.299,-0.35,-2.46,89.65,-4.83,4.39,88.77,0.09,2.81,86.4,2.11,14.06,86.4,-2.2,15.38,82.44,1.76,15.38,87.71,-0.25,-2.99,92.32,-5.63,7.09,94.7,0.28,2.87,85.22,2.15,13.72,84.27,-2.09,17.86,80.22,1.52,14.17,81.74,-0.007,0.4002,0.3214,-0.1609,0.5834,0.3494,0.0079,0.5068,0.2379,0.0615,0.7041,0.2267,-0.0596,0.7793,0.1811,0.0434,0.7121,0.1969,0.0,0.006,0.006,0.026,0.169,0.136,0.0,0.006,0.006,0.0,0.0,0.006,0.0,0.019,0.065,0.006,0.033,0.033,-0.0046,-0.3636,0.158,-0.089,-0.2194,0.1519,0.0061,-0.293,0.1074,0.0368,-0.0568,0.1273,-0.0353,-0.089,0.0598,0.0276,-0.0353,0.1381,-0.0265,-0.2148,0.3012,-0.0767,0.0289,0.2826,0.0007,0.0338,0.165,0.0376,-0.0009,0.1877,-0.0353,0.1432,0.0305,0.0271,-0.0166,0.1854,0.6054,-0.0886,0.0137,0.0813,-0.0227,-0.0041,0.3981,0.3155,-0.1581,0.5829,0.3487,0.0107,0.5071,0.227,0.0613,0.7006,0.2222,-0.0625,0.783,0.1622,0.0457,0.709,0.1883,0.0,0.0,0.0,0.0,0.0,0.0,0.0,0.0,0.0,
1.0,run,11.79,2.98,-1.08,8.67,-0.46,-0.0,0.0,0.0,0.299,-0.35,-2.99,90.7,-5.01,4.48,90.18,0.09,2.64,86.4,2.11,13.97,85.96,-2.2,16.35,81.3,1.58,15.03,87.71,-0.29,-2.51,92.32,-5.66,7.41,94.18,0.1,2.83,86.24,2.21,14.08,85.3,-2.11,17.74,81.72,1.36,14.03,82.36,-0.0082,0.4089,0.3214,-0.1616,0.5894,0.3433,0.0028,0.5061,0.2499,0.0632,0.7105,0.2388,-0.0604,0.7771,0.2068,0.0388,0.7096,0.2042,0.0,0.006,0.006,0.026,0.169,0.136,0.0,0.006,0.006,0.0,0.0,0.006,0.0,0.019,0.065,0.006,0.033,0.033,-0.0061,-0.3804,0.1795,-0.089,-0.2163,0.1779,0.0061,-0.2915,0.1089,0.0353,-0.0644,0.1273,-0.0353,-0.0675,0.0414,0.0291,-0.043,0.1396,-0.0243,-0.2135,0.2913,-0.0537,0.0317,0.2955,0.0005,0.0294,0.1212,0.0206,-0.0293,0.1314,-0.0247,0.1806,-0.0476,0.0247,-0.0403,0.1355,0.5922,-0.0669,-0.0566,0.086,-0.0584,-0.007,0.4002,0.3214,-0.1609,0.5834,0.3494,0.0079,0.5068,0.2379,0.0615,0.7041,0.2267,-0.0596,0.7793,0.1811,0.0434,0.7121,0.1969,0.0,0.0,-0.0,0.0,0.0,0.0,0.0,0.0,0.0,
1.04,run,11.66,2.97,-4.63,-0.61,-1.56,-0.4,0.0,0.0,0.299,-0.35,-3.08,91.32,-5.1,4.83,91.49,0.09,2.64,86.22,2.11,13.97,85.17,-2.2,17.05,80.42,1.49,14.85,87.63,-0.45,-2.17,92.9,-5.52,7.28,95.1,0.13,3.1,87.1,2.23,13.76,86.8,-2.14,18.03,83.22,1.18,14.11,83.43,-0.0128,0.4151,0.3282,-0.1576,0.5869,0.3541,0.0036,0.5109,0.26,0.0637,0.7047,0.265,-0.0611,0.7824,0.2172,0.0336,0.7111,0.2169,0.0,0.006,0.006,0.026,0.169,0.136,0.0,0.006,0.006,0.0,0.0,0.006,0.0,0.019,0.065,0.006,0.033,0.033,-0.0061,-0.3896,0.1979,-0.092,-0.2148,0.2025,0.0061,-0.2945,0.1089,0.0353,-0.066,0.1197,-0.0353,-0.0506,0.0215,0.0261,-0.0491,0.1396,-0.017,-0.184,0.2729,-0.0491,0.028,0.2989,0.0004,0.0091,0.0849,0.0144,-0.0263,0.0632,-0.0173,0.1897,-0.1081,0.0058,-0.0512,0.0948,0.5876,-0.036,-0.0189,0.1513,-0.0079,-0.0082,0.4089,0.3214,-0.1616,0.5894,0.3433,0.0028,0.5061,0.2499,0.0632,0.7105,0.2388,-0.0604,0.7771,0.2068,0.0388,0.7096,0.2042,0.0,0.0,-0.0072,0.0,0.0,0.0,0.0,0.0,0.0,
1.08,run,11.54,2.82,-4.36,-4.45,-1.39,-0.7,0.0,0.0,0.299,-0.26,-2.99,92.11,-5.1,4.92,92.55,0.09,2.72,85.78,2.11,13.97,84.9,-2.2,17.4,79.89,1.32,14.85,87.1,-0.5,-2.64,93.73,-5.65,6.7,95.1,-0.1,2.76,87.78,2.2,13.87,87.64,-2.24,17.24,84.4,1.11,13.4,84.45,-0.0142,0.4065,0.338,-0.1613,0.5764,0.3541,-0.0028,0.5048,0.268,0.0629,0.7066,0.2663,-0.0641,0.7681,0.2283,0.0317,0.6981,0.2288,0.006,0.006,0.006,0.013,0.104,0.111,0.006,0.006,0.0,0.0,0.0,0.006,0.0,0.013,0.019,0.006,0.026,0.136,-0.0061,-0.3912,0.2086,-0.0936,-0.2086,0.2255,0.0061,-0.2945,0.1058,0.0353,-0.066,0.1058,-0.0353,-0.0383,0.0061,0.0245,-0.0522,0.1381,-0.0119,-0.1346,0.2314,-0.0401,0.0426,0.2956,0.0002,0.0063,0.0479,0.0101,-0.0184,-0.0076,-0.0121,0.1789,-0.1333,-0.0017,-0.0474,0.0606,0.576,-0.0372,-0.0807,-0.0107,-0.0273,-0.0128,0.4151,0.3282,-0.1576,0.5869,0.3541,0.0036,0.5109,0.26,0.0637,0.7047,0.265,-0.0611,0.7824,0.2172,0.0336,0.7111,0.2169,0.0,0.0,-0.0144,0.0,0.0,0.0,0.0,0.0,0.0,
1.12,run,11.52,2.77,-1.53,-1.6,-3.13,-1.1,0.0,0.0,0.299,-0.44,-2.64,92.72,-5.19,4.92,93.34,0.09,2.72,85.78,2.11,13.97,84.81,-2.2,17.58,79.8,1.23,14.85,86.4,-0.55,-3.14,94.34,-5.74,6.37,95.44,-0.08,2.8,87.64,2.21,13.83,88.19,-2.34,16.83,84.35,1.2,12.98,85.5,-0.0157,0.3975,0.3452,-0.1639,0.5704,0.3581,-0.0024,0.5054,0.2663,0.0631,0.7061,0.2728,-0.0668,0.7606,0.2276,0.0342,0.6905,0.2412,0.006,0.006,0.006,0.013,0.104,0.111,0.006,0.006,0.0,0.0,0.0,0.006,0.0,0.013,0.019,0.006,0.026,0.136,-0.0046,-0.3896,0.2224,-0.0936,-0.2071,0.2439,0.0061,-0.293,0.0982,0.0353,-0.066,0.1012,-0.0353,-0.0322,-0.0031,0.0215,-0.0522,0.1289,-0.0026,-0.0884,0.2137,-0.0281,0.0356,0.276,0.0002,0.0102,0.0048,0.0071,-0.0129,-0.0226,-0.0085,0.1482,-0.1278,-0.0127,-0.0332,0.0079,0.5655,-0.0497,-0.0761,-0.0776,-0.0243,-0.0142,0.4065,0.338,-0.1613,0.5764,0.3541,-0.0028,0.5048,0.268,0.0629,0.7066,0.2663,-0.0641,0.7681,0.2283,0.0317,0.6981,0.2288,0.0,0.0,-0.0216,0.0,0.0,0.0,0.0,0.0,0.0,
1.16,run,11.47,2.68,-1.43,-2.74,2.56,-1.4,0.0,0.0,0.299,-0.53,-2.55,93.25,-5.19,4.92,93.87,0.09,2.64,86.22,2.11,13.97,85.17,-2.2,17.14,80.16,1.32,14.5,86.13,-0.65,-3.48,94.84,-5.76,6.21,95.9,-0.02,2.91,87.26,2.28,13.69,89.12,-2.46,16.76,83.49,1.2,13.03,86.17,-0.0185,0.3914,0.351,-0.1647,0.5675,0.3635,-0.0006,0.5074,0.2619,0.0652,0.7034,0.2838,-0.0704,0.7592,0.2175,0.0342,0.6915,0.2491,0.006,0.006,0.006,0.013,0.104,0.111,0.006,0.006,0.0,0.0,0.0,0.006,0.0,0.013,0.019,0.006,0.026,0.136,-0.0077,-0.3835,0.2332,-0.0951,-0.2071,0.2577,0.0061,-0.293,0.0982,0.0353,-0.066,0.0997,-0.0353,-0.0291,-0.0046,0.0199,-0.0522,0.1166,-0.0132,-0.039,0.1897,-0.0254,0.0249,0.2447,0.0001,0.0071,0.0033,0.0049,-0.009,-0.0215,-0.0059,0.1152,-0.0952,-0.0146,-0.0232,-0.0402,0.5638,-0.054,-0.0266,-0.0279,-0.0546,-0.0157,0.3975,0.3452,-0.1639,0.5704,0.3581,-0.0024,0.5054,0.2663,0.0631,0.7061,0.2728,-0.0668,0.7606,0.2276,0.0342,0.6905,0.2412,0.0,0.0,-0.0288,0.0,0.0,0.0,0.0,0.0,0.0,
1.2,run,11.36,2.47,-2.35,-5.4,3.32,-1.8,0.0,0.0,0.299,-0.53,-2.55,93.87,-5.19,4.92,94.22,0.09,2.72,86.84,2.11,13.97,86.31,-2.37,16.7,80.95,1.32,14.15,86.04,-0.59,-4.31,95.17,-5.68,5.86,96.37,0.04,2.53,87.03,2.09,13.62,89.17,-2.41,16.69,82.58,1.35,12.64,86.39,-0.017,0.3761,0.3549,-0.1622,0.5611,0.3691,0.0011,0.5006,0.2592,0.0596,0.7022,0.2843,-0.0688,0.758,0.2068,0.0385,0.6844,0.2517,0.0,0.026,0.006,0.013,0.033,0.175,0.0,0.0,0.006,0.006,0.006,0.006,0.0,0.006,0.0,0.0,0.052,0.169,-0.0092,-0.382,0.2424,-0.0951,-0.2071,0.2669,0.0061,-0.2945,0.1058,0.0353,-0.066,0.1058,-0.0353,-0.0368,0.0015,0.0215,-0.0583,0.112,-0.015,-0.0216,0.1673,-0.0178,0.0174,0.2058,0.0001,-0.0008,0.0311,0.0035,-0.0063,0.008,-0.0042,0.0519,-0.0436,-0.0045,-0.0393,-0.0454,0.5594,-0.0622,-0.0249,-0.0478,0.0447,-0.0185,0.3914,0.351,-0.1647,0.5675,0.3635,-0.0006,0.5074,0.2619,0.0652,0.7034,0.2838,-0.0704,0.7592,0.2175,0.0342,0.6915,0.2491,0.0,0.0,-0.036,0.0,0.0,0.0,0.0,0.0,0.0,
1.24,run,11.36,2.45,1.09,-0.74,-1.07,-2.2,0.0,0.0,0.299,-0.53,-3.08,94.57,-5.19,4.92,94.57,0.09,2.46,87.28,2.11,13.97,87.36,-2.37,16.52,81.83,1.32,13.89,86.04,-0.55,-5.42,95.46,-5.87,5.44,96.63,-0.03,2.27,86.32,2.06,13.46,88.82,-2.35,16.35,81.63,1.51,11.95,86.75,-0.0156,0.356,0.3583,-0.1677,0.5534,0.3721,-0.0007,0.4958,0.2508,0.0589,0.6993,0.2803,-0.0671,0.7518,0.1957,0.043,0.6718,0.2559,0.0,0.026,0.006,0.013,0.033,0.175,0.0,0.0,0.006,0.006,0.006,0.006,0.0,0.006,0.0,0.0,0.052,0.169,-0.0092,-0.382,0.2531,-0.0951,-0.2071,0.273,0.0061,-0.293,0.1166,0.0353,-0.066,0.1258,-0.0383,-0.0445,0.0153,0.0215,-0.0644,0.1104,-0.0105,-0.0151,0.1575,-0.0124,0.0122,0.1671,0.0001,0.0052,0.0621,0.0024,-0.0044,0.0805,-0.0144,0.0075,0.0213,-0.0031,-0.0506,-0.0376,0.55,-0.0803,-0.041,-0.0943,0.0579,-0.017,0.3761,0.3549,-0.1622,0.5611,0.3691,0.0011,0.5006,0.2592,0.0596,0.7022,0.2843,-0.0688,0.758,0.2068,0.0385,0.6844,0.2517,0.0,0.0,-0.0432,0.0,0.0,0.0,0.0,0.0,0.0,
1.28,run,11.26,2.46,-1.4,-0.08,-2.71,-2.5,0.0,0.0,0.299,-0.53,-3.69,94.92,-5.19,4.92,94.83,0.09,2.37,87.28,2.11,13.89,88.24,-2.37,16.26,82.27,1.32,13.71,86.04,-0.67,-6.07,96.15,-6.02,5.22,96.88,-0.0,2.1,85.62,2.23,13.1,89.48,-2.45,15.95,80.25,1.52,11.85,87.01,-0.0191,0.3441,0.3665,-0.1721,0.5495,0.3751,-0.0001,0.4927,0.2425,0.0636,0.6928,0.2881,-0.0699,0.7446,0.1795,0.0434,0.67,0.259,0.0,0.026,0.006,0.013,0.033,0.175,0.0,0.0,0.006,0.006,0.006,0.006,0.0,0.006,0.0,0.0,0.052,0.169,-0.0092,-0.3912,0.2654,-0.0951,-0.2071,0.2792,0.0061,-0.2976,0.1243,0.0353,-0.066,0.1442,-0.0383,-0.0476,0.0307,0.0215,-0.069,0.1104,-0.0074,-0.043,0.1535,-0.0087,0.0085,0.1386,0.0,-0.0126,0.0705,0.0017,-0.0031,0.1212,-0.0101,-0.0056,0.069,-0.0022,-0.0516,-0.0263,0.55,-0.0822,0.0191,-0.013,-0.0187,-0.0156,0.356,0.3583,-0.1677,0.5534,0.3721,-0.0007,0.4958,0.2508,0.0589,0.6993,0.2803,-0.0671,0.7518,0.1957,0.043,0.6718,0.2559,0.0,0.0,-0.0504,0.0,0.0,0.0,0.0,0.0,0.0,
1.32,run,11.19,2.65,-0.37,4.07,-3.19,-2.9,0.0,0.0,0.299,-0.62,-4.39,95.36,-5.45,4.83,95.19,0.09,2.11,87.19,2.11,13.62,88.86,-2.37,15.91,82.53,1.49,13.27,86.22,-0.76,-6.86,96.71,-6.16,4.84,97.0,-0.14,1.56,85.31,2.31,12.68,90.25,-2.57,15.5,79.32,1.6,11.24,87.27,-0.0217,0.3299,0.373,-0.176,0.5426,0.3765,-0.0039,0.4829,0.239,0.066,0.6851,0.297,-0.0733,0.7364,0.1685,0.0456,0.6589,0.262,0.0,0.013,0.006,0.006,0.006,0.182,0.0,0.006,0.013,0.006,0.013,0.006,0.006,0.0,0.019,0.0,0.052,0.0,-0.0092,-0.4019,0.2715,-0.0951,-0.2071,0.2838,0.0061,-0.2991,0.1243,0.0353,-0.0675,0.1595,-0.0383,-0.0522,0.0383,0.0215,-0.0721,0.1104,-0.0052,-0.0699,0.1302,-0.0061,0.006,0.1141,0.0,-0.0145,0.0494,0.0012,-0.0078,0.1417,-0.0071,-0.0209,0.0767,-0.0015,-0.0475,-0.0184,0.541,-0.0814,-0.0244,-0.0014,-0.0474,-0.0191,0.3441,0.3665,-0.1721,0.5495,0.3751,-0.0001,0.4927,0.2425,0.0636,0.6928,0.2881,-0.0699,0.7446,0.1795,0.0434,0.67,0.259,0.0,0.0,-0.0576,0.0,0.0,0.0,0.0,0.0,0.0,
1.36,run,11.33,2.99,3.55,6.7,-0.61,-3.2,0.0,0.0,0.299,-0.7,-5.36,95.98,-5.54,4.31,95.62,0.09,1.85,86.48,2.11,13.27,89.65,-2.46,15.56,82.18,1.49,12.74,87.1,-0.94,-7.25,97.69,-6.07,4.61,97.35,-0.15,0.98,85.07,2.24,12.2,91.75,-2.68,15.07,77.82,1.62,11.06,87.74,-0.027,0.3226,0.3845,-0.1735,0.5383,0.3806,-0.0043,0.4724,0.2361,0.064,0.6763,0.3159,-0.0766,0.7285,0.1501,0.0464,0.6556,0.2675,0.0,0.013,0.006,0.006,0.006,0.182,0.0,0.006,0.013,0.006,0.013,0.006,0.006,0.0,0.019,0.0,0.052,0.0,-0.0107,-0.4142,0.2792,-0.0997,-0.2086,0.2899,0.0061,-0.3037,0.1227,0.0353,-0.0721,0.1703,-0.0383,-0.0583,0.043,0.0245,-0.0798,0.1135,-0.0094,-0.0951,0.12,-0.0216,-0.0016,0.1029,0.0,-0.0274,0.0288,0.0008,-0.0228,0.1396,-0.005,-0.0377,0.071,0.0105,-0.0621,-0.0013,0.5352,-0.0651,-0.0065,0.071,-0.0556,-0.0217,0.3299,0.373,-0.176,0.5426,0.3765,-0.0039,0.4829,0.239,0.066,0.6851,0.297,-0.0733,0.7364,0.1685,0.0456,0.6589,0.262,0.0,0.0,-0.0648,0.0,0.0,0.0,0.0,0.0,0.0,
1.4,run,11.45,2.97,3.94,-2.2,0.64,-3.6,0.0,0.0,0.299,-0.88,-6.06,96.42,-5.62,4.13,95.71,0.09,1.49,85.87,2.2,13.01,90.09,-2.55,15.29,81.56,1.49,12.39,87.63,-1.12,-7.57,98.67,-5.88,4.06,98.53,-0.06,0.39,85.17,1.93,11.57,93.25,-2.77,14.9,76.32,1.65,11.3,88.56,-0.0321,0.317,0.3961,-0.1679,0.5283,0.3945,-0.0017,0.4617,0.2373,0.0552,0.6649,0.3374,-0.0791,0.7255,0.132,0.0472,0.66,0.2772,0.0,0.013,0.006,0.006,0.006,0.182,0.0,0.006,0.013,0.006,0.013,0.006,0.006,0.0,0.019,0.0,0.052,0.0,-0.0123,-0.431,0.2899,-0.1012,-0.2178,0.2976,0.0061,-0.3083,0.1104,0.0353,-0.0782,0.1841,-0.0399,-0.0644,0.0368,0.0245,-0.089,0.1289,-0.0114,-0.1194,0.1176,-0.0199,-0.0299,0.0961,0.0,-0.0336,-0.0183,0.0006,-0.0352,0.1409,-0.0083,-0.0456,0.0305,0.0073,-0.0723,0.0471,0.5472,-0.0353,0.062,0.1169,-0.0106,-0.027,0.3226,0.3845,-0.1735,0.5383,0.3806,-0.0043,0.4724,0.2361,0.064,0.6763,0.3159,-0.0766,0.7285,0.1501,0.0464,0.6556,0.2675,0.0,0.0,-0.072,0.0,0.0,0.0,0.0,0.0,0.0,
1.44,run,11.43,2.92,0.14,-3.19,4.69,-4.0,0.0,0.0,0.299,-1.05,-6.68,96.86,-5.62,3.69,96.24,0.09,0.97,85.61,2.2,12.57,90.79,-2.55,14.85,80.86,1.67,12.3,88.33,-1.24,-8.41,100.07,-5.84,3.23,99.4,-0.16,-0.05,85.34,1.63,11.38,93.82,-2.89,13.96,74.89,1.84,10.74,89.57,-0.0353,0.3016,0.4126,-0.1668,0.5132,0.4047,-0.0045,0.4536,0.2393,0.0466,0.6615,0.339,-0.0825,0.7083,0.1163,0.0527,0.6499,0.289,0.0,0.013,0.006,0.0,0.006,0.136,0.0,0.006,0.006,0.006,0.013,0.006,0.019,0.006,0.104,0.0,0.033,0.006,-0.0153,-0.4433,0.2976,-0.1028,-0.2209,0.2991,0.0061,-0.3145,0.0997,0.0368,-0.0828,0.1917,-0.0414,-0.069,0.0261,0.0245,-0.0951,0.1381,-0.0193,-0.1291,0.1108,-0.0196,-0.0323,0.0729,0.0,-0.0463,-0.0527,0.0061,-0.0417,0.1271,-0.0115,-0.049,-0.0185,0.0051,-0.0734,0.0671,0.5577,-0.0368,0.0688,-0.0384,0.0112,-0.0321,0.317,0.3961,-0.1679,0.5283,0.3945,-0.0017,0.4617,0.2373,0.0552,0.6649,0.3374,-0.0791,0.7255,0.132,0.0472,0.66,0.2772,0.0,0.0,-0.0792,0.0,0.0,0.0,0.0,0.0,0.0,
1.48,run,11.48,3.12,3.32,3.19,1.67,-4.3,0.0,0.0,0.299,-1.05,-7.21,97.65,-5.62,3.16,96.94,0.09,0.35,85.61,1.67,12.13,91.85,-2.72,14.77,79.72,1.76,12.22,88.95,-1.4,-9.54,100.88,-5.82,3.02,99.71,-0.39,-0.63,84.67,1.32,10.86,94.87,-3.23,13.73,73.39,2.16,9.94,89.94,-0.04,0.281,0.4222,-0.1662,0.5094,0.4084,-0.011,0.443,0.2314,0.0378,0.6521,0.3514,-0.0923,0.7041,0.0833,0.0618,0.6353,0.2934,0.0,0.013,0.006,0.0,0.006,0.136,0.0,0.006,0.006,0.006,0.013,0.006,0.019,0.006,0.104,0.0,0.033,0.006,-0.0184,-0.4541,0.3053,-0.1028,-0.2286,0.3083,0.0061,-0.3237,0.0951,0.0368,-0.0905,0.204,-0.0414,-0.0767,0.0138,0.0276,-0.0966,0.1503,-0.0251,-0.1307,0.1064,-0.0137,-0.0514,0.0856,0.0,-0.067,-0.0541,0.0043,-0.058,0.1351,-0.008,-0.0631,-0.0591,0.0151,-0.0571,0.0931,0.5559,-0.0411,0.0024,-0.0556,0.0818,-0.0353,0.3016,0.4126,-0.1668,0.5132,0.4047,-0.0045,0.4536,0.2393,0.0466,0.6615,0.339,-0.0825,0.7083,0.1163,0.0527,0.6499,0.289,0.0,0.0,-0.0864,0.0,0.0,0.0,0.0,0.0,0.0,
1.52,run,10.32,3.37,-30.54,10.16,3.01,-4.7,0.0,0.0,0.299,-1.41,-7.82,98.7,-5.62,2.64,97.82,-0.09,-0.18,85.61,1.58,11.69,92.9,-2.99,13.89,77.96,2.02,11.51,89.65,-1.7,-9.97,102.1,-5.72,3.13,100.62,-0.51,-0.72,83.54,1.09,10.35,96.37,-3.81,13.56,71.89,2.22,9.94,90.79,-0.0485,0.2732,0.4365,-0.1633,0.5115,0.419,-0.0146,0.4414,0.2182,0.0311,0.6427,0.3775,-0.1087,0.7011,0.0423,0.0634,0.6354,0.3034,0.0,0.013,0.006,0.0,0.006,0.136,0.0,0.006,0.006,0.006,0.013,0.006,0.019,0.006,0.104,0.0,0.033,0.006,-0.0184,-0.4633,0.3191,-0.1028,-0.2378,0.3206,0.0061,-0.3344,0.0951,0.0276,-0.0982,0.2224,-0.0445,-0.0782,-0.0061,0.0291,-0.0982,0.1611,-0.0175,-0.1262,0.1264,-0.0096,-0.0707,0.1061,0.0,-0.0873,-0.0379,-0.0317,-0.0695,0.1639,-0.0172,-0.05,-0.1164,0.0164,-0.0458,0.1056,0.5602,-0.0241,0.058,0.0558,0.0291,-0.04,0.281,0.4222,-0.1662,0.5094,0.4084,-0.011,0.443,0.2314,0.0378,0.6521,0.3514,-0.0923,0.7041,0.0833,0.0618,0.6353,0.2934,0.0,0.0,-0.0936,0.0,0.0,0.0,0.0,0.0,0.0,
1.56,run,10.2,2.5,-3.55,-23.16,8.13,-5.0,0.0,0.0,0.299,-1.41,-8.53,99.67,-5.71,2.29,98.61,-0.35,-0.62,85.17,1.05,11.25,94.04,-3.43,13.62,76.55,2.02,10.99,90.35,-2.49,-11.47,102.59,-6.54,4.39,100.14,-1.94,-1.53,82.23,1.53,8.85,97.87,-4.77,15.06,70.39,2.26,8.44,91.04,-0.0712,0.2227,0.4422,-0.1868,0.5344,0.4134,-0.0553,0.4268,0.2027,0.0438,0.5758,0.4472,-0.1364,0.7291,-0.0101,0.0645,0.5814,0.3064,0.026,0.019,0.013,0.006,0.033,0.071,0.006,0.0,0.019,0.013,0.013,0.006,0.006,0.0,0.052,0.0,0.033,0.0,-0.0245,-0.474,0.3375,-0.1028,-0.247,0.3359,0.0031,-0.3436,0.0951,0.0261,-0.1058,0.2408,-0.0491,-0.0936,-0.0368,0.0337,-0.1104,0.1733,-0.0352,-0.1284,0.1572,-0.0067,-0.0838,0.1316,-0.0115,-0.0955,-0.0265,-0.0279,-0.0773,0.1834,-0.0292,-0.0923,-0.196,0.0286,-0.0779,0.1197,0.4589,-0.0019,-0.533,0.1774,0.0525,-0.0485,0.2732,0.4365,-0.1633,0.5115,0.419,-0.0146,0.4414,0.2182,0.0311,0.6427,0.3775,-0.1087,0.7011,0.0423,0.0634,0.6354,0.3034,0.0,0.0,-0.1008,0.0,0.0,0.0,0.0,0.0,0.0,
1.6,run,10.03,1.77,-1.33,-4.93,6.08,-5.4,0.0,0.0,0.299,-2.11,-11.78,103.45,-6.06,2.29,100.28,-1.14,-1.32,82.79,0.44,8.88,97.91,-4.66,13.18,71.02,3.08,8.26,92.64,-1.95,-12.97,104.09,-5.48,2.94,101.64,-1.35,-0.97,82.36,0.23,9.78,96.83,-4.88,13.56,68.89,3.24,6.94,92.54,-0.0558,0.212,0.485,-0.1566,0.508,0.4523,-0.0385,0.437,0.2043,0.0065,0.6324,0.3745,-0.1393,0.6483,-0.0469,0.0925,0.5652,0.3493,0.006,0.013,0.0,0.013,0.019,0.136,0.0,0.006,0.006,0.006,0.0,0.006,0.0,0.019,0.006,0.0,0.013,0.006,-0.0245,-0.4863,0.3543,-0.1043,-0.2531,0.3497,-0.0015,-0.3513,0.0874,0.0169,-0.1135,0.2608,-0.0568,-0.0982,-0.0614,0.0337,-0.1197,0.1856,-0.0246,-0.1359,0.1734,-0.0105,-0.0817,0.1439,-0.0253,-0.0956,-0.0473,-0.054,-0.0829,0.2032,-0.0492,-0.0818,-0.2293,0.02,-0.089,0.1298,0.4485,-0.0781,-0.0619,-0.4043,0.1419,-0.0712,0.2227,0.4422,-0.1868,0.5344,0.4134,-0.0553,0.4268,0.2027,0.0438,0.5758,0.4472,-0.1364,0.7291,-0.0101,0.0645,0.5814,0.3064,0.0,0.0,-0.108,0.0,0.0,0.0,0.0,0.0,0.0,
1.64,run,9.62,1.84,-9.57,5.05,-0.47,-5.8,0.0,0.0,0.299,-1.76,-12.3,103.71,-6.15,2.29,100.28,-1.14,-1.05,82.71,0.35,9.49,97.91,-4.75,13.18,69.96,3.25,7.65,92.81,-2.47,-14.47,105.59,-5.71,3.55,103.14,-0.96,-0.63,80.86,0.07,11.28,98.33,-5.84,12.61,67.39,3.62,5.85,94.04,-0.0705,0.1543,0.5634,-0.1631,0.5191,0.5017,-0.0274,0.443,0.1664,0.0019,0.6671,0.427,-0.1669,0.6838,-0.1088,0.1035,0.5608,0.3846,0.006,0.013,0.0,0.013,0.019,0.136,0.0,0.006,0.006,0.006,0.0,0.006,0.0,0.019,0.006,0.0,0.013,0.006,-0.0368,-0.543,0.4203,-0.1104,-0.2531,0.3789,-0.0153,-0.3636,0.046,0.0061,-0.1549,0.3283,-0.0782,-0.1058,-0.158,0.0522,-0.1672,0.2255,-0.0296,-0.1525,0.188,-0.0135,-0.0572,0.1302,-0.0316,-0.0793,-0.075,-0.0487,-0.0998,0.2104,-0.0561,-0.065,-0.2581,0.0326,-0.1103,0.1312,0.4337,-0.1413,-0.0232,-0.0861,0.1061,-0.0558,0.212,0.485,-0.1566,0.508,0.4523,-0.0385,0.437,0.2043,0.0065,0.6324,0.3745,-0.1393,0.6483,-0.0469,0.0925,0.5652,0.3493,0.0,0.0,-0.1152,0.0,0.0,0.0,0.0,0.0,0.0,
1.68,run,9.57,1.76,0.26,-0.55,0.57,-6.1,0.0,0.0,0.299,-1.93,-12.66,103.8,-6.24,2.29,100.28,-1.14,-1.14,82.71,0.18,9.49,97.91,-4.83,13.18,69.35,3.25,7.38,92.99,-2.98,-15.97,107.09,-6.12,5.05,104.64,-1.33,-2.09,79.36,-0.27,10.73,99.83,-6.76,12.51,65.89,3.73,4.88,95.54,-0.0852,0.1315,0.5985,-0.1748,0.5508,0.5141,-0.038,0.4165,0.1515,-0.0077,0.6497,0.4683,-0.1932,0.682,-0.1536,0.1066,0.5433,0.4042,0.006,0.013,0.0,0.013,0.019,0.136,0.0,0.006,0.006,0.006,0.0,0.006,0.0,0.019,0.006,0.0,0.013,0.006,-0.0307,-0.5522,0.4249,-0.112,-0.2531,0.3789,-0.0153,-0.359,0.0445,0.0046,-0.1442,0.3283,-0.0798,-0.1058,-0.1764,0.0552,-0.1779,0.2286,0.0032,-0.1427,0.1495,-0.0155,-0.04,0.0911,-0.0221,-0.0376,-0.0585,-0.0401,-0.028,0.1473,-0.0453,-0.0455,-0.2526,0.0348,-0.1192,0.1038,0.3981,-0.1356,-0.1671,0.0881,-0.0082,-0.0705,0.1543,0.5634,-0.1631,0.5191,0.5017,-0.0274,0.443,0.1664,0.0019,0.6671,0.427,-0.1669,0.6838,-0.1088,0.1035,0.5608,0.3846,0.0,0.0,-0.1224,0.0,0.0,0.0,0.0,0.0,0.0,
1.72,run,9.45,1.86,-2.95,4.9,3.45,-6.5,0.0,0.0,0.299,-2.55,-13.1,104.33,-6.15,2.29,100.63,-1.14,-1.05,82.44,-0.18,9.67,98.09,-5.27,12.83,68.29,3.52,6.94,93.43,-2.9,-17.47,108.59,-5.8,5.26,106.14,-1.21,-3.17,77.86,-1.01,12.23,101.33,-6.82,11.01,64.39,4.17,4.85,97.04,-0.0829,0.1221,0.6275,-0.1658,0.5502,0.5254,-0.0346,0.3969,0.1389,-0.0289,0.6769,0.4489,-0.195,0.6465,-0.1903,0.1192,0.5426,0.4184,0.0,0.026,0.006,0.0,0.078,0.24,0.006,0.0,0.019,0.006,0.006,0.0,0.019,0.006,0.013,0.0,0.019,0.0,-0.0337,-0.5584,0.4264,-0.1135,-0.2531,0.3789,-0.0153,-0.3605,0.0445,0.0015,-0.1442,0.3283,-0.0813,-0.1058,-0.1871,0.0552,-0.1825,0.2316,-0.0092,-0.1228,0.1104,-0.0165,-0.028,0.0638,-0.0155,-0.032,-0.0409,-0.0395,-0.0196,0.1031,-0.0374,-0.0319,-0.2169,0.0244,-0.1006,0.0841,0.3933,-0.1425,0.0045,-0.0095,0.0099,-0.0852,0.1315,0.5985,-0.1748,0.5508,0.5141,-0.038,0.4165,0.1515,-0.0077,0.6497,0.4683,-0.1932,0.682,-0.1536,0.1066,0.5433,0.4042,0.0,0.0,-0.1296,0.0,0.0,0.0,0.0,0.0,0.0,
1.76,run,9.03,2.16,-9.82,8.32,1.73,-6.8,0.0,0.0,0.299,-2.9,-13.71,104.94,-5.71,2.29,101.34,-1.14,-1.49,81.74,-0.44,10.37,98.7,-6.06,12.13,67.06,3.87,6.33,94.22,-3.09,-18.97,110.09,-6.12,5.61,107.64,-1.49,-3.88,76.36,-1.35,12.06,102.83,-7.38,11.31,62.89,4.34,4.65,98.54,-0.0883,0.097,0.6487,-0.1747,0.5566,0.5369,-0.0424,0.384,0.1206,-0.0385,0.6738,0.4758,-0.2107,0.6601,-0.229,0.1241,0.5391,0.4245,0.0,0.026,0.006,0.0,0.078,0.24,0.006,0.0,0.019,0.006,0.006,0.0,0.019,0.006,0.013,0.0,0.019,0.0,-0.0445,-0.566,0.4357,-0.112,-0.2531,0.385,-0.0153,-0.359,0.0399,-0.0046,-0.1411,0.3313,-0.089,-0.112,-0.2056,0.0598,-0.1902,0.2393,-0.0468,-0.1147,0.1118,-0.0058,-0.0196,0.0677,-0.0109,-0.0167,-0.0459,-0.0507,-0.0022,0.0837,-0.055,-0.0453,-0.2209,0.0343,-0.0992,0.0877,0.3828,-0.1334,-0.0515,0.0855,0.0603,-0.0829,0.1221,0.6275,-0.1658,0.5502,0.5254,-0.0346,0.3969,0.1389,-0.0289,0.6769,0.4489,-0.195,0.6465,-0.1903,0.1192,0.5426,0.4184,0.0,0.0,-0.1368,0.0,0.0,0.0,0.0,0.0,0.0,
1.8,run,8.94,2.45,-2.25,6.93,0.27,-7.2,0.0,0.0,0.299,-2.99,-14.77,105.82,-5.45,2.29,102.39,-1.14,-2.02,80.86,-0.88,11.07,99.49,-6.77,11.51,65.74,4.04,5.62,95.27,-3.43,-20.47,111.59,-6.56,6.22,109.14,-2.04,-4.55,74.86,-1.95,10.88,104.33,-8.45,12.25,61.39,4.41,4.11,100.04,-0.0979,0.0732,0.675,-0.1874,0.5677,0.556,-0.0584,0.3719,0.0943,-0.0557,0.6523,0.5161,-0.2413,0.6772,-0.29,0.1259,0.5292,0.4458,0.0,0.026,0.006,0.0,0.078,0.24,0.006,0.0,0.019,0.006,0.006,0.0,0.019,0.006,0.013,0.0,0.019,0.0,-0.0506,-0.5768,0.4464,-0.1043,-0.2531,0.3973,-0.0153,-0.3666,0.0276,-0.0092,-0.1289,0.3421,-0.1028,-0.1243,-0.227,0.066,-0.201,0.2531,-0.0557,-0.1206,0.1185,0.0247,-0.0137,0.0934,-0.0076,-0.0404,-0.0782,-0.0527,0.0445,0.0988,-0.0903,-0.0778,-0.2352,0.047,-0.1097,0.1131,0.3468,-0.1075,-0.1713,0.1452,0.0302,-0.0883,0.097,0.6487,-0.1747,0.5566,0.5369,-0.0424,0.384,0.1206,-0.0385,0.6738,0.4758,-0.2107,0.6601,-0.229,0.1241,0.5391,0.4245,0.0,0.0,-0.144,0.0,0.0,0.0,0.0,0.0,0.0,
1.84,run,8.73,2.85,-5.15,6.97,-13.55,-7.6,0.0,0.0,0.39,-3.43,-15.91,107.05,-5.71,2.55,103.45,-1.41,-3.08,79.54,-1.41,11.43,100.46,-7.47,11.07,64.42,4.48,5.1,96.5,-3.51,-21.3,113.09,-6.4,6.39,110.64,-2.23,-5.44,73.36,-2.92,11.51,105.83,-9.34,11.54,59.89,4.83,3.96,101.54,-0.1003,0.0672,0.7074,-0.1829,0.5708,0.5762,-0.0636,0.3557,0.0624,-0.0834,0.6639,0.5274,-0.2668,0.6643,-0.347,0.138,0.5266,0.4684,0.006,0.019,0.006,0.019,0.254,0.39,0.006,0.006,0.019,0.019,0.006,0.019,0.013,0.0,0.013,0.006,0.013,0.0,-0.0522,-0.5952,0.4617,-0.0997,-0.2531,0.4157,-0.0153,-0.3758,0.0123,-0.0169,-0.1166,0.3559,-0.115,-0.135,-0.25,0.069,-0.2132,0.2715,-0.0447,-0.1529,0.1401,0.0344,-0.0096,0.1339,-0.0053,-0.0625,-0.1118,-0.0654,0.0768,0.1206,-0.1088,-0.0944,-0.2502,0.0443,-0.1225,0.1477,0.3389,-0.0824,-0.0393,0.1209,0.0047,-0.0979,0.0732,0.675,-0.1874,0.5677,0.556,-0.0584,0.3719,0.0943,-0.0557,0.6523,0.5161,-0.2413,0.6772,-0.29,0.1259,0.5292,0.4458,0.0,0.0,-0.1512,0.0,0.0,0.0,0.0,0.0,0.0,
1.88,run,8.87,3.08,3.39,5.52,-19.73,-7.9,0.0,0.0,0.39,-3.43,-17.31,108.19,-6.06,2.72,104.77,-1.85,-4.04,78.13,-2.02,11.51,101.87,-8.35,10.99,63.02,4.57,4.57,97.91,-4.04,-20.85,114.59,-6.76,6.86,112.14,-2.51,-5.74,71.86,-3.87,10.18,107.33,-10.81,11.62,58.39,4.97,3.82,103.04,-0.1154,0.0754,0.7355,-0.1931,0.5793,0.5921,-0.0716,0.3501,0.0285,-0.1105,0.6397,0.567,-0.3087,0.6657,-0.4158,0.142,0.5239,0.4921,0.006,0.019,0.006,0.019,0.254,0.39,0.006,0.006,0.019,0.019,0.006,0.019,0.013,0.0,0.013,0.006,0.013,0.0,-0.0598,-0.6151,0.4832,-0.1043,-0.2485,0.4341,-0.0199,-0.3942,-0.0107,-0.0261,-0.1104,0.3728,-0.1273,-0.1427,-0.273,0.0767,-0.2224,0.293,-0.0602,-0.1822,0.179,0.0067,0.0106,0.1631,-0.0211,-0.1132,-0.165,-0.0805,0.0769,0.148,-0.1224,-0.095,-0.2619,0.06,-0.1204,0.1843,0.3202,-0.0476,-0.0899,0.1216,-0.2366,-0.1003,0.0672,0.7074,-0.1829,0.5708,0.5762,-0.0636,0.3557,0.0624,-0.0834,0.6639,0.5274,-0.2668,0.6643,-0.347,0.138,0.5266,0.4684,0.0,0.0,-0.1584,0.0,0.0,0.0,0.0,0.0,0.0,
1.92,run,8.72,3.03,-2.79,-3.77,-14.83,-8.3,0.0,0.0,0.39,-3.69,-18.54,109.86,-6.24,2.72,106.0,-2.11,-4.92,76.73,-2.64,11.43,103.27,-9.05,11.34,61.52,4.92,4.31,99.32,-4.23,-20.6,116.09,-6.46,6.67,113.64,-2.46,-6.31,70.36,-4.76,11.17,108.83,-11.63,10.92,56.89,5.57,3.6,104.54,-0.1208,0.0801,0.7613,-0.1846,0.5759,0.6075,-0.0703,0.3399,-0.0007,-0.1361,0.6575,0.5657,-0.3321,0.653,-0.4594,0.159,0.5199,0.5129,0.006,0.019,0.006,0.019,0.254,0.39,0.006,0.006,0.019,0.019,0.006,0.019,0.013,0.0,0.013,0.006,0.013,0.0,-0.0598,-0.6397,0.5031,-0.1104,-0.2454,0.4571,-0.0276,-0.4111,-0.0353,-0.0368,-0.1089,0.3973,-0.1427,-0.1442,-0.2976,0.0782,-0.2316,0.3175,-0.0422,-0.2192,0.1998,-0.0182,0.0189,0.2001,-0.0434,-0.1422,-0.2072,-0.0965,0.0595,0.1953,-0.143,-0.0722,-0.275,0.0477,-0.1187,0.2207,0.3327,-0.0275,0.0592,0.0963,-0.3444,-0.1154,0.0754,0.7355,-0.1931,0.5793,0.5921,-0.0716,0.3501,0.0285,-0.1105,0.6397,0.567,-0.3087,0.6657,-0.4158,0.142,0.5239,0.4921,0.0,0.0,-0.1656,0.0,0.0,0.0,0.0,0.0,0.0,
1.96,run,8.38,3.18,-8.11,4.16,-5.86,-8.6,0.0,0.0,0.442,-4.13,-19.51,111.27,-6.42,2.72,107.31,-2.29,-5.62,75.32,-3.43,10.99,104.59,-9.93,11.16,59.94,5.19,4.04,100.72,-4.19,-21.13,117.59,-6.45,6.79,115.14,-2.67,-6.55,68.86,-5.32,11.19,110.33,-12.14,11.35,55.39,5.58,3.25,106.04,-0.1196,0.0703,0.7602,-0.1842,0.5779,0.6171,-0.0763,0.3355,0.0067,-0.152,0.658,0.5588,-0.3468,0.6608,-0.4726,0.1595,0.5136,0.5298,0.0,0.013,0.013,0.0,0.442,0.416,0.006,0.0,0.026,0.019,0.0,0.026,0.013,0.0,0.0,0.0,0.013,0.0,-0.0644,-0.6611,0.5323,-0.1135,-0.2454,0.4786,-0.0322,-0.4264,-0.0598,-0.0476,-0.1104,0.4218,-0.1549,-0.1381,-0.3237,0.0844,-0.2362,0.3421,-0.0468,-0.2341,0.2493,-0.0243,0.0132,0.2208,-0.0477,-0.1572,-0.2372,-0.1079,0.0359,0.2289,-0.1462,-0.0275,-0.2905,0.0564,-0.1004,0.2467,0.3196,-0.0312,-0.0488,-0.0657,-0.2588,-0.1208,0.0801,0.7613,-0.1846,0.5759,0.6075,-0.0703,0.3399,-0.0007,-0.1361,0.6575,0.5657,-0.3321,0.653,-0.4594,0.159,0.5199,0.5129,0.0,0.0,-0.1728,0.0,0.0,0.0,0.0,0.0,0.0,
2.0,run,8.44,3.1,1.22,-2.93,-6.35,-9.0,0.0,0.0,0.442,-4.13,-20.3,112.68,-6.33,2.72,108.63,-2.46,-6.24,73.92,-4.22,10.72,105.82,-10.99,10.99,58.97,5.62,3.69,102.04,-4.18,-22.41,119.09,-6.64,7.77,116.64,-2.68,-6.79,67.36,-5.71,11.42,111.83,-12.45,12.85,53.89,6.11,3.26,107.54,-0.1195,0.0471,0.7749,-0.1898,0.5958,0.6177,-0.0766,0.331,0.0013,-0.163,0.6621,0.5862,-0.3558,0.6894,-0.4865,0.1745,0.5138,0.54,0.0,0.013,0.013,0.0,0.442,0.416,0.006,0.0,0.026,0.019,0.0,0.026,0.013,0.0,0.0,0.0,0.013,0.0,-0.0721,-0.678,0.5568,-0.1166,-0.2454,0.5016,-0.0353,-0.4387,-0.0844,-0.0614,-0.1181,0.4449,-0.1703,-0.1411,-0.3513,0.089,-0.2408,0.3666,-0.0617,-0.2275,0.2671,-0.0286,0.0093,0.2413,-0.0449,-0.1563,-0.2586,-0.1276,-0.0038,0.247,-0.1602,-0.0308,-0.3074,0.0569,-0.0876,0.2652,0.2898,-0.0182,-0.1416,0.0727,-0.1023,-0.1196,0.0703,0.7602,-0.1842,0.5779,0.6171,-0.0763,0.3355,0.0067,-0.152,0.658,0.5588,-0.3468,0.6608,-0.4726,0.1595,0.5136,0.5298,0.0,0.0,-0.18,0.0,0.0,0.0,0.0,0.0,0.0,
2.04,run,7.88,3.27,-14.95,5.12,-4.72,-9.4,0.0,0.0,0.442,-4.13,-20.83,114.17,-6.33,2.72,109.95,-2.46,-6.59,72.51,-4.92,10.72,107.31,-11.6,11.07,57.22,5.71,3.52,103.36,-3.89,-22.62,120.59,-6.58,7.49,118.14,-2.66,-7.13,65.86,-5.91,12.92,112.24,-12.74,11.88,52.39,6.34,3.28,109.04,-0.111,0.0433,0.7803,-0.1879,0.5908,0.6266,-0.0761,0.3249,-0.0048,-0.1688,0.6913,0.5558,-0.364,0.6706,-0.5118,0.1811,0.5142,0.5487,0.0,0.013,0.013,0.0,0.442,0.416,0.006,0.0,0.026,0.019,0.0,0.026,0.013,0.0,0.0,0.0,0.013,0.0,-0.0721,-0.6918,0.5814,-0.115,-0.2454,0.5246,-0.0383,-0.4495,-0.1089,-0.0752,-0.1227,0.4663,-0.1887,-0.1442,-0.3682,0.0966,-0.247,0.3896,-0.0432,-0.211,0.279,-0.0142,0.0065,0.2552,-0.043,-0.1497,-0.2731,-0.1411,-0.0199,0.2534,-0.1812,-0.0331,-0.2785,0.0686,-0.0843,0.272,0.2952,-0.026,0.0213,-0.0512,-0.1108,-0.1195,0.0471,0.7749,-0.1898,0.5958,0.6177,-0.0766,0.331,0.0013,-0.163,0.6621,0.5862,-0.3558,0.6894,-0.4865,0.1745,0.5138,0.54,0.0,0.0,-0.1872,0.0,0.0,0.0,0.0,0.0,0.0,
2.08,run,7.71,3.39,-3.14,2.05,-4.23,-9.7,0.0,0.0,0.5,-4.13,-21.45,115.49,-6.33,2.72,111.36,-2.55,-7.03,71.1,-5.45,10.72,108.54,-12.22,11.51,55.9,6.24,3.34,104.68,-4.18,-23.73,122.09,-7.21,8.57,117.86,-2.76,-7.0,64.69,-6.37,11.42,113.74,-13.46,13.38,50.89,6.64,3.25,110.54,-0.1194,0.0231,0.7842,-0.2061,0.6104,0.6218,-0.079,0.3274,-0.0036,-0.182,0.6591,0.6121,-0.3846,0.7172,-0.5229,0.1898,0.5136,0.5656,0.0,0.019,0.013,0.013,0.5,0.357,0.0,0.006,0.026,0.019,0.058,0.045,0.006,0.039,0.013,0.006,0.0,0.0,-0.0721,-0.701,0.6075,-0.115,-0.2454,0.5476,-0.0383,-0.4556,-0.1335,-0.0874,-0.1227,0.4924,-0.1994,-0.1427,-0.3988,0.0982,-0.25,0.4126,-0.0302,-0.1821,0.2926,-0.01,0.0045,0.2645,-0.0301,-0.1277,-0.2827,-0.1445,-0.0139,0.2747,-0.1669,-0.0174,-0.3094,0.0537,-0.0705,0.2762,0.2463,-0.0106,-0.261,0.0893,-0.0824,-0.111,0.0433,0.7803,-0.1879,0.5908,0.6266,-0.0761,0.3249,-0.0048,-0.1688,0.6913,0.5558,-0.364,0.6706,-0.5118,0.1811,0.5142,0.5487,0.0,0.0,-0.1944,0.0,0.0,0.0,0.0,0.0,0.0,
2.12,run,7.77,3.72,1.47,4.81,-8.47,-10.1,0.0,0.0,0.5,-4.13,-22.5,117.77,-6.59,3.87,113.2,-2.64,-6.94,68.91,-5.98,10.9,110.57,-13.18,11.95,53.61,6.77,2.9,106.88,-3.88,-23.73,123.59,-7.07,8.87,117.99,-2.7,-7.35,63.7,-6.87,12.92,114.71,-13.82,13.53,49.39,7.19,3.59,112.04,-0.1109,0.023,0.7922,-0.2019,0.6159,0.6234,-0.0771,0.3209,-0.0153,-0.1962,0.6993,0.5848,-0.395,0.7006,-0.5474,0.2054,0.5197,0.5725,0.0,0.019,0.013,0.013,0.5,0.357,0.0,0.006,0.026,0.019,0.058,0.045,0.006,0.039,0.013,0.006,0.0,0.0,-0.0721,-0.7118,0.6305,-0.115,-0.2454,0.5722,-0.0399,-0.4633,-0.158,-0.0966,-0.1227,0.5139,-0.2102,-0.135,-0.4218,0.1074,-0.2531,0.4357,-0.0212,-0.1677,0.291,-0.007,0.0032,0.2771,-0.0268,-0.1181,-0.2899,-0.1357,-0.0098,0.2727,-0.157,0.0165,-0.3028,0.0721,-0.0608,0.2796,0.2315,0.0001,-0.0547,0.0358,-0.0739,-0.1194,0.0231,0.7842,-0.2061,0.6104,0.6218,-0.079,0.3274,-0.0036,-0.182,0.6591,0.6121,-0.3846,0.7172,-0.5229,0.1898,0.5136,0.5656,0.0,0.0,-0.2016,0.0,0.0,0.0,0.0,0.0,0.0,
2.16,run,7.5,3.72,-5.15,0.69,-9.01,-10.4,0.0,0.0,0.5,-4.13,-22.94,118.92,-6.77,4.31,113.73,-2.64,-7.03,67.68,-6.15,10.99,111.8,-13.45,12.48,52.47,6.86,2.81,108.11,-4.0,-24.1,125.09,-7.6,8.8,117.93,-2.55,-7.49,62.96,-6.6,14.04,115.76,-14.65,13.65,47.89,7.71,4.18,113.52,-0.1143,0.0163,0.8047,-0.2172,0.6146,0.6227,-0.0729,0.3184,-0.024,-0.1886,0.7099,0.5972,-0.4184,0.7027,-0.5706,0.2204,0.5306,0.5709,0.0,0.019,0.013,0.013,0.5,0.357,0.0,0.006,0.026,0.019,0.058,0.045,0.006,0.039,0.013,0.006,0.0,0.0,-0.0721,-0.7302,0.6703,-0.1197,-0.2255,0.6044,-0.0414,-0.4617,-0.1963,-0.1058,-0.1197,0.5492,-0.227,-0.1273,-0.4617,0.1166,-0.2608,0.474,-0.0148,-0.1612,0.2987,-0.0158,0.0497,0.2707,-0.0224,-0.079,-0.2942,-0.1169,0.0005,0.2749,-0.1501,0.0298,-0.3069,0.0724,-0.0608,0.287,0.2363,0.0289,0.0257,0.084,-0.1478,-0.1109,0.023,0.7922,-0.2019,0.6159,0.6234,-0.0771,0.3209,-0.0153,-0.1962,0.6993,0.5848,-0.395,0.7006,-0.5474,0.2054,0.5197,0.5725,0.0,0.0,-0.2088,0.0,0.0,0.0,0.0,0.0,0.0,
2.2,run,7.3,3.81,-2.5,1.9,-2.73,-10.8,0.0,0.0,0.5,-4.13,-23.38,120.41,-6.86,4.57,114.61,-2.64,-7.38,66.36,-6.5,10.99,113.03,-13.89,12.83,51.15,7.29,3.08,109.34,-4.12,-24.52,126.59,-7.72,8.96,117.96,-2.58,-7.57,63.95,-6.92,13.67,115.68,-14.95,14.16,46.39,7.82,4.14,114.57,-0.1176,0.0087,0.8004,-0.2206,0.6174,0.623,-0.0738,0.317,-0.0124,-0.1978,0.7031,0.5963,-0.4272,0.712,-0.5757,0.2235,0.5299,0.5832,0.0,0.013,0.013,0.013,0.5,0.416,0.0,0.006,0.019,0.013,0.078,0.033,0.013,0.026,0.0,0.013,0.013,0.0,-0.0721,-0.7378,0.6903,-0.1227,-0.2178,0.6136,-0.0414,-0.4633,-0.2178,-0.1089,-0.1181,0.5706,-0.2316,-0.1181,-0.4817,0.1181,-0.2623,0.4955,-0.0104,-0.1476,0.2994,-0.025,0.0695,0.2312,-0.0157,-0.0623,-0.3032,-0.0957,0.0073,0.2897,-0.1259,0.0626,-0.3052,0.0576,-0.0495,0.2982,0.2129,0.0289,-0.0899,0.0121,-0.1572,-0.1143,0.0163,0.8047,-0.2172,0.6146,0.6227,-0.0729,0.3184,-0.024,-0.1886,0.7099,0.5972,-0.4184,0.7027,-0.5706,0.2204,0.5306,0.5709,0.0,0.0,-0.216,0.0,0.0,0.0,0.0,0.0,0.0,
2.24,run,7.15,4.28,-2.93,8.19,-4.17,-11.2,0.0,0.0,0.5,-4.22,-23.99,122.26,-7.29,4.66,115.14,-2.64,-7.38,64.78,-6.59,11.87,114.35,-14.68,13.45,48.96,7.65,3.52,111.27,-3.97,-25.12,128.09,-7.69,9.49,117.84,-2.57,-7.41,63.92,-7.07,14.61,115.58,-15.2,14.55,44.89,8.2,4.44,114.56,-0.1136,-0.0021,0.8028,-0.2198,0.6271,0.6217,-0.0733,0.3199,-0.0127,-0.2021,0.7202,0.5951,-0.4342,0.7192,-0.5855,0.2344,0.5352,0.5831,0.0,0.013,0.013,0.013,0.5,0.416,0.0,0.006,0.019,0.013,0.078,0.033,0.013,0.026,0.0,0.013,0.013,0.0,-0.0721,-0.7455,0.7164,-0.1243,-0.2132,0.6289,-0.0414,-0.4694,-0.2408,-0.115,-0.1181,0.5921,-0.2393,-0.112,-0.5047,0.1258,-0.2577,0.517,-0.0073,-0.1315,0.3055,-0.0231,0.0656,0.2182,-0.011,-0.0662,-0.2969,-0.0896,0.0051,0.2818,-0.1164,0.0664,-0.2982,0.0685,-0.0178,0.2877,0.1954,0.0362,-0.0436,0.0332,-0.0477,-0.1176,0.0087,0.8004,-0.2206,0.6174,0.623,-0.0738,0.317,-0.0124,-0.1978,0.7031,0.5963,-0.4272,0.712,-0.5757,0.2235,0.5299,0.5832,0.0,0.0,-0.2232,0.0,0.0,0.0,0.0,0.0,0.0,
2.28,run,5.58,5.28,-37.29,23.45,-16.84,-11.5,0.0,0.0,0.5,-4.04,-24.17,123.31,-7.38,4.66,115.14,-2.64,-7.29,64.07,-6.77,12.22,114.79,-14.85,13.54,47.72,7.73,3.69,112.76,-4.12,-25.57,129.59,-8.24,10.23,117.67,-2.4,-7.3,63.96,-7.11,14.16,117.08,-15.66,15.7,43.39,8.69,5.23,114.32,-0.1178,-0.0104,0.8063,-0.2354,0.6405,0.6197,-0.0687,0.3218,-0.0122,-0.203,0.712,0.6262,-0.4474,0.74,-0.5992,0.2482,0.5497,0.5802,0.0,0.013,0.013,0.013,0.5,0.416,0.0,0.006,0.019,0.013,0.078,0.033,0.013,0.026,0.0,0.013,0.013,0.0,-0.0736,-0.7563,0.7486,-0.1319,-0.2117,0.6381,-0.0414,-0.4694,-0.2684,-0.1166,-0.1028,0.6151,-0.2531,-0.1012,-0.543,0.1319,-0.25,0.5507,-0.0091,-0.12,0.2976,-0.0361,0.0499,0.1767,-0.0077,-0.0463,-0.2796,-0.0667,0.0434,0.2571,-0.1173,0.0744,-0.3084,0.0639,0.0075,0.2891,0.1823,0.0774,-0.0512,0.143,-0.0728,-0.1136,-0.0021,0.8028,-0.2198,0.6271,0.6217,-0.0733,0.3199,-0.0127,-0.2021,0.7202,0.5951,-0.4342,0.7192,-0.5855,0.2344,0.5352,0.5831,0.0,0.0,-0.2304,0.0,0.0,0.0,0.0,0.0,0.0,
2.32,run,5.41,5.69,-1.72,13.59,-22.75,-11.9,0.0,0.0,0.5,-4.31,-24.61,124.37,-8.17,5.27,115.22,-2.64,-7.21,63.46,-6.94,12.48,115.31,-15.38,13.89,46.41,8.61,3.96,113.73,-4.16,-24.07,130.44,-9.15,11.73,116.17,-1.02,-7.73,64.92,-8.61,12.66,118.58,-14.69,17.2,41.89,9.34,6.07,115.82,-0.1189,0.0198,0.7698,-0.2615,0.6794,0.5635,-0.029,0.314,-0.001,-0.2707,0.5823,0.7512,-0.4196,0.772,-0.6049,0.2669,0.5649,0.6112,0.0,0.019,0.084,0.006,0.39,0.338,0.006,0.019,0.0,0.013,0.033,0.058,0.013,0.065,0.0,0.013,0.026,0.0,-0.0706,-0.7593,0.767,-0.1335,-0.2117,0.6381,-0.0414,-0.4679,-0.2807,-0.1197,-0.0966,0.6228,-0.2562,-0.0997,-0.5645,0.1335,-0.247,0.5768,0.0051,-0.0954,0.2767,-0.031,0.0349,0.1237,-0.0054,-0.0267,-0.2413,-0.0581,0.0532,0.2084,-0.0935,0.0578,-0.2957,0.0504,0.0167,0.2992,0.0457,0.1647,-0.6508,0.4092,-0.294,-0.1178,-0.0104,0.8063,-0.2354,0.6405,0.6197,-0.0687,0.3218,-0.0122,-0.203,0.712,0.6262,-0.4474,0.74,-0.5992,0.2482,0.5497,0.5802,0.0,0.0,-0.2376,0.0,0.0,0.0,0.0,0.0,0.0,
2.36,run,4.19,5.28,-26.59,-12.32,-15.33,-12.2,0.0,0.0,0.5,-3.96,-24.87,125.33,-8.26,6.24,115.22,-2.64,-7.21,63.37,-7.12,13.18,116.81,-15.82,14.59,44.91,8.7,4.66,114.43,-4.25,-24.04,131.94,-9.14,12.73,115.03,-1.88,-7.06,63.42,-9.21,12.98,120.08,-15.99,16.29,40.39,9.74,7.29,116.82,-0.1215,0.0174,0.8194,-0.261,0.686,0.5886,-0.0537,0.3262,-0.0373,-0.263,0.6906,0.679,-0.457,0.7507,-0.6658,0.2784,0.5871,0.6096,0.0,0.019,0.084,0.006,0.39,0.338,0.006,0.019,0.0,0.013,0.033,0.058,0.013,0.065,0.0,0.013,0.026,0.0,-0.0752,-0.767,0.7854,-0.1473,-0.201,0.6397,-0.0414,-0.4663,-0.2915,-0.1227,-0.092,0.632,-0.2654,-0.0936,-0.5875,0.1488,-0.2424,0.5937,-0.0137,-0.0956,0.2628,-0.0735,0.0648,0.0923,-0.0038,-0.0129,-0.2092,-0.0522,0.0545,0.1805,-0.1,0.0635,-0.2934,0.0929,0.0289,0.2728,0.0302,0.2003,-0.0301,0.2372,-0.3971,-0.1189,0.0198,0.7698,-0.2615,0.6794,0.5635,-0.029,0.314,-0.001,-0.2707,0.5823,0.7512,-0.4196,0.772,-0.6049,0.2669,0.5649,0.6112,0.0,0.0,-0.2448,0.0,0.0,0.0,0.0,0.0,0.0,
2.4,run,3.46,6.43,-18.17,30.52,-10.28,-12.6,0.0,0.0,0.5,-4.57,-25.75,126.12,-8.44,7.21,115.31,-2.2,-7.47,63.37,-7.82,13.1,117.77,-15.29,15.29,43.33,9.67,5.36,115.4,-3.82,-23.06,130.48,-8.46,13.14,113.53,-1.69,-6.41,64.92,-9.69,11.48,120.86,-15.33,15.89,38.89,8.56,6.11,118.32,-0.1091,0.0353,0.7703,-0.2418,0.6934,0.5709,-0.0484,0.338,0.0398,-0.2769,0.6561,0.6572,-0.4379,0.7435,-0.602,0.2445,0.5656,0.6502,0.0,0.019,0.084,0.006,0.39,0.338,0.006,0.019,0.0,0.013,0.033,0.058,0.013,0.065,0.0,0.013,0.026,0.0,-0.069,-0.7716,0.8023,-0.1488,-0.1841,0.6397,-0.0414,-0.4663,-0.293,-0.1258,-0.0798,0.6581,-0.273,-0.0813,-0.6136,0.1503,-0.2301,0.6059,0.0133,-0.084,0.2468,-0.0572,0.1082,0.0646,-0.0026,-0.0091,-0.1522,-0.048,0.0839,0.2235,-0.0986,0.0902,-0.3026,0.0707,0.066,0.2367,-0.0758,0.1648,-0.4642,-0.2151,-0.2676,-0.1215,0.0174,0.8194,-0.261,0.686,0.5886,-0.0537,0.3262,-0.0373,-0.263,0.6906,0.679,-0.457,0.7507,-0.6658,0.2784,0.5871,0.6096,0.0,0.0,-0.252,0.0,0.0,0.0,0.0,0.0,0.0,
2.44,run,1.6,6.33,-40.08,-1.99,-8.83,-13.0,0.0,0.0,0.5,-3.78,-24.79,126.83,-8.61,8.17,115.22,-1.85,-7.03,63.72,-8.7,13.18,118.83,-15.38,15.73,42.01,9.76,6.06,116.28,-3.7,-24.51,131.98,-9.72,14.64,112.03,-0.19,-6.53,63.6,-10.78,9.98,122.36,-14.7,17.39,37.39,10.06,7.61,117.19,-0.1058,0.0088,0.8208,-0.2778,0.7319,0.5446,-0.0052,0.3358,-0.0164,-0.3081,0.6252,0.7754,-0.4199,0.774,-0.6361,0.2943,0.6115,0.614,0.013,0.006,0.338,0.006,0.351,0.0,0.006,0.0,0.006,0.019,0.006,0.013,0.013,0.111,0.0,0.0,0.0,0.0,-0.0798,-0.7869,0.8161,-0.1519,-0.1672,0.6412,-0.0337,-0.4709,-0.293,-0.1381,-0.0813,0.675,-0.2638,-0.069,-0.6412,0.1672,-0.2178,0.6228,-0.0312,-0.1167,0.2249,-0.0516,0.1394,0.051,0.0271,-0.0237,-0.1065,-0.0799,0.0529,0.2201,-0.0343,0.1094,-0.316,0.1132,0.0925,0.2294,-0.1396,0.2653,-0.3172,0.5327,-0.1794,-0.1091,0.0353,0.7703,-0.2418,0.6934,0.5709,-0.0484,0.338,0.0398,-0.2769,0.6561,0.6572,-0.4379,0.7435,-0.602,0.2445,0.5656,0.6502,0.0,0.0,-0.2592,0.0,0.0,0.0,0.0,0.0,0.0,
2.48,run,0.97,8.19,-17.94,49.16,-4.29,-13.3,0.0,0.0,0.5,-3.96,-25.31,127.35,-8.61,9.23,114.08,-1.76,-6.5,64.07,-9.49,12.13,119.53,-15.47,15.82,40.52,10.02,7.29,117.16,-3.14,-23.01,130.48,-8.68,15.84,110.53,-0.1,-6.05,65.1,-12.19,8.48,123.86,-13.48,15.89,35.89,9.3,6.88,118.69,-0.0897,0.0507,0.7528,-0.2481,0.7425,0.5132,-0.0028,0.3445,0.0454,-0.3483,0.5948,0.7312,-0.3852,0.7389,-0.5924,0.2658,0.5797,0.6831,0.013,0.006,0.338,0.006,0.351,0.0,0.006,0.0,0.006,0.019,0.006,0.013,0.013,0.111,0.0,0.0,0.0,0.0,-0.066,-0.7701,0.8283,-0.1549,-0.1503,0.6397,-0.0276,-0.4633,-0.2869,-0.1534,-0.0798,0.6934,-0.2654,-0.0614,-0.6642,0.1687,-0.2056,0.6381,0.0299,-0.0184,0.2034,-0.0476,0.1609,0.03,0.042,0.0122,-0.0516,-0.1134,0.0428,0.2231,-0.0298,0.1054,-0.3075,0.085,0.1108,0.2181,-0.3023,0.2563,-0.6996,-0.0347,-0.1541,-0.1058,0.0088,0.8208,-0.2778,0.7319,0.5446,-0.0052,0.3358,-0.0164,-0.3081,0.6252,0.7754,-0.4199,0.774,-0.6361,0.2943,0.6115,0.614,0.0,0.0,-0.2664,0.0,0.0,0.0,0.0,0.0,0.0,
2.52,run,-0.41,9.07,-33.3,23.68,-5.59,-13.7,0.0,0.0,0.5,-3.69,-24.52,127.53,-8.61,10.46,113.12,-1.23,-6.42,64.16,-10.28,11.6,119.97,-14.94,15.82,39.02,10.02,7.38,117.86,-3.31,-24.51,131.98,-10.18,16.42,109.03,1.4,-6.92,63.6,-12.89,6.98,125.36,-12.63,16.1,34.39,10.8,8.38,117.89,-0.0945,-0.0036,0.8435,-0.3044,0.7532,0.5064,0.0448,0.3287,-0.0285,-0.3684,0.5446,0.8693,-0.361,0.7472,-0.6577,0.3177,0.6432,0.6223,0.013,0.006,0.338,0.006,0.351,0.0,0.006,0.0,0.006,0.019,0.006,0.013,0.013,0.111,0.0,0.0,0.0,0.0,-0.069,-0.7793,0.8376,-0.1549,-0.1319,0.6197,-0.0261,-0.4541,-0.2807,-0.1672,-0.0982,0.7056,-0.2669,-0.0598,-0.6903,0.1733,-0.1841,0.6535,0.0094,-0.0474,0.1769,-0.0333,0.1817,-0.0539,0.0351,0.0431,-0.0131,-0.1312,-0.0391,0.2022,-0.0266,0.0795,-0.3131,0.0768,0.1581,0.2102,-0.3571,0.419,-0.3131,0.8581,-0.0748,-0.0897,0.0507,0.7528,-0.2481,0.7425,0.5132,-0.0028,0.3445,0.0454,-0.3483,0.5948,0.7312,-0.3852,0.7389,-0.5924,0.2658,0.5797,0.6831,0.0,0.0,-0.2736,0.0,0.0,0.0,0.0,0.0,0.0,
2.56,run,-1.53,9.62,-30.22,10.45,11.9,-14.0,0.0,0.0,0.585,-3.34,-23.99,127.53,-8.79,11.69,111.88,-0.53,-6.24,64.42,-11.25,9.93,120.5,-14.41,15.73,37.44,9.4,7.73,118.21,-3.06,-23.08,132.67,-10.18,17.18,107.53,1.61,-8.16,63.53,-14.39,5.48,126.86,-12.34,14.6,32.89,10.65,9.62,119.39,-0.0875,0.035,0.7961,-0.2909,0.7668,0.4735,0.0461,0.3061,-0.0173,-0.429,0.5215,0.8457,-0.3526,0.7184,-0.6723,0.3043,0.6295,0.6811,0.006,0.013,0.585,0.026,0.254,0.0,0.013,0.006,0.0,0.019,0.0,0.5,0.052,0.013,0.0,0.013,0.006,0.0,-0.0644,-0.7655,0.8406,-0.1549,-0.1104,0.6029,-0.0169,-0.4525,-0.2792,-0.181,-0.1074,0.7133,-0.2577,-0.0598,-0.7164,0.1733,-0.1825,0.6657,0.0238,0.0185,0.1353,-0.0233,0.2076,-0.1009,0.059,0.0359,-0.0034,-0.1435,-0.0618,0.1703,0.0158,0.0557,-0.3168,0.0537,0.1164,0.1931,-0.4776,0.4958,-0.5811,0.4132,-0.0976,-0.0945,-0.0036,0.8435,-0.3044,0.7532,0.5064,0.0448,0.3287,-0.0285,-0.3684,0.5446,0.8693,-0.361,0.7472,-0.6577,0.3177,0.6432,0.6223,0.0,0.0,-0.2808,0.0,0.0,0.0,0.0,0.0,0.0,
2.6,run,-3.48,10.18,-40.82,7.86,8.35,-14.4,0.0,0.0,0.585,-3.25,-23.73,127.53,-9.05,13.01,110.3,0.44,-6.59,64.51,-12.39,8.96,121.03,-13.62,14.94,35.77,10.2,8.26,118.65,-2.92,-23.95,133.5,-10.07,17.72,106.03,1.57,-7.98,65.03,-14.64,4.52,128.36,-11.89,13.1,31.39,9.89,9.65,120.89,-0.0833,0.019,0.8058,-0.2877,0.7767,0.4635,0.0449,0.3094,0.0049,-0.4183,0.5368,0.8261,-0.3397,0.6914,-0.6361,0.2827,0.6299,0.6919,0.006,0.013,0.585,0.026,0.254,0.0,0.013,0.006,0.0,0.019,0.0,0.5,0.052,0.013,0.0,0.013,0.006,0.0,-0.0583,-0.7563,0.8406,-0.158,-0.089,0.5814,-0.0046,-0.4495,-0.2746,-0.1979,-0.1365,0.7225,-0.2485,-0.0614,-0.744,0.1626,-0.1764,0.6719,0.0396,0.0474,0.0947,-0.0278,0.2257,-0.151,0.0873,0.0366,0.0149,-0.1636,-0.1524,0.1537,0.0455,0.0332,-0.3251,-0.0026,0.1045,0.1581,-0.5755,0.5439,-0.5275,0.1825,0.2078,-0.0875,0.035,0.7961,-0.2909,0.7668,0.4735,0.0461,0.3061,-0.0173,-0.429,0.5215,0.8457,-0.3526,0.7184,-0.6723,0.3043,0.6295,0.6811,0.0,0.0,-0.288,0.0,0.0,0.0,0.0,0.0,0.0,
2.64,run,-4.12,10.57,-16.0,8.63,7.86,-14.8,0.0,0.0,0.585,-3.16,-23.55,127.53,-9.23,14.06,109.07,0.97,-7.21,64.34,-13.36,7.47,121.46,-13.18,14.06,34.45,10.46,8.44,119.09,-2.51,-23.1,133.04,-9.95,18.5,104.53,2.1,-8.2,66.53,-15.7,3.52,129.86,-10.9,11.6,29.89,9.42,9.43,122.39,-0.0716,0.0346,0.8004,-0.2842,0.7909,0.4391,0.0601,0.3054,0.0201,-0.4485,0.5186,0.8446,-0.3115,0.6513,-0.6362,0.2691,0.626,0.7221,0.006,0.013,0.585,0.026,0.254,0.0,0.013,0.006,0.0,0.019,0.0,0.5,0.052,0.013,0.0,0.013,0.006,0.0,-0.0568,-0.7517,0.8406,-0.1626,-0.066,0.5538,0.0123,-0.4556,-0.273,-0.2178,-0.1534,0.7317,-0.2347,-0.0752,-0.7731,0.1764,-0.1672,0.6796,0.0325,0.0474,0.0663,-0.0337,0.2292,-0.1912,0.1133,0.0066,0.0151,-0.1763,-0.1589,0.1361,0.0746,-0.0195,-0.3178,0.0409,0.1016,0.1344,-0.7448,0.592,-0.7125,0.1372,0.1457,-0.0833,0.019,0.8058,-0.2877,0.7767,0.4635,0.0449,0.3094,0.0049,-0.4183,0.5368,0.8261,-0.3397,0.6914,-0.6361,0.2827,0.6299,0.6919,0.0,0.0,-0.2952,0.0,0.0,0.0,0.0,0.0,0.0,
2.68,run,-4.61,11.03,-13.63,8.66,4.9,-15.1,0.0,0.0,2.392,-2.9,-23.55,127.53,-9.23,15.03,107.75,1.41,-7.73,64.16,-14.15,6.24,121.64,-12.57,13.27,32.96,10.46,9.05,119.62,-2.43,-24.6,134.54,-11.01,18.84,103.71,2.08,-9.08,65.03,-15.67,5.02,131.36,-11.48,10.12,28.39,9.63,10.93,123.89,-0.0695,-0.0035,0.8556,-0.3147,0.7971,0.4555,0.0594,0.2894,-0.0097,-0.4478,0.5501,0.8317,-0.3279,0.6386,-0.6838,0.2752,0.6551,0.7116,0.006,0.0,0.793,0.033,0.143,0.013,0.006,0.019,0.0,0.019,0.013,2.392,0.071,0.0,0.0,0.013,0.006,0.013,-0.0552,-0.7486,0.8406,-0.1657,-0.0476,0.5323,0.0215,-0.4663,-0.2761,-0.2347,-0.1795,0.7394,-0.227,-0.0905,-0.7961,0.181,-0.1641,0.6872,0.0285,0.0446,0.0464,-0.0351,0.2292,-0.214,0.1137,-0.0354,-0.0008,-0.1864,-0.2086,0.1239,0.0809,-0.0709,-0.3084,0.0458,0.0826,0.1227,-0.8015,0.6266,-0.2792,0.1506,0.1371,-0.0716,0.0346,0.8004,-0.2842,0.7909,0.4391,0.0601,0.3054,0.0201,-0.4485,0.5186,0.8446,-0.3115,0.6513,-0.6362,0.2691,0.626,0.7221,0.0,0.0,-0.3024,0.0,0.0,0.0,0.0,0.0,0.0,
2.72,run,-5.27,11.31,-19.69,6.05,1.08,-15.5,0.0,0.0,2.392,-2.64,-23.55,127.53,-9.23,15.91,106.26,1.76,-8.09,64.07,-14.94,5.27,121.64,-12.13,11.87,31.73,9.84,9.49,120.23,-2.45,-25.0,136.04,-11.22,19.03,103.83,2.11,-9.47,63.53,-16.22,4.95,132.86,-11.72,9.7,26.89,9.6,11.57,125.22,-0.0699,-0.0001,0.8653,-0.3207,0.8006,0.4568,0.0604,0.2823,-0.0217,-0.4634,0.5445,0.8407,-0.3349,0.6309,-0.7155,0.2744,0.6649,0.7084,0.006,0.0,0.793,0.033,0.143,0.013,0.006,0.019,0.0,0.019,0.013,2.392,0.071,0.0,0.0,0.013,0.006,0.013,-0.0506,-0.7486,0.8406,-0.1657,-0.0307,0.5093,0.0291,-0.4755,-0.2792,-0.2485,-0.201,0.7424,-0.2163,-0.1043,-0.8222,0.181,-0.1534,0.6964,0.0371,0.0313,0.0325,-0.0245,0.2234,-0.2357,0.1082,-0.0592,-0.012,-0.182,-0.2261,0.0982,0.0967,-0.1011,-0.3132,0.0321,0.0979,0.1203,-0.8435,0.6662,-0.2379,0.1512,0.0856,-0.0695,-0.0035,0.8556,-0.3147,0.7971,0.4555,0.0594,0.2894,-0.0097,-0.4478,0.5501,0.8317,-0.3279,0.6386,-0.6838,0.2752,0.6551,0.7116,0.0,0.0,-0.3096,0.0,0.0,0.0,0.0,0.0,0.0,
2.76,run,-5.73,11.43,-12.17,1.87,1.15,-15.8,0.0,0.0,2.392,-2.55,-23.73,127.71,-9.58,16.52,105.03,1.93,-8.7,64.07,-15.47,4.39,121.64,-11.87,10.9,30.23,9.58,9.93,121.11,-2.48,-24.78,137.54,-11.08,19.01,103.27,2.2,-10.06,63.11,-16.66,4.36,134.36,-11.41,8.85,25.39,9.48,11.26,126.01,-0.0709,0.0041,0.861,-0.3165,0.8002,0.4503,0.063,0.2716,-0.0222,-0.4759,0.5338,0.849,-0.3259,0.6154,-0.7236,0.271,0.6592,0.7178,0.006,0.0,0.793,0.033,0.143,0.013,0.006,0.019,0.0,0.019,0.013,2.392,0.071,0.0,0.0,0.013,0.006,0.013,-0.046,-0.7486,0.8406,-0.1657,-0.0153,0.4832,0.0353,-0.4817,-0.2807,-0.2623,-0.2178,0.7424,-0.2086,-0.1289,-0.8437,0.1703,-0.1457,0.7072,0.0434,0.0219,0.0227,-0.0172,0.2143,-0.2635,0.0989,-0.0646,-0.0142,-0.1795,-0.222,0.0687,0.0966,-0.1635,-0.3003,-0.0181,0.0975,0.1247,-0.9014,0.6913,-0.3437,0.1056,0.0188,-0.0699,-0.0001,0.8653,-0.3207,0.8006,0.4568,0.0604,0.2823,-0.0217,-0.4634,0.5445,0.8407,-0.3349,0.6309,-0.7155,0.2744,0.6649,0.7084,0.0,0.0,-0.3168,0.0,0.0,0.0,0.0,0.0,0.0,
2.8,run,-6.0,11.68,-5.82,5.92,-1.01,-16.2,0.0,0.0,5.778,-2.55,-24.26,128.5,-10.02,16.96,104.15,1.93,-9.32,64.25,-16.08,3.96,121.64,-11.87,9.76,28.83,9.49,10.55,122.61,-2.33,-25.54,139.04,-11.37,19.14,103.67,2.25,-10.59,62.98,-16.64,5.2,135.86,-11.46,7.85,23.89,9.43,11.55,126.37,-0.0666,-0.0097,0.878,-0.3249,0.8026,0.4549,0.0643,0.262,-0.0238,-0.4754,0.5492,0.8377,-0.3273,0.5973,-0.7323,0.2693,0.6645,0.7219,0.006,0.0,1.131,0.026,0.078,0.006,0.006,0.019,0.0,0.013,0.0,5.778,0.006,0.0,0.0,0.0,0.006,0.013,-0.0445,-0.7517,0.8437,-0.1718,-0.0046,0.4617,0.0383,-0.4924,-0.2807,-0.2715,-0.2332,0.7424,-0.204,-0.1457,-0.8698,0.1657,-0.1381,0.7225,0.036,0.0039,0.0273,-0.0348,0.1899,-0.2642,0.0806,-0.0851,-0.01,-0.1599,-0.2124,0.0481,0.0847,-0.1772,-0.3071,-0.0298,0.0967,0.1443,-0.942,0.7013,-0.2124,0.0326,0.02,-0.0709,0.0041,0.861,-0.3165,0.8002,0.4503,0.063,0.2716,-0.0222,-0.4759,0.5338,0.849,-0.3259,0.6154,-0.7236,0.271,0.6592,0.7178,0.0,0.0,-0.324,0.0,0.0,0.0,0.0,0.0,0.0,
2.94,tail,-7.96,13.19,-15.05,12.36,-0.2,,0.0,0.0,5.778,-2.2,-26.81,120.41,-10.28,13.54,100.11,1.93,-9.49,64.34,-16.35,3.43,116.81,-12.57,3.52,22.15,9.4,10.9,124.28,,,,,,,,,,,,,,,,,,,,,,,,,,,,,,,,,,,,,0.0,0.0,0.0,0.0,0.0,0.0,0.0,0.0,0.0,0.0,0.0,0.0,0.0,0.0,0.0,0.0,0.0,0.0,,,,,,,,,,,,,,,,,,,,,,,,,,,,,,,,,,,,,,,,,,,,,,,,,,,,,,,,,,,,,,,,,,,,,
3.04,tail,-10.06,14.92,-17.23,13.58,7.43,,0.0,0.0,5.778,-2.11,-29.53,114.79,-10.37,11.07,94.75,2.02,-9.05,64.34,-16.35,3.25,118.48,-13.36,-1.58,15.47,9.4,12.13,124.19,,,,,,,,,,,,,,,,,,,,,,,,,,,,,,,,,,,,,0.0,0.0,0.0,0.0,0.0,0.0,0.0,0.0,0.0,0.0,0.0,0.0,0.0,0.0,0.0,0.0,0.0,0.0,,,,,,,,,,,,,,,,,,,,,,,,,,,,,,,,,,,,,,,,,,,,,,,,,,,,,,,,,,,,,,,,,,,,,
3.14,tail,-11.33,15.42,-9.96,3.87,6.54,,0.0,0.0,5.778,-2.11,-29.88,114.87,-10.46,11.16,92.29,2.02,-9.05,64.34,-16.35,3.69,118.21,-13.36,-1.76,11.69,9.32,13.27,124.19,,,,,,,,,,,,,,,,,,,,,,,,,,,,,,,,,,,,,0.0,0.0,0.0,0.0,0.0,0.0,0.0,0.0,0.0,0.0,0.0,0.0,0.0,0.0,0.0,0.0,0.0,0.0,,,,,,,,,,,,,,,,,,,,,,,,,,,,,,,,,,,,,,,,,,,,,,,,,,,,,,,,,,,,,,,,,,,,,
3.24,tail,-11.8,15.99,-3.53,4.51,1.36,,0.0,0.0,5.778,-2.11,-29.44,114.87,-10.46,11.16,92.37,2.02,-9.05,64.34,-16.35,3.25,118.21,-13.36,-1.76,9.93,9.32,15.56,124.1,,,,,,,,,,,,,,,,,,,,,,,,,,,,,,,,,,,,,0.0,0.0,0.0,0.0,0.0,0.0,0.006,0.0,0.0,0.0,0.0,0.0,0.0,0.0,0.0,0.0,0.0,0.0,,,,,,,,,,,,,,,,,,,,,,,,,,,,,,,,,,,,,,,,,,,,,,,,,,,,,,,,,,,,,,,,,,,,,
3.34,tail,-11.85,16.01,-0.25,-0.25,6.99,,0.0,0.0,5.778,-2.11,-29.79,114.96,-10.46,11.16,92.37,2.02,-9.05,64.34,-16.35,3.16,118.12,-13.36,-1.76,9.67,9.32,17.31,124.01,,,,,,,,,,,,,,,,,,,,,,,,,,,,,,,,,,,,,0.0,0.0,0.0,0.0,0.0,0.006,0.0,0.0,0.0,0.0,0.0,0.0,0.0,0.0,0.0,0.0,0.0,0.0,,,,,,,,,,,,,,,,,,,,,,,,,,,,,,,,,,,,,,,,,,,,,,,,,,,,,,,,,,,,,,,,,,,,,
3.44,tail,-12.11,16.2,-2.03,1.22,0.7,,0.0,0.0,5.778,-2.11,-29.79,114.96,-10.46,11.16,92.37,2.02,-9.05,64.34,-16.35,3.16,118.12,-13.36,-1.76,9.67,9.32,18.9,123.93,,,,,,,,,,,,,,,,,,,,,,,,,,,,,,,,,,,,,0.0,0.0,0.0,0.0,0.0,0.0,0.0,0.0,0.0,0.0,0.0,0.0,0.0,0.0,0.0,0.0,0.0,0.0,,,,,,,,,,,,,,,,,,,,,,,,,,,,,,,,,,,,,,,,,,,,,,,,,,,,,,,,,,,,,,,,,,,,,
3.54,tail,-12.27,16.42,-1.24,1.55,1.46,,0.0,0.0,5.778,-2.11,-29.79,114.96,-10.46,11.16,92.37,2.02,-9.05,64.34,-16.35,3.16,118.12,-13.36,-1.76,9.67,9.32,19.51,123.93,,,,,,,,,,,,,,,,,,,,,,,,,,,,,,,,,,,,,0.0,0.0,0.0,0.0,0.0,0.0,0.0,0.0,0.0,0.0,0.0,0.0,0.0,0.0,0.0,0.0,0.0,0.0,,,,,,,,,,,,,,,,,,,,,,,,,,,,,,,,,,,,,,,,,,,,,,,,,,,,,,,,,,,,,,,,,,,,,
3.64,tail,-12.27,16.45,0.19,-0.05,0.01,,0.0,0.0,5.778,-2.11,-29.79,114.96,-10.46,11.16,92.37,2.02,-9.05,64.34,-16.35,3.16,118.12,-13.36,-1.85,9.67,9.32,19.51,123.93,,,,,,,,,,,,,,,,,,,,,,,,,,,,,,,,,,,,,0.0,0.0,0.0,0.0,0.0,0.0,0.0,0.0,0.0,0.0,0.0,0.0,0.0,0.0,0.0,0.0,0.0,0.0,,,,,,,,,,,,,,,,,,,,,,,,,,,,,,,,,,,,,,,,,,,,,,,,,,,,,,,,,,,,,,,,,,,,,
3.74,tail,-12.32,16.49,-0.23,0.16,0.42,,0.0,0.0,5.778,-2.11,-29.79,114.96,-10.46,11.16,92.37,2.02,-9.05,64.34,-16.35,3.16,118.12,-13.36,-1.85,9.67,9.32,19.51,123.93,,,,,,,,,,,,,,,,,,,,,,,,,,,,,,,,,,,,,0.0,0.0,0.0,0.0,0.0,0.0,0.0,0.0,0.0,0.0,0.0,0.0,0.0,0.0,0.0,0.0,0.0,0.0,,,,,,,,,,,,,,,,,,,,,,,,,,,,,,,,,,,,,,,,,,,,,,,,,,,,,,,,,,,,,,,,,,,,,
3.84,tail,-12.35,16.53,-0.11,0.04,0.61,,0.0,0.0,5.778,-2.11,-29.79,114.96,-10.46,11.16,92.37,2.02,-9.05,64.34,-16.35,3.16,118.12,-13.36,-1.85,9.67,9.32,19.51,123.93,,,,,,,,,,,,,,,,,,,,,,,,,,,,,,,,,,,,,0.0,0.0,0.0,0.0,0.0,0.0,0.0,0.0,0.0,0.0,0.0,0.0,0.0,0.0,0.0,0.0,0.0,0.0,,,,,,,,,,,,,,,,,,,,,,,,,,,,,,,,,,,,,,,,,,,,,,,,,,,,,,,,,,,,,,,,,,,,,
3.94,tail,-12.38,16.57,-0.1,0.08,0.54,,0.0,0.0,5.778,-2.11,-29.79,114.96,-10.46,11.16,92.37,2.02,-9.05,64.34,-16.35,3.16,118.12,-13.36,-1.85,9.67,9.32,19.6,123.93,,,,,,,,,,,,,,,,,,,,,,,,,,,,,,,,,,,,,0.0,0.0,0.0,0.0,0.0,0.0,0.0,0.0,0.0,0.0,0.0,0.0,0.0,0.0,0.0,0.0,0.0,0.0,,,,,,,,,,,,,,,,,,,,,,,,,,,,,,,,,,,,,,,,,,,,,,,,,,,,,,,,,,,,,,,,,,,,,
4.04,tail,-12.41,16.6,-0.14,0.03,0.45,,0.0,0.0,5.778,-2.11,-29.79,114.96,-10.46,11.16,92.37,2.02,-9.05,64.34,-16.35,3.16,118.12,-13.36,-1.85,9.67,9.32,19.6,123.93,,,,,,,,,,,,,,,,,,,,,,,,,,,,,,,,,,,,,0.0,0.0,0.0,0.0,0.0,0.0,0.0,0.0,0.0,0.0,0.0,0.0,0.0,0.0,0.0,0.0,0.0,0.0,,,,,,,,,,,,,,,,,,,,,,,,,,,,,,,,,,,,,,,,,,,,,,,,,,,,,,,,,,,,,,,,,,,,,
4.14,tail,-12.45,16.64,-0.23,0.09,0.44,,0.0,0.0,5.778,-2.11,-29.79,114.96,-10.46,11.16,92.37,2.02,-9.05,64.34,-16.35,3.16,118.12,-13.36,-1.85,9.67,9.32,19.6,123.93,,,,,,,,,,,,,,,,,,,,,,,,,,,,,,,,,,,,,0.0,0.0,0.0,0.0,0.0,0.0,0.0,0.0,0.0,0.0,0.0,0.0,0.0,0.0,0.0,0.0,0.0,0.0,,,,,,,,,,,,,,,,,,,,,,,,,,,,,,,,,,,,,,,,,,,,,,,,,,,,,,,,,,,,,,,,,,,,,
4.24,tail,-12.49,16.67,-0.19,0.05,0.37,,0.0,0.0,5.778,-2.11,-29.79,114.96,-10.46,11.16,92.37,2.02,-9.05,64.34,-16.35,3.16,118.12,-13.36,-1.85,9.67,9.32,19.6,123.93,,,,,,,,,,,,,,,,,,,,,,,,,,,,,,,,,,,,,0.0,0.0,0.0,0.0,0.0,0.0,0.0,0.0,0.0,0.0,0.0,0.0,0.0,0.0,0.0,0.0,0.0,0.0,,,,,,,,,,,,,,,,,,,,,,,,,,,,,,,,,,,,,,,,,,,,,,,,,,,,,,,,,,,,,,,,,,,,,
4.34,tail,-12.53,16.71,-0.21,0.11,0.48,,0.0,0.0,5.778,-2.11,-29.79,114.96,-10.46,11.16,92.37,2.02,-9.05,64.34,-16.35,3.16,118.12,-13.36,-1.85,9.67,9.32,19.6,123.93,,,,,,,,,,,,,,,,,,,,,,,,,,,,,,,,,,,,,0.0,0.0,0.0,0.0,0.0,0.0,0.0,0.0,0.0,0.0,0.0,0.0,0.0,0.0,0.0,0.0,0.0,0.0,,,,,,,,,,,,,,,,,,,,,,,,,,,,,,,,,,,,,,,,,,,,,,,,,,,,,,,,,,,,,,,,,,,,,
4.44,tail,-12.58,16.75,-0.27,0.16,0.35,,0.0,0.0,5.778,-2.11,-29.79,114.96,-10.46,11.16,92.37,2.02,-9.05,64.34,-16.35,3.16,118.12,-13.36,-1.85,9.67,9.32,19.6,123.93,,,,,,,,,,,,,,,,,,,,,,,,,,,,,,,,,,,,,0.0,0.0,0.0,0.0,0.0,0.0,0.0,0.0,0.0,0.0,0.0,0.0,0.0,0.0,0.0,0.0,0.0,0.0,,,,,,,,,,,,,,,,,,,,,,,,,,,,,,,,,,,,,,,,,,,,,,,,,,,,,,,,,,,,,,,,,,,,,
4.54,tail,-12.61,16.79,-0.14,0.07,0.48,,0.0,0.0,5.778,-2.11,-29.79,114.96,-10.46,11.16,92.37,2.02,-9.05,64.34,-16.35,3.16,118.12,-13.36,-1.85,9.67,9.32,19.6,123.93,,,,,,,,,,,,,,,,,,,,,,,,,,,,,,,,,,,,,0.0,0.0,0.0,0.0,0.0,0.0,0.0,0.0,0.0,0.0,0.0,0.0,0.0,0.0,0.0,0.0,0.0,0.0,,,,,,,,,,,,,,,,,,,,,,,,,,,,,,,,,,,,,,,,,,,,,,,,,,,,,,,,,,,,,,,,,,,,,
4.64,tail,-12.64,16.81,-0.16,0.01,0.47,,0.0,0.0,5.778,-2.11,-29.79,114.96,-10.46,11.16,92.37,2.02,-9.05,64.34,-16.35,3.16,118.12,-13.36,-1.85,9.67,9.32,19.6,123.93,,,,,,,,,,,,,,,,,,,,,,,,,,,,,,,,,,,,,0.0,0.0,0.0,0.0,0.0,0.0,0.0,0.0,0.0,0.0,0.0,0.0,0.0,0.0,0.0,0.0,0.0,0.0,,,,,,,,,,,,,,,,,,,,,,,,,,,,,,,,,,,,,,,,,,,,,,,,,,,,,,,,,,,,,,,,,,,,,
4.74,tail,-12.66,16.84,-0.1,0.03,0.45,,0.0,0.0,5.778,-2.11,-29.79,114.96,-10.46,11.16,92.37,2.02,-9.05,64.34,-16.35,3.16,118.12,-13.36,-1.85,9.67,9.32,19.6,123.93,,,,,,,,,,,,,,,,,,,,,,,,,,,,,,,,,,,,,0.0,0.0,0.0,0.0,0.0,0.0,0.0,0.0,0.0,0.0,0.0,0.0,0.0,0.0,0.0,0.0,0.0,0.0,,,,,,,,,,,,,,,,,,,,,,,,,,,,,,,,,,,,,,,,,,,,,,,,,,,,,,,,,,,,,,,,,,,,,
4.84,tail,-12.71,16.88,-0.22,0.05,0.43,,0.0,0.0,5.778,-2.11,-29.79,114.96,-10.46,11.16,92.37,2.02,-9.05,64.34,-16.35,3.16,118.12,-13.36,-1.85,9.67,9.32,19.6,123.93,,,,,,,,,,,,,,,,,,,,,,,,,,,,,,,,,,,,,0.0,0.0,0.0,0.0,0.0,0.0,0.0,0.006,0.0,0.0,0.0,0.0,0.0,0.0,0.0,0.0,0.0,0.0,,,,,,,,,,,,,,,,,,,,,,,,,,,,,,,,,,,,,,,,,,,,,,,,,,,,,,,,,,,,,,,,,,,,,
4.94,tail,-12.73,16.91,-0.15,0.05,0.45,,0.0,0.0,5.778,-2.11,-29.79,114.96,-10.46,11.16,92.37,2.02,-9.05,64.34,-16.35,3.16,118.12,-13.36,-1.85,9.67,9.32,19.6,123.93,,,,,,,,,,,,,,,,,,,,,,,,,,,,,,,,,,,,,0.0,0.0,0.0,0.0,0.0,0.0,0.0,0.0,0.0,0.0,0.0,0.0,0.0,0.0,0.0,0.0,0.0,0.0,,,,,,,,,,,,,,,,,,,,,,,,,,,,,,,,,,,,,,,,,,,,,,,,,,,,,,,,,,,,,,,,,,,,,
5.04,tail,-12.76,16.93,-0.19,0.02,0.44,,0.0,0.0,5.778,-2.11,-29.79,114.96,-10.46,11.16,92.37,2.02,-9.05,64.34,-16.35,3.16,118.12,-13.36,-1.85,9.67,9.32,19.6,123.93,,,,,,,,,,,,,,,,,,,,,,,,,,,,,,,,,,,,,0.0,0.0,0.0,0.0,0.0,0.0,0.0,0.0,0.0,0.0,0.0,0.0,0.0,0.0,0.0,0.0,0.0,0.0,,,,,,,,,,,,,,,,,,,,,,,,,,,,,,,,,,,,,,,,,,,,,,,,,,,,,,,,,,,,,,,,,,,,,
5.14,tail,-12.78,16.97,-0.09,0.09,0.4,,0.0,0.0,5.778,-2.11,-29.79,114.96,-10.46,11.16,92.37,2.02,-9.05,64.34,-16.35,3.16,118.12,-13.36,-1.85,9.67,9.32,19.6,123.93,,,,,,,,,,,,,,,,,,,,,,,,,,,,,,,,,,,,,0.0,0.0,0.0,0.0,0.0,0.0,0.0,0.0,0.0,0.0,0.0,0.0,0.0,0.0,0.0,0.0,0.0,0.0,,,,,,,,,,,,,,,,,,,,,,,,,,,,,,,,,,,,,,,,,,,,,,,,,,,,,,,,,,,,,,,,,,,,,
5.24,tail,-12.81,17.0,-0.11,0.05,0.37,,0.0,0.0,5.778,-2.11,-29.79,114.96,-10.46,11.16,92.37,2.02,-9.05,64.34,-16.35,3.16,118.12,-13.36,-1.93,9.67,9.32,19.6,123.93,,,,,,,,,,,,,,,,,,,,,,,,,,,,,,,,,,,,,0.0,0.0,0.0,0.0,0.0,0.0,0.0,0.0,0.0,0.0,0.0,0.0,0.0,0.0,0.0,0.0,0.0,0.0,,,,,,,,,,,,,,,,,,,,,,,,,,,,,,,,,,,,,,,,,,,,,,,,,,,,,,,,,,,,,,,,,,,,,
5.34,tail,-12.83,17.02,-0.13,0.01,0.46,,0.0,0.0,5.778,-2.11,-29.79,114.96,-10.46,11.16,92.37,2.02,-9.05,64.34,-16.35,3.16,118.12,-13.36,-1.93,9.67,9.32,19.6,123.93,,,,,,,,,,,,,,,,,,,,,,,,,,,,,,,,,,,,,0.0,0.0,0.0,0.0,0.0,0.0,0.0,0.0,0.0,0.0,0.0,0.0,0.0,0.0,0.0,0.0,0.0,0.0,,,,,,,,,,,,,,,,,,,,,,,,,,,,,,,,,,,,,,,,,,,,,,,,,,,,,,,,,,,,,,,,,,,,,
5.44,tail,-12.86,17.05,-0.17,0.06,0.46,,0.0,0.0,5.778,-2.11,-29.79,114.96,-10.46,11.16,92.37,2.02,-9.05,64.34,-16.35,3.16,118.12,-13.36,-1.93,9.67,9.32,19.6,123.93,,,,,,,,,,,,,,,,,,,,,,,,,,,,,,,,,,,,,0.0,0.0,0.0,0.0,0.0,0.0,0.0,0.0,0.0,0.0,0.0,0.0,0.0,0.0,0.0,0.0,0.0,0.0,,,,,,,,,,,,,,,,,,,,,,,,,,,,,,,,,,,,,,,,,,,,,,,,,,,,,,,,,,,,,,,,,,,,,
5.54,tail,-12.88,17.08,-0.15,0.09,0.47,,0.0,0.0,5.778,-2.11,-29.79,114.96,-10.46,11.16,92.37,2.02,-9.05,64.34,-16.35,3.16,118.12,-13.36,-1.93,9.67,9.32,19.6,123.93,,,,,,,,,,,,,,,,,,,,,,,,,,,,,,,,,,,,,0.0,0.0,0.0,0.0,0.0,0.0,0.0,0.0,0.0,0.0,0.0,0.0,0.0,0.0,0.0,0.0,0.0,0.0,,,,,,,,,,,,,,,,,,,,,,,,,,,,,,,,,,,,,,,,,,,,,,,,,,,,,,,,,,,,,,,,,,,,,
5.64,tail,-12.9,17.1,-0.06,-0.0,0.51,,0.0,0.0,5.778,-2.11,-29.79,114.96,-10.46,11.16,92.37,2.02,-9.05,64.34,-16.35,3.16,118.12,-13.36,-1.93,9.67,9.32,19.6,123.93,,,,,,,,,,,,,,,,,,,,,,,,,,,,,,,,,,,,,0.0,0.0,0.0,0.0,0.0,0.0,0.0,0.0,0.0,0.0,0.0,0.0,0.0,0.0,0.0,0.0,0.0,0.0,,,,,,,,,,,,,,,,,,,,,,,,,,,,,,,,,,,,,,,,,,,,,,,,,,,,,,,,,,,,,,,,,,,,,
5.74,tail,-12.92,17.13,-0.1,0.07,0.42,,0.0,0.0,5.778,-2.11,-29.79,114.96,-10.46,11.16,92.37,2.02,-9.05,64.34,-16.35,3.16,118.12,-13.36,-1.93,9.67,9.32,19.6,123.93,,,,,,,,,,,,,,,,,,,,,,,,,,,,,,,,,,,,,0.0,0.0,0.0,0.0,0.0,0.0,0.0,0.0,0.0,0.0,0.0,0.0,0.0,0.0,0.006,0.0,0.0,0.0,,,,,,,,,,,,,,,,,,,,,,,,,,,,,,,,,,,,,,,,,,,,,,,,,,,,,,,,,,,,,,,,,,,,,
5.84,tail,-12.94,17.15,-0.14,0.03,0.47,,0.0,0.0,5.778,-2.11,-29.79,114.96,-10.46,11.16,92.37,2.02,-9.05,64.34,-16.35,3.16,118.12,-13.36,-1.93,9.67,9.32,19.6,123.93,,,,,,,,,,,,,,,,,,,,,,,,,,,,,,,,,,,,,0.0,0.0,0.0,0.0,0.0,0.0,0.0,0.0,0.0,0.0,0.0,0.0,0.0,0.0,0.0,0.0,0.0,0.0,,,,,,,,,,,,,,,,,,,,,,,,,,,,,,,,,,,,,,,,,,,,,,,,,,,,,,,,,,,,,,,,,,,,,
