t_s,phase,roll_deg,pitch_deg,gyro_x_dps,gyro_y_dps,gyro_z_dps,height_ref_mm,vx_ref_mps,vy_ref_mps,max_cur_a,q0_deg,q1_deg,q2_deg,q3_deg,q4_deg,q5_deg,q6_deg,q7_deg,q8_deg,q9_deg,q10_deg,q11_deg,q12_deg,q13_deg,q14_deg,q15_deg,q16_deg,q17_deg,cmd0_deg,cmd1_deg,cmd2_deg,cmd3_deg,cmd4_deg,cmd5_deg,cmd6_deg,cmd7_deg,cmd8_deg,cmd9_deg,cmd10_deg,cmd11_deg,cmd12_deg,cmd13_deg,cmd14_deg,cmd15_deg,cmd16_deg,cmd17_deg,act0,act1,act2,act3,act4,act5,act6,act7,act8,act9,act10,act11,act12,act13,act14,act15,act16,act17,cur0_a,cur1_a,cur2_a,cur3_a,cur4_a,cur5_a,cur6_a,cur7_a,cur8_a,cur9_a,cur10_a,cur11_a,cur12_a,cur13_a,cur14_a,cur15_a,cur16_a,cur17_a,obs0,obs1,obs2,obs3,obs4,obs5,obs6,obs7,obs8,obs9,obs10,obs11,obs12,obs13,obs14,obs15,obs16,obs17,obs18,obs19,obs20,obs21,obs22,obs23,obs24,obs25,obs26,obs27,obs28,obs29,obs30,obs31,obs32,obs33,obs34,obs35,obs36,obs37,obs38,obs39,obs40,obs41,obs42,obs43,obs44,obs45,obs46,obs47,obs48,obs49,obs50,obs51,obs52,obs53,obs54,obs55,obs56,obs57,obs58,obs59,obs60,obs61,obs62,obs63,obs64,obs65,obs66,obs67,rot60_k
0.0,run,0.66,3.44,0.04,0.04,0.06,0.0,0.0,0.0,0.019,0.0,0.44,0.26,0.18,0.62,0.09,0.18,0.18,0.44,0.09,0.53,0.09,0.0,0.09,0.26,0.09,0.62,0.26,-0.01,-1.06,1.76,1.68,-0.93,1.59,1.68,-1.32,1.94,-1.41,1.94,1.59,1.5,-1.41,1.68,1.59,-0.97,1.76,-0.0003,0.3335,-0.0868,0.1321,0.4377,-0.3181,0.1661,-0.0846,-0.2022,-0.225,0.5719,-0.0854,0.07,-0.0315,-0.2554,0.4159,0.436,-0.1813,0.0,0.006,0.0,0.006,0.013,0.013,0.006,0.019,0.006,0.013,0.0,0.006,0.013,0.013,0.006,0.013,0.006,0.006,0.0,0.0,0.0,0.0,0.0015,0.0,0.0,0.0031,0.0,0.0,0.0015,0.0,0.0,0.0,0.0015,0.0,0.0015,0.0,0.0,0.0,0.0,0.0,0.003,0.0,0.0,0.0059,0.0,0.0,0.003,0.0,0.0,0.0,0.0032,0.0,0.003,0.0,0.0,0.0,-0.0012,0.0006,0.0007,0.0,0.0,0.0,0.0,0.0,0.0,0.0,0.0,0.0,0.0,0.0,0.0,0.0,0.0,0.0,0.0,0.0,0.0,0.0,0.0,0.0,0.0,0.0,0.0,0.0,0.0,0.0,
0.04,run,0.64,3.44,-0.16,0.02,0.15,0.0,0.0,0.0,0.019,0.0,0.44,0.26,0.18,0.53,0.35,0.18,-0.18,0.53,-0.26,0.53,0.26,0.09,-0.09,0.35,0.09,0.53,0.44,-0.46,0.44,3.26,3.18,0.57,3.09,3.18,-2.82,3.44,-2.11,3.44,3.09,3.0,-2.91,3.18,3.09,0.53,3.26,-0.0132,0.5439,-0.289,0.1646,0.5597,-0.4448,0.1799,0.1613,-0.1694,-0.0601,0.6153,-0.4046,0.1371,0.1328,-0.0299,0.3352,0.5776,-0.52,0.0,0.006,0.0,0.006,0.013,0.013,0.006,0.019,0.006,0.013,0.0,0.006,0.013,0.013,0.006,0.013,0.006,0.006,0.0,0.0,0.0,0.0,0.0015,0.0,0.0,0.0,0.0,0.0,0.0015,0.0,0.0,0.0,0.0015,0.0,0.0015,0.0,0.0,0.0,0.0,0.0,0.0021,0.0,0.0,-0.0009,0.0,0.0,0.0021,0.0,0.0,0.0,0.0022,0.0,0.0021,0.0,-0.0,0.0006,0.0007,0.0007,0.0011,-0.0003,0.3335,-0.0868,0.1321,0.4377,-0.3181,0.1661,-0.0846,-0.2022,-0.225,0.5719,-0.0854,0.07,-0.0315,-0.2554,0.4159,0.436,-0.1813,0.0,0.0,0.0,0.0,0.0,0.0,0.0,0.0,0.0,
0.08,run,0.66,3.48,0.44,0.58,0.72,0.0,0.0,0.0,0.019,-0.09,0.09,0.97,0.26,0.18,0.97,0.44,-0.62,1.05,-0.97,1.14,1.05,0.97,-0.88,1.14,1.23,0.26,0.97,-0.33,1.94,4.76,4.68,2.07,4.59,4.68,-4.32,4.94,-0.63,4.94,4.59,4.5,-4.41,4.68,4.59,2.03,4.76,-0.0094,0.6108,-0.3739,0.1917,0.634,-0.4832,0.2017,0.1771,-0.0871,-0.018,0.6317,-0.4581,0.1619,0.1742,-0.0767,0.2852,0.5579,-0.5106,0.0,0.006,0.0,0.006,0.013,0.013,0.006,0.019,0.006,0.013,0.0,0.006,0.013,0.013,0.006,0.013,0.006,0.006,0.0,0.0,0.0,0.0,0.0,0.0046,0.0,-0.0061,0.0015,-0.0061,0.0015,0.0031,0.0015,-0.0031,0.0031,0.0,0.0,0.0031,0.0,0.0,0.0,0.0,-0.0043,0.0171,0.0,-0.0235,0.0057,-0.0229,0.0015,0.0114,0.0057,-0.0114,0.0073,0.0,-0.0043,0.0114,-0.0016,0.0006,-0.0028,0.0003,0.0026,-0.0132,0.5439,-0.289,0.1646,0.5597,-0.4448,0.1799,0.1613,-0.1694,-0.0601,0.6153,-0.4046,0.1371,0.1328,-0.0299,0.3352,0.5776,-0.52,0.0,0.0,0.0,0.0,0.0,0.0,0.0,0.0,0.0,
0.12,run,0.63,3.44,-0.66,-0.53,-1.65,0.0,0.0,0.0,0.026,-0.53,-0.26,1.76,1.49,-0.09,2.02,1.49,-1.49,1.32,-1.58,2.02,2.11,1.93,-1.85,2.2,2.11,0.0,1.76,-0.45,3.44,6.26,6.18,3.57,6.09,6.18,-5.82,6.44,-0.02,6.44,6.09,5.12,-5.91,6.18,6.09,3.53,6.26,-0.0128,0.5934,-0.387,0.1788,0.6294,-0.4955,0.1946,0.1738,-0.1105,-0.0006,0.6267,-0.477,0.1463,0.187,-0.1301,0.2747,0.576,-0.5398,0.006,0.0,0.013,0.006,0.0,0.013,0.013,0.026,0.026,0.006,0.006,0.006,0.019,0.026,0.013,0.026,0.0,0.006,-0.0015,-0.0061,0.0123,0.0015,-0.0061,0.0153,0.0046,-0.0138,0.0107,-0.0184,0.0123,0.0169,0.0169,-0.0169,0.0169,0.0199,-0.0046,0.0123,-0.0057,-0.0229,0.0459,0.0057,-0.0259,0.0522,0.0172,-0.0451,0.0384,-0.0619,0.0412,0.0596,0.0614,-0.0596,0.0567,0.0746,-0.0202,0.0424,0.0003,0.0037,0.0077,0.0102,0.0126,-0.0094,0.6108,-0.3739,0.1917,0.634,-0.4832,0.2017,0.1771,-0.0871,-0.018,0.6317,-0.4581,0.1619,0.1742,-0.0767,0.2852,0.5579,-0.5106,0.0,0.0,0.0,0.0,0.0,0.0,0.0,0.0,0.0,
0.16,run,0.64,3.42,-0.04,0.0,0.73,0.0,0.0,0.0,0.026,-0.44,-0.18,2.9,2.64,-0.09,3.25,2.64,-2.81,2.64,-1.93,3.16,3.25,3.08,-2.99,3.34,3.08,0.09,2.9,-1.03,4.94,7.76,5.62,5.07,7.59,5.92,-7.32,7.94,0.12,7.42,7.59,3.82,-7.41,7.68,7.59,5.03,7.76,-0.0295,0.5583,-0.4032,0.1605,0.5864,-0.5054,0.1692,0.2028,-0.1955,0.0035,0.5895,-0.4946,0.1093,0.2124,-0.2619,0.2656,0.5756,-0.593,0.006,0.0,0.013,0.006,0.0,0.013,0.013,0.026,0.026,0.006,0.006,0.006,0.019,0.026,0.013,0.026,0.0,0.006,-0.0092,-0.0123,0.0261,0.023,-0.0107,0.0337,0.023,-0.0291,0.0153,-0.0291,0.0276,0.0353,0.0337,-0.0337,0.0353,0.0353,-0.0092,0.0261,-0.0327,-0.039,0.0837,0.0842,-0.0353,0.1052,0.0808,-0.0889,0.0441,-0.0834,0.0861,0.1105,0.106,-0.1047,0.1084,0.1095,-0.0313,0.0812,-0.0028,0.0005,-0.0116,-0.0093,-0.0287,-0.0128,0.5934,-0.387,0.1788,0.6294,-0.4955,0.1946,0.1738,-0.1105,-0.0006,0.6267,-0.477,0.1463,0.187,-0.1301,0.2747,0.576,-0.5398,0.0,0.0,0.0,0.0,0.0,0.0,0.0,0.0,0.0,
0.2,run,0.61,3.43,-0.49,-0.11,-2.46,0.0,0.0,0.0,0.026,-0.35,0.18,4.04,3.78,0.26,4.48,3.78,-4.04,3.96,-1.93,4.39,4.57,4.04,-4.13,4.66,4.83,0.35,4.13,-2.1,3.45,9.26,5.44,3.8,9.09,4.77,-8.82,9.44,0.03,5.92,9.09,2.32,-8.91,9.18,9.09,5.79,9.03,-0.0599,0.5172,-0.4267,0.1555,0.5237,-0.508,0.1364,0.2552,-0.325,0.0008,0.5281,-0.501,0.0509,0.2619,-0.4447,0.261,0.5599,-0.6585,0.006,0.0,0.013,0.006,0.0,0.013,0.013,0.026,0.026,0.006,0.006,0.006,0.019,0.026,0.013,0.026,0.0,0.006,-0.0077,-0.0107,0.046,0.043,-0.0107,0.0552,0.043,-0.0522,0.0383,-0.0353,0.0476,0.0552,0.0537,-0.0537,0.0552,0.0522,-0.0077,0.046,-0.0171,-0.0215,0.1338,0.1341,-0.0247,0.1546,0.1317,-0.1489,0.1176,-0.0815,0.1354,0.1525,0.1494,-0.1485,0.1511,0.1403,-0.0161,0.132,-0.0022,-0.0012,-0.0007,0.0001,0.0127,-0.0295,0.5583,-0.4032,0.1605,0.5864,-0.5054,0.1692,0.2028,-0.1955,0.0035,0.5895,-0.4946,0.1093,0.2124,-0.2619,0.2656,0.5756,-0.593,0.0,0.0,0.0,0.0,0.0,0.0,0.0,0.0,0.0,
0.24,run,0.62,3.43,0.01,0.25,2.32,0.0,0.0,0.0,0.026,-1.32,1.05,5.45,4.75,1.05,5.98,4.75,-5.45,5.36,-1.49,5.45,5.89,4.66,-5.62,6.06,5.71,1.14,5.45,-2.7,2.32,10.76,5.8,2.3,10.59,3.92,-8.35,10.94,-0.57,4.42,10.59,0.82,-8.96,10.68,9.39,4.47,7.53,-0.0771,0.4968,-0.4621,0.1658,0.4544,-0.52,0.1121,0.3028,-0.4334,-0.0163,0.4652,-0.5202,0.0112,0.2917,-0.5814,0.2682,0.5358,-0.7209,0.0,0.006,0.006,0.006,0.0,0.006,0.006,0.019,0.019,0.0,0.0,0.006,0.0,0.019,0.006,0.019,0.013,0.0,-0.0061,-0.0046,0.066,0.0629,-0.0046,0.0767,0.0629,-0.0736,0.0614,-0.0353,0.069,0.0782,0.0706,-0.0736,0.0782,0.0828,-0.0031,0.0675,-0.0062,0.008,0.1685,0.1688,0.0057,0.1889,0.1671,-0.1849,0.1687,-0.0571,0.1754,0.1932,0.1679,-0.1788,0.1922,0.2134,0.006,0.1731,-0.0041,-0.0007,-0.0085,-0.0019,-0.0429,-0.0599,0.5172,-0.4267,0.1555,0.5237,-0.508,0.1364,0.2552,-0.325,0.0008,0.5281,-0.501,0.0509,0.2619,-0.4447,0.261,0.5599,-0.6585,0.0,0.0,0.0,0.0,0.0,0.0,0.0,0.0,0.0,
0.28,run,0.63,3.44,0.44,0.19,-2.51,0.0,0.0,0.0,0.026,-2.11,1.93,6.94,5.36,2.11,7.38,5.45,-6.68,6.77,-0.35,6.33,7.29,4.92,-6.77,7.47,7.29,2.2,6.68,-2.96,0.82,12.26,6.0,0.8,12.09,3.78,-7.12,12.44,-0.58,2.92,12.09,-0.3,-8.5,11.03,9.81,2.97,6.03,-0.0846,0.4539,-0.503,0.1715,0.3991,-0.5268,0.1079,0.3252,-0.4958,-0.0166,0.4023,-0.5294,-0.0085,0.2999,-0.6349,0.2804,0.4929,-0.7609,0.0,0.006,0.006,0.006,0.0,0.006,0.006,0.019,0.019,0.0,0.0,0.006,0.0,0.019,0.006,0.019,0.013,0.0,-0.023,0.0107,0.0905,0.0798,0.0092,0.1028,0.0798,-0.0982,0.0859,-0.0276,0.0874,0.1012,0.0813,-0.0997,0.1028,0.0982,0.0107,0.0905,-0.0676,0.0631,0.2099,0.1814,0.0557,0.2299,0.1802,-0.2214,0.2101,-0.0112,0.1918,0.2214,0.1578,-0.2229,0.2265,0.2068,0.0559,0.2074,-0.0037,-0.0002,0.0001,0.0043,0.0404,-0.0771,0.4968,-0.4621,0.1658,0.4544,-0.52,0.1121,0.3028,-0.4334,-0.0163,0.4652,-0.5202,0.0112,0.2917,-0.5814,0.2682,0.5358,-0.7209,0.0,0.0,0.0,0.0,0.0,0.0,0.0,0.0,0.0,
0.32,run,0.63,3.43,-0.01,0.13,0.52,0.0,0.0,0.0,0.026,-2.46,2.72,8.09,5.71,2.81,8.7,5.8,-7.56,8.17,-0.35,6.94,8.7,4.92,-7.73,8.79,8.26,3.08,7.65,-3.06,-0.68,13.76,5.5,-0.7,13.59,4.17,-8.1,13.94,-0.3,1.42,13.59,-0.19,-10.0,10.59,10.74,1.47,4.53,-0.0873,0.3926,-0.5371,0.1572,0.3274,-0.5336,0.1192,0.3073,-0.5242,-0.0087,0.3367,-0.5479,-0.0053,0.2697,-0.6402,0.3067,0.4429,-0.7983,0.0,0.006,0.006,0.006,0.0,0.006,0.006,0.019,0.019,0.0,0.0,0.006,0.0,0.019,0.006,0.019,0.013,0.0,-0.0368,0.0261,0.1166,0.0905,0.0276,0.1273,0.092,-0.1197,0.1104,-0.0077,0.1028,0.1258,0.0859,-0.1197,0.1273,0.1258,0.0291,0.112,-0.0991,0.1018,0.2449,0.1673,0.1081,0.2531,0.1722,-0.2356,0.2392,0.067,0.1919,0.2472,0.1277,-0.2309,0.2507,0.2485,0.1083,0.2258,-0.0025,-0.0,0.0076,0.0034,-0.0438,-0.0846,0.4539,-0.503,0.1715,0.3991,-0.5268,0.1079,0.3252,-0.4958,-0.0166,0.4023,-0.5294,-0.0085,0.2999,-0.6349,0.2804,0.4929,-0.7609,0.0,0.0,0.0,0.0,0.0,0.0,0.0,0.0,0.0,
0.36,run,0.6,3.42,-0.42,-0.5,2.12,0.0,0.0,0.0,0.026,-2.99,3.16,9.67,5.71,3.34,10.11,5.8,-8.17,9.58,-0.44,7.12,10.11,4.31,-8.61,9.76,8.96,3.78,8.35,-3.32,-2.18,15.26,4.85,-2.2,15.09,4.48,-9.33,15.44,0.07,-0.08,15.09,-0.06,-11.5,11.13,11.73,-0.03,3.03,-0.0948,0.3145,-0.5576,0.1385,0.2533,-0.5276,0.128,0.2849,-0.5433,0.0019,0.2691,-0.5417,-0.0016,0.2365,-0.6337,0.3353,0.3884,-0.813,0.006,0.0,0.006,0.0,0.006,0.006,0.013,0.019,0.013,0.013,0.0,0.006,0.006,0.026,0.0,0.006,0.0,0.006,-0.043,0.0399,0.1365,0.0966,0.0399,0.1503,0.0982,-0.135,0.135,-0.0077,0.1135,0.1503,0.0859,-0.1365,0.1503,0.1427,0.0445,0.1289,-0.0924,0.123,0.2462,0.1401,0.1217,0.2635,0.1436,-0.2225,0.2595,0.0469,0.1746,0.2651,0.0894,-0.2249,0.2618,0.2372,0.1333,0.2213,-0.0023,-0.0003,-0.0003,0.0022,0.0091,-0.0873,0.3926,-0.5371,0.1572,0.3274,-0.5336,0.1192,0.3073,-0.5242,-0.0087,0.3367,-0.5479,-0.0053,0.2697,-0.6402,0.3067,0.4429,-0.7983,0.0,0.0,0.0,0.0,0.0,0.0,0.0,0.0,0.0,
0.4,run,0.6,3.43,0.05,0.1,-0.65,0.0,0.0,0.0,0.026,-3.16,3.25,10.99,5.71,3.43,11.6,5.8,-8.7,10.99,-0.18,7.12,11.51,3.43,-9.58,10.55,10.55,4.13,8.7,-3.44,-3.68,16.76,4.34,-3.7,16.59,4.94,-10.83,16.94,0.26,-1.58,16.59,0.28,-13.0,12.63,12.76,-1.53,1.53,-0.0984,0.2435,-0.5661,0.1241,0.1884,-0.5236,0.1412,0.254,-0.5496,0.0075,0.2196,-0.5353,0.0079,0.1927,-0.6093,0.3645,0.3483,-0.8231,0.006,0.0,0.006,0.0,0.006,0.006,0.013,0.019,0.013,0.013,0.0,0.006,0.006,0.026,0.0,0.006,0.0,0.006,-0.0522,0.0476,0.1641,0.0966,0.0491,0.1749,0.0982,-0.1457,0.1595,-0.0092,0.1166,0.1749,0.0752,-0.1519,0.1672,0.1549,0.0568,0.1411,-0.0992,0.1149,0.2758,0.0981,0.1197,0.2764,0.1005,-0.196,0.2736,0.0271,0.1337,0.2775,0.0223,-0.2149,0.2465,0.2121,0.1393,0.2009,-0.0056,-0.0012,-0.0073,-0.0087,0.0371,-0.0948,0.3145,-0.5576,0.1385,0.2533,-0.5276,0.128,0.2849,-0.5433,0.0019,0.2691,-0.5417,-0.0016,0.2365,-0.6337,0.3353,0.3884,-0.813,0.0,0.0,0.0,0.0,0.0,0.0,0.0,0.0,0.0,
0.44,run,0.56,3.42,-0.67,-0.38,0.37,0.0,0.0,0.0,0.026,-3.43,3.16,12.48,5.54,3.43,12.92,5.19,-9.14,12.39,0.35,6.68,13.01,2.37,-10.63,11.16,10.81,4.22,8.79,-3.49,-5.18,17.25,3.72,-5.2,18.09,5.41,-12.33,17.89,0.58,-3.08,18.09,0.72,-14.5,13.97,13.54,-3.03,0.03,-0.0997,0.1809,-0.5617,0.1063,0.1285,-0.523,0.1546,0.2128,-0.5542,0.0165,0.1832,-0.5309,0.0205,0.145,-0.6004,0.387,0.3239,-0.8379,0.006,0.0,0.006,0.0,0.006,0.006,0.013,0.019,0.013,0.013,0.0,0.006,0.006,0.026,0.0,0.006,0.0,0.006,-0.0552,0.0491,0.1871,0.0966,0.0506,0.201,0.0982,-0.1549,0.1841,-0.0046,0.1166,0.1994,0.0598,-0.1687,0.181,0.1825,0.0629,0.1473,-0.0809,0.0862,0.2794,0.0687,0.0896,0.2914,0.0703,-0.1717,0.2837,0.0362,0.0936,0.2864,-0.0419,-0.2138,0.2244,0.2521,0.1206,0.1637,-0.0049,-0.0007,0.0009,0.0017,-0.0113,-0.0984,0.2435,-0.5661,0.1241,0.1884,-0.5236,0.1412,0.254,-0.5496,0.0075,0.2196,-0.5353,0.0079,0.1927,-0.6093,0.3645,0.3483,-0.8231,0.0,0.0,0.0,0.0,0.0,0.0,0.0,0.0,0.0,
0.48,run,0.59,3.46,1.0,1.06,1.83,0.0,0.0,0.0,0.026,-3.34,2.46,13.8,4.57,2.81,14.41,4.75,-9.84,13.8,0.35,5.71,14.33,1.32,-11.78,12.04,12.13,3.96,8.44,-3.67,-6.68,18.75,3.29,-6.7,19.59,5.87,-13.83,18.32,0.85,-4.58,19.59,1.18,-16.0,15.47,14.07,-4.53,-1.47,-0.1048,0.1277,-0.5434,0.0941,0.0944,-0.5212,0.1677,0.184,-0.5492,0.0243,0.1619,-0.5206,0.0337,0.1141,-0.5808,0.4019,0.3089,-0.8358,0.006,0.019,0.019,0.006,0.026,0.006,0.0,0.026,0.019,0.013,0.019,0.006,0.006,0.019,0.013,0.0,0.013,0.013,-0.0598,0.0476,0.2132,0.0936,0.0506,0.224,0.0874,-0.1626,0.2086,0.0046,0.1089,0.2255,0.0414,-0.1871,0.1917,0.1871,0.0644,0.1488,-0.0739,0.0546,0.2934,0.0365,0.0627,0.2903,0.009,-0.149,0.2906,0.0599,0.0367,0.2983,-0.0984,-0.2187,0.1973,0.1937,0.0901,0.1203,-0.0091,-0.0015,-0.0117,-0.0066,0.0064,-0.0997,0.1809,-0.5617,0.1063,0.1285,-0.523,0.1546,0.2128,-0.5542,0.0165,0.1832,-0.5309,0.0205,0.145,-0.6004,0.387,0.3239,-0.8379,0.0,0.0,0.0,0.0,0.0,0.0,0.0,0.0,0.0,
0.52,run,0.57,3.46,-0.65,-0.45,0.46,0.0,0.0,0.0,0.026,-3.78,1.14,15.38,3.96,1.67,16.08,4.75,-11.16,15.38,0.53,4.31,16.0,0.62,-13.36,13.45,13.18,3.08,7.47,-3.82,-8.18,20.25,3.02,-8.2,20.57,6.32,-15.33,18.69,1.1,-6.08,20.87,1.63,-17.5,16.16,14.53,-6.03,-2.97,-0.1091,0.0943,-0.5255,0.0862,0.0708,-0.5227,0.1805,0.1575,-0.5448,0.0315,0.161,-0.5192,0.0466,0.0856,-0.5746,0.4151,0.3159,-0.8404,0.006,0.019,0.019,0.006,0.026,0.006,0.0,0.026,0.019,0.013,0.019,0.006,0.006,0.019,0.013,0.0,0.013,0.013,-0.0583,0.0353,0.2362,0.0767,0.0399,0.25,0.0798,-0.1749,0.2332,0.0046,0.092,0.2485,0.023,-0.2071,0.2071,0.2102,0.0598,0.1427,-0.046,-0.0078,0.2917,-0.0377,0.0036,0.3009,-0.0225,-0.1503,0.2954,0.0419,-0.0375,0.2951,-0.1379,-0.2278,0.1956,0.2218,0.0459,0.0612,-0.0058,0.0023,0.0175,0.0185,0.0319,-0.1048,0.1277,-0.5434,0.0941,0.0944,-0.5212,0.1677,0.184,-0.5492,0.0243,0.1619,-0.5206,0.0337,0.1141,-0.5808,0.4019,0.3089,-0.8358,0.0,0.0,0.0,0.0,0.0,0.0,0.0,0.0,0.0,
0.56,run,0.58,3.49,0.4,0.38,0.48,0.0,0.0,0.0,0.026,-3.87,-0.09,16.61,3.52,0.35,17.4,5.19,-12.3,16.44,0.97,2.9,17.4,0.35,-14.5,14.41,13.71,2.11,6.33,-3.84,-9.68,21.75,2.37,-9.7,19.85,6.98,-16.83,20.19,1.61,-7.58,20.47,2.32,-19.0,16.97,15.06,-6.5,-4.47,-0.1098,0.0608,-0.496,0.0678,0.0515,-0.5312,0.1994,0.1319,-0.5268,0.0459,0.1615,-0.5239,0.0663,0.0586,-0.565,0.4302,0.3364,-0.8436,0.006,0.019,0.019,0.006,0.026,0.006,0.0,0.026,0.019,0.013,0.019,0.006,0.006,0.019,0.013,0.0,0.013,0.013,-0.066,0.0123,0.2638,0.066,0.0199,0.2792,0.0798,-0.1979,0.2608,0.0077,0.0675,0.2777,0.0107,-0.2347,0.2316,0.2286,0.0445,0.1258,-0.0564,-0.0782,0.2914,-0.0603,-0.0605,0.3027,-0.0157,-0.1779,0.294,0.039,-0.1038,0.2986,-0.1353,-0.2467,0.2145,0.2134,-0.0164,-0.0104,-0.0083,0.0022,-0.0113,-0.0079,0.008,-0.1091,0.0943,-0.5255,0.0862,0.0708,-0.5227,0.1805,0.1575,-0.5448,0.0315,0.161,-0.5192,0.0466,0.0856,-0.5746,0.4151,0.3159,-0.8404,0.0,0.0,0.0,0.0,0.0,0.0,0.0,0.0,0.0,
0.6,run,0.57,3.5,-0.01,0.07,-0.42,0.0,0.0,0.0,0.033,-3.69,-1.58,17.93,3.08,-1.05,18.63,5.89,-13.62,17.49,1.23,1.49,18.72,0.35,-15.73,15.47,14.41,0.88,5.01,-3.82,-11.18,23.25,1.72,-11.2,19.01,7.51,-18.33,21.4,2.11,-9.08,19.99,2.99,-20.5,18.17,15.5,-5.6,-5.97,-0.109,0.0362,-0.4692,0.0492,0.042,-0.541,0.2146,0.1138,-0.5129,0.0602,0.1674,-0.5295,0.0854,0.0394,-0.5509,0.4428,0.3528,-0.8461,0.0,0.026,0.013,0.006,0.026,0.006,0.013,0.026,0.013,0.006,0.026,0.0,0.019,0.026,0.006,0.006,0.033,0.013,-0.0675,-0.0092,0.2853,0.0583,-0.0031,0.3022,0.0874,-0.2178,0.2792,0.0153,0.043,0.3022,0.0061,-0.2546,0.2485,0.2378,0.0276,0.1058,-0.0452,-0.1342,0.2835,-0.0706,-0.1275,0.2971,0.0174,-0.1983,0.274,0.0557,-0.1635,0.2999,-0.1117,-0.2465,0.2126,0.1835,-0.0739,-0.0811,-0.0072,0.005,0.0069,0.0066,0.0084,-0.1098,0.0608,-0.496,0.0678,0.0515,-0.5312,0.1994,0.1319,-0.5268,0.0459,0.1615,-0.5239,0.0663,0.0586,-0.565,0.4302,0.3364,-0.8436,0.0,0.0,0.0,0.0,0.0,0.0,0.0,0.0,0.0,
0.64,run,0.58,3.52,0.25,0.33,1.02,0.0,0.0,0.0,0.033,-3.69,-2.99,19.42,2.46,-2.55,19.6,6.59,-15.12,18.63,1.85,0.0,19.69,1.05,-17.23,16.52,15.03,-0.7,3.52,-3.72,-12.68,24.75,0.96,-12.7,18.21,8.02,-19.78,22.71,2.74,-10.58,19.38,3.64,-22.0,19.02,15.93,-4.4,-7.2,-0.1062,0.016,-0.4423,0.0273,0.032,-0.5505,0.229,0.0949,-0.4976,0.0784,0.1738,-0.5367,0.104,0.0219,-0.541,0.4552,0.3745,-0.8494,0.0,0.026,0.013,0.006,0.026,0.006,0.013,0.026,0.013,0.006,0.026,0.0,0.019,0.026,0.006,0.006,0.033,0.013,-0.0644,-0.0353,0.3083,0.0506,-0.0276,0.3237,0.0997,-0.2408,0.2976,0.0199,0.0184,0.3252,0.0061,-0.2761,0.2669,0.25,0.0061,0.0828,-0.0201,-0.1919,0.2849,-0.0782,-0.1814,0.2886,0.0583,-0.2253,0.2609,0.0563,-0.2067,0.2963,-0.0782,-0.2532,0.218,0.1745,-0.1324,-0.1432,-0.0078,0.0055,-0.0003,0.0013,-0.0074,-0.109,0.0362,-0.4692,0.0492,0.042,-0.541,0.2146,0.1138,-0.5129,0.0602,0.1674,-0.5295,0.0854,0.0394,-0.5509,0.4428,0.3528,-0.8461,0.0,0.0,0.0,0.0,0.0,0.0,0.0,0.0,0.0,
0.68,run,0.56,3.51,-0.37,-0.22,-0.53,0.0,0.0,0.0,0.033,-3.6,-4.48,20.74,2.02,-3.96,20.21,7.12,-16.44,19.69,2.11,-1.41,20.39,2.02,-18.54,17.49,15.47,-2.02,2.11,-3.57,-14.18,26.25,0.27,-14.2,17.18,8.55,-20.85,23.87,3.4,-12.08,18.71,4.24,-23.5,20.24,16.31,-3.18,-7.48,-0.1021,-0.0005,-0.4156,0.0077,0.0276,-0.5626,0.2444,0.0755,-0.4839,0.097,0.1843,-0.5446,0.1212,0.0028,-0.5266,0.4661,0.3967,-0.8527,0.0,0.026,0.013,0.006,0.026,0.006,0.013,0.026,0.013,0.006,0.026,0.0,0.019,0.026,0.006,0.006,0.033,0.013,-0.0644,-0.0598,0.3344,0.0399,-0.0537,0.3405,0.112,-0.2669,0.3175,0.0307,-0.0077,0.3421,0.0184,-0.3022,0.2853,0.2608,-0.0215,0.0568,-0.0141,-0.2213,0.2918,-0.0928,-0.2194,0.2618,0.0843,-0.2501,0.2533,0.0775,-0.2371,0.2672,-0.0113,-0.2697,0.2178,0.1602,-0.1905,-0.1927,-0.0068,0.0071,0.0044,0.0058,0.0178,-0.1062,0.016,-0.4423,0.0273,0.032,-0.5505,0.229,0.0949,-0.4976,0.0784,0.1738,-0.5367,0.104,0.0219,-0.541,0.4552,0.3745,-0.8494,0.0,0.0,0.0,0.0,0.0,0.0,0.0,0.0,0.0,
0.72,run,0.57,3.53,0.14,0.18,0.42,0.0,0.0,0.0,0.033,-3.6,-5.89,22.15,1.41,-5.36,20.39,7.65,-17.75,20.83,2.64,-2.81,20.74,2.99,-19.86,18.46,15.91,-3.16,0.62,-3.41,-15.68,27.75,-0.59,-15.7,16.57,9.02,-22.13,25.37,4.15,-13.58,18.29,4.81,-25.0,21.5,16.65,-1.86,-7.66,-0.0973,-0.0166,-0.3865,-0.0169,0.0239,-0.5697,0.2576,0.0521,-0.4649,0.1185,0.1923,-0.5496,0.1373,-0.0171,-0.5118,0.4758,0.4208,-0.8549,0.0,0.026,0.0,0.013,0.033,0.0,0.006,0.033,0.019,0.006,0.026,0.006,0.013,0.026,0.013,0.006,0.026,0.013,-0.0629,-0.0859,0.3574,0.0322,-0.0782,0.3513,0.1212,-0.2899,0.3359,0.0353,-0.0322,0.3543,0.0353,-0.3252,0.3022,0.2684,-0.0445,0.0322,-0.0042,-0.2516,0.2896,-0.0934,-0.2446,0.2231,0.0931,-0.2604,0.2456,0.0713,-0.257,0.2326,0.0547,-0.2741,0.215,0.1406,-0.2187,-0.2259,-0.0088,0.0066,-0.0064,-0.0039,-0.0093,-0.1021,-0.0005,-0.4156,0.0077,0.0276,-0.5626,0.2444,0.0755,-0.4839,0.097,0.1843,-0.5446,0.1212,0.0028,-0.5266,0.4661,0.3967,-0.8527,0.0,0.0,0.0,0.0,0.0,0.0,0.0,0.0,0.0,
0.76,run,0.59,3.54,0.31,0.28,-0.6,0.0,0.0,0.0,0.033,-3.6,-7.29,23.55,0.7,-6.77,20.3,8.26,-19.07,22.06,3.34,-4.31,20.74,3.78,-21.36,19.69,16.44,-4.13,-0.79,-3.25,-17.18,29.25,-1.32,-17.2,15.94,9.46,-23.6,26.87,4.85,-13.83,17.87,5.33,-26.5,23.0,16.92,-0.68,-8.06,-0.0929,-0.0317,-0.3609,-0.0377,0.0271,-0.5771,0.2703,0.0254,-0.4473,0.1386,0.2031,-0.5545,0.1522,-0.0414,-0.4921,0.4834,0.4421,-0.8596,0.0,0.026,0.0,0.013,0.033,0.0,0.006,0.033,0.019,0.006,0.026,0.006,0.013,0.026,0.013,0.006,0.026,0.013,-0.0629,-0.1104,0.382,0.0215,-0.1028,0.3543,0.1304,-0.3129,0.3559,0.0445,-0.0568,0.3605,0.0522,-0.3482,0.3191,0.2761,-0.0644,0.0061,-0.0029,-0.2678,0.2944,-0.1055,-0.2629,0.1676,0.0996,-0.2683,0.2464,0.0843,-0.2716,0.1857,0.1013,-0.2779,0.2136,0.1271,-0.2276,-0.2556,-0.0079,0.0077,0.0024,0.0031,0.0074,-0.0973,-0.0166,-0.3865,-0.0169,0.0239,-0.5697,0.2576,0.0521,-0.4649,0.1185,0.1923,-0.5496,0.1373,-0.0171,-0.5118,0.4758,0.4208,-0.8549,0.0,0.0,0.0,0.0,0.0,0.0,0.0,0.0,0.0,
0.8,run,0.57,3.51,-0.44,-0.32,1.01,0.0,0.0,0.0,0.033,-3.25,-8.7,24.96,0.0,-8.17,19.69,8.79,-20.3,23.29,4.04,-5.71,20.13,4.48,-22.68,20.65,16.52,-4.75,-2.2,-3.07,-18.68,30.75,-2.15,-18.7,15.42,9.87,-25.1,28.37,5.68,-13.43,17.49,5.87,-28.0,24.5,17.13,0.44,-8.75,-0.0877,-0.0464,-0.3365,-0.0613,0.0291,-0.5832,0.2819,-0.0056,-0.4267,0.1622,0.2104,-0.559,0.1677,-0.0684,-0.4717,0.4894,0.4626,-0.8676,0.0,0.026,0.0,0.013,0.033,0.0,0.006,0.033,0.019,0.006,0.026,0.006,0.013,0.026,0.013,0.006,0.026,0.013,-0.0629,-0.135,0.4065,0.0092,-0.1273,0.3528,0.1411,-0.3359,0.3774,0.0568,-0.0828,0.3605,0.066,-0.3743,0.3405,0.2853,-0.0813,-0.0184,-0.002,-0.28,0.2986,-0.1201,-0.2766,0.1116,0.1102,-0.2745,0.2535,0.1053,-0.2884,0.13,0.123,-0.2928,0.2305,0.1237,-0.223,-0.2714,-0.006,0.0085,0.0053,0.0049,-0.0105,-0.0929,-0.0317,-0.3609,-0.0377,0.0271,-0.5771,0.2703,0.0254,-0.4473,0.1386,0.2031,-0.5545,0.1522,-0.0414,-0.4921,0.4834,0.4421,-0.8596,0.0,0.0,0.0,0.0,0.0,0.0,0.0,0.0,0.0,
0.84,run,0.56,3.53,-0.16,-0.01,0.32,0.0,0.0,0.0,0.033,-3.16,-10.11,26.37,-0.79,-9.58,18.72,9.23,-21.8,24.61,4.75,-7.12,19.25,5.19,-24.17,21.97,16.96,-5.01,-3.6,-2.92,-20.18,32.25,-2.95,-20.2,15.17,10.26,-26.6,29.87,6.43,-13.03,17.49,6.33,-29.5,26.0,17.34,1.36,-8.87,-0.0834,-0.0599,-0.3109,-0.0844,0.0394,-0.5862,0.2931,-0.0346,-0.4032,0.1837,0.2176,-0.559,0.1807,-0.0933,-0.4451,0.4955,0.4792,-0.869,0.006,0.026,0.013,0.013,0.026,0.013,0.006,0.026,0.013,0.006,0.019,0.006,0.006,0.019,0.013,0.006,0.006,0.013,-0.0568,-0.1595,0.431,-0.0031,-0.1519,0.3421,0.1503,-0.3574,0.3988,0.069,-0.1074,0.3497,0.0782,-0.3973,0.3574,0.2869,-0.092,-0.043,0.0215,-0.2876,0.3007,-0.1299,-0.2852,0.038,0.1115,-0.2723,0.2576,0.1195,-0.2935,0.0509,0.1319,-0.2909,0.2243,0.0923,-0.1962,-0.2816,-0.0082,0.0065,-0.0077,-0.0055,0.0176,-0.0877,-0.0464,-0.3365,-0.0613,0.0291,-0.5832,0.2819,-0.0056,-0.4267,0.1622,0.2104,-0.559,0.1677,-0.0684,-0.4717,0.4894,0.4626,-0.8676,0.0,0.0,0.0,0.0,0.0,0.0,0.0,0.0,0.0,
0.88,run,0.59,3.53,-0.06,0.0,0.29,0.0,0.0,0.0,0.033,-3.08,-11.51,27.77,-1.58,-10.99,17.58,9.67,-23.2,25.93,5.54,-8.53,18.37,5.8,-25.49,23.2,17.23,-4.92,-5.1,-2.7,-21.68,33.75,-3.74,-21.7,14.6,10.66,-28.1,31.37,7.21,-12.61,16.99,6.82,-31.0,27.5,17.57,2.46,-9.73,-0.0772,-0.0725,-0.2894,-0.1069,0.0488,-0.5929,0.3047,-0.0727,-0.374,0.2061,0.2253,-0.5648,0.1948,-0.1255,-0.416,0.5019,0.4994,-0.8792,0.006,0.026,0.013,0.013,0.026,0.013,0.006,0.026,0.013,0.006,0.019,0.006,0.006,0.019,0.013,0.006,0.006,0.013,-0.0552,-0.1841,0.4556,-0.0169,-0.1764,0.3252,0.158,-0.3835,0.4218,0.0813,-0.1319,0.3344,0.0905,-0.4234,0.3804,0.2945,-0.0966,-0.0675,0.0208,-0.2932,0.3023,-0.1426,-0.2915,-0.0365,0.1067,-0.2882,0.2664,0.1296,-0.2973,-0.0218,0.1383,-0.3012,0.2431,0.0933,-0.1545,-0.289,-0.0087,0.0081,-0.0028,-0.0002,0.0055,-0.0834,-0.0599,-0.3109,-0.0844,0.0394,-0.5862,0.2931,-0.0346,-0.4032,0.1837,0.2176,-0.559,0.1807,-0.0933,-0.4451,0.4955,0.4792,-0.869,0.0,0.0,0.0,0.0,0.0,0.0,0.0,0.0,0.0,
0.92,run,0.6,3.55,0.22,0.39,0.77,0.0,0.0,0.0,0.033,-2.64,-13.01,29.27,-2.37,-12.48,16.44,10.02,-24.61,27.33,6.24,-9.93,17.67,6.33,-26.98,24.52,17.14,-4.57,-6.42,-2.5,-23.18,35.25,-4.49,-21.71,14.33,11.04,-29.6,32.87,7.86,-12.27,16.72,7.24,-32.5,29.0,17.75,3.36,-10.28,-0.0714,-0.0842,-0.2695,-0.1283,0.0598,-0.5961,0.3154,-0.1071,-0.3458,0.2246,0.2314,-0.5681,0.2069,-0.1539,-0.3865,0.507,0.5156,-0.8856,0.006,0.026,0.013,0.013,0.026,0.013,0.006,0.026,0.013,0.006,0.019,0.006,0.006,0.019,0.013,0.006,0.006,0.013,-0.0537,-0.2086,0.4801,-0.0307,-0.201,0.3053,0.1657,-0.408,0.4449,0.0951,-0.1565,0.3191,0.1012,-0.4464,0.4019,0.2991,-0.0951,-0.0936,0.0203,-0.298,0.3044,-0.152,-0.2968,-0.1009,0.1037,-0.2945,0.2734,0.1429,-0.3008,-0.0732,0.1373,-0.2978,0.2513,0.0827,-0.1024,-0.3008,-0.0064,0.0077,-0.0011,0.0001,0.0051,-0.0772,-0.0725,-0.2894,-0.1069,0.0488,-0.5929,0.3047,-0.0727,-0.374,0.2061,0.2253,-0.5648,0.1948,-0.1255,-0.416,0.5019,0.4994,-0.8792,0.0,0.0,0.0,0.0,0.0,0.0,0.0,0.0,0.0,
0.96,run,0.61,3.57,0.31,0.2,-1.15,0.0,0.0,0.0,0.033,-2.64,-14.41,30.59,-3.16,-13.89,15.47,10.46,-25.93,28.65,7.03,-10.99,17.05,6.86,-28.39,25.93,17.75,-3.78,-7.65,-2.28,-24.68,36.75,-5.17,-20.91,14.24,11.37,-31.1,34.37,8.4,-11.94,16.49,7.6,-34.0,30.5,17.93,4.21,-10.6,-0.0652,-0.0934,-0.2513,-0.1478,0.0743,-0.5972,0.325,-0.1409,-0.3165,0.2399,0.2375,-0.5707,0.2171,-0.18,-0.3553,0.5121,0.531,-0.8895,0.006,0.026,0.006,0.013,0.033,0.006,0.013,0.019,0.019,0.006,0.006,0.0,0.006,0.026,0.013,0.006,0.013,0.013,-0.046,-0.2347,0.5062,-0.0445,-0.227,0.2853,0.1718,-0.4326,0.4694,0.1074,-0.181,0.3068,0.1104,-0.4725,0.4249,0.2976,-0.089,-0.1166,0.0428,-0.3058,0.3103,-0.1579,-0.305,-0.145,0.0955,-0.2977,0.2829,0.1458,-0.3021,-0.097,0.1305,-0.3057,0.2617,0.0522,-0.0488,-0.2964,-0.0052,0.01,0.0039,0.0069,0.0134,-0.0714,-0.0842,-0.2695,-0.1283,0.0598,-0.5961,0.3154,-0.1071,-0.3458,0.2246,0.2314,-0.5681,0.2069,-0.1539,-0.3865,0.507,0.5156,-0.8856,0.0,0.0,0.0,0.0,0.0,0.0,0.0,0.0,0.0,
1.0,run,0.57,3.55,-0.7,-0.44,1.19,0.0,0.0,0.0,0.033,-2.46,-15.82,32.08,-3.96,-15.29,14.77,10.9,-27.33,30.06,7.73,-11.87,16.61,7.29,-29.79,27.33,17.67,-2.72,-8.79,-2.07,-26.18,38.25,-5.76,-20.39,13.76,11.65,-32.6,35.87,8.91,-11.57,15.84,7.89,-35.5,32.0,18.04,4.95,-11.59,-0.0591,-0.1011,-0.2386,-0.1646,0.0838,-0.6028,0.333,-0.1764,-0.287,0.2545,0.2443,-0.5784,0.2254,-0.2073,-0.3283,0.5155,0.5445,-0.901,0.006,0.026,0.006,0.013,0.033,0.006,0.013,0.019,0.019,0.006,0.006,0.0,0.006,0.026,0.013,0.006,0.013,0.013,-0.046,-0.2592,0.5292,-0.0583,-0.2516,0.2684,0.1795,-0.4556,0.4924,0.1212,-0.1994,0.2961,0.1197,-0.497,0.4495,0.3083,-0.0752,-0.1381,0.03,-0.3061,0.3035,-0.1623,-0.3056,-0.1648,0.0956,-0.2947,0.2844,0.1538,-0.2805,-0.1082,0.1258,-0.306,0.2753,0.0768,0.0176,-0.288,-0.0042,0.0114,0.0053,0.0035,-0.0201,-0.0652,-0.0934,-0.2513,-0.1478,0.0743,-0.5972,0.325,-0.1409,-0.3165,0.2399,0.2375,-0.5707,0.2171,-0.18,-0.3553,0.5121,0.531,-0.8895,0.0,0.0,0.0,0.0,0.0,0.0,0.0,0.0,0.0,
1.04,run,0.59,3.58,0.58,0.39,-0.25,0.0,0.0,0.0,0.033,-2.02,-17.23,33.49,-4.66,-16.7,14.24,11.16,-28.83,31.46,8.35,-12.39,16.35,7.56,-31.2,28.65,17.93,-1.32,-9.67,-1.9,-27.68,39.75,-6.2,-19.48,13.67,11.97,-34.1,37.37,9.18,-11.25,15.59,8.0,-37.0,33.5,18.13,5.47,-11.73,-0.0544,-0.1079,-0.2262,-0.1771,0.1004,-0.6039,0.342,-0.204,-0.2614,0.2622,0.25,-0.5813,0.2285,-0.2257,-0.3016,0.5181,0.5539,-0.9027,0.006,0.026,0.006,0.013,0.033,0.006,0.013,0.019,0.019,0.006,0.006,0.0,0.006,0.026,0.013,0.006,0.013,0.013,-0.043,-0.2838,0.5553,-0.0721,-0.2761,0.2562,0.1871,-0.4801,0.517,0.1335,-0.2148,0.2884,0.1273,-0.5216,0.474,0.3068,-0.0568,-0.158,0.0326,-0.3068,0.3107,-0.1656,-0.3064,-0.1616,0.0958,-0.2988,0.2916,0.1539,-0.2542,-0.1046,0.117,-0.3067,0.2852,0.048,0.0817,-0.2768,-0.0076,0.0101,-0.0122,-0.0077,0.0207,-0.0591,-0.1011,-0.2386,-0.1646,0.0838,-0.6028,0.333,-0.1764,-0.287,0.2545,0.2443,-0.5784,0.2254,-0.2073,-0.3283,0.5155,0.5445,-0.901,0.0,0.0,0.0,0.0,0.0,0.0,0.0,0.0,0.0,
1.08,run,0.6,3.57,-0.03,0.1,-0.7,0.0,0.0,0.0,0.033,-2.02,-18.63,34.89,-5.36,-17.93,13.8,11.51,-30.23,32.87,8.88,-12.57,15.82,7.82,-32.61,30.15,18.11,0.09,-10.55,-1.78,-29.18,41.25,-6.65,-18.62,13.45,12.17,-35.6,38.87,9.5,-10.75,14.88,8.08,-38.5,35.0,18.2,6.12,-12.54,-0.0509,-0.1138,-0.2161,-0.1899,0.116,-0.6064,0.3477,-0.2363,-0.2351,0.2714,0.2591,-0.5896,0.2309,-0.2458,-0.2812,0.5201,0.5659,-0.9122,0.0,0.019,0.013,0.006,0.019,0.0,0.006,0.019,0.019,0.0,0.006,0.006,0.006,0.026,0.006,0.0,0.013,0.006,-0.0353,-0.3083,0.5798,-0.0844,-0.3007,0.247,0.1917,-0.5062,0.5415,0.1442,-0.224,0.2838,0.1319,-0.5461,0.497,0.3114,-0.0322,-0.1733,0.0514,-0.3063,0.3091,-0.1617,-0.306,-0.1475,0.0842,-0.3064,0.2956,0.1478,-0.2123,-0.0904,0.0991,-0.3063,0.2855,0.0507,0.1488,-0.251,-0.0058,0.0122,0.0101,0.0067,-0.0044,-0.0544,-0.1079,-0.2262,-0.1771,0.1004,-0.6039,0.342,-0.204,-0.2614,0.2622,0.25,-0.5813,0.2285,-0.2257,-0.3016,0.5181,0.5539,-0.9027,0.0,0.0,0.0,0.0,0.0,0.0,0.0,0.0,0.0,
1.12,run,0.59,3.57,-0.09,-0.1,1.29,0.0,0.0,0.0,0.033,-1.93,-20.04,36.3,-5.98,-18.9,13.54,11.78,-31.64,34.28,9.23,-12.57,15.29,7.91,-34.01,31.46,18.02,1.58,-11.34,-1.64,-30.68,42.75,-7.02,-17.62,13.21,12.41,-37.1,40.37,9.74,-10.16,14.18,8.05,-39.42,36.5,18.21,6.68,-13.01,-0.0468,-0.1202,-0.2056,-0.2007,0.1341,-0.6093,0.3545,-0.2686,-0.2091,0.2783,0.2699,-0.5978,0.2301,-0.2622,-0.2624,0.5202,0.5759,-0.9177,0.0,0.019,0.013,0.006,0.019,0.0,0.006,0.019,0.019,0.0,0.006,0.006,0.006,0.026,0.006,0.0,0.013,0.006,-0.0353,-0.3329,0.6044,-0.0966,-0.3221,0.2393,0.1979,-0.5308,0.566,0.1534,-0.227,0.2746,0.1365,-0.5706,0.5231,0.3145,-0.0077,-0.1887,0.036,-0.3065,0.3084,-0.1592,-0.2948,-0.132,0.082,-0.3065,0.299,0.138,-0.1601,-0.0978,0.0866,-0.3064,0.2976,0.047,0.1962,-0.2332,-0.0051,0.0116,-0.0005,0.0017,-0.0122,-0.0509,-0.1138,-0.2161,-0.1899,0.116,-0.6064,0.3477,-0.2363,-0.2351,0.2714,0.2591,-0.5896,0.2309,-0.2458,-0.2812,0.5201,0.5659,-0.9122,0.0,0.0,0.0,0.0,0.0,0.0,0.0,0.0,0.0,
1.16,run,0.62,3.59,0.35,0.39,-0.76,0.0,0.0,0.0,0.033,-1.93,-21.53,37.79,-6.5,-19.51,13.45,11.95,-33.05,35.77,9.49,-11.95,14.77,7.91,-35.51,32.96,18.19,2.99,-12.04,-1.53,-32.04,44.25,-7.35,-16.39,13.12,12.65,-38.6,41.87,9.9,-9.44,13.57,7.93,-40.1,38.0,18.19,7.21,-13.28,-0.0436,-0.1279,-0.195,-0.21,0.1565,-0.6104,0.3613,-0.2994,-0.1855,0.283,0.283,-0.6051,0.2265,-0.2746,-0.2451,0.5198,0.5857,-0.921,0.0,0.019,0.013,0.006,0.019,0.0,0.006,0.019,0.019,0.0,0.006,0.006,0.006,0.026,0.006,0.0,0.013,0.006,-0.0337,-0.3574,0.6289,-0.1074,-0.339,0.2347,0.2025,-0.5553,0.5906,0.1595,-0.227,0.2654,0.1381,-0.5952,0.5461,0.3129,0.0184,-0.2025,0.0309,-0.3065,0.3079,-0.1517,-0.2696,-0.1096,0.0746,-0.3066,0.3013,0.1196,-0.1121,-0.103,0.0664,-0.3065,0.2946,0.0272,0.2351,-0.215,-0.0057,0.0117,-0.0016,-0.0018,0.0224,-0.0468,-0.1202,-0.2056,-0.2007,0.1341,-0.6093,0.3545,-0.2686,-0.2091,0.2783,0.2699,-0.5978,0.2301,-0.2622,-0.2624,0.5202,0.5759,-0.9177,0.0,0.0,0.0,0.0,0.0,0.0,0.0,0.0,0.0,
1.2,run,0.6,3.59,-0.17,-0.1,0.06,0.0,0.0,0.0,0.033,-1.49,-22.94,39.11,-6.86,-19.78,13.18,12.3,-34.45,37.09,9.84,-10.99,14.15,7.91,-36.91,34.37,18.19,4.22,-12.66,-1.42,-32.42,45.75,-7.67,-15.14,12.76,12.77,-40.1,43.37,10.14,-8.51,12.6,7.79,-40.95,39.5,18.08,7.76,-13.86,-0.0405,-0.1349,-0.1841,-0.2192,0.1793,-0.6145,0.365,-0.3354,-0.1588,0.2898,0.2997,-0.6164,0.2225,-0.29,-0.2313,0.5165,0.5956,-0.9277,0.0,0.026,0.013,0.006,0.0,0.006,0.0,0.026,0.026,0.006,0.0,0.006,0.0,0.019,0.006,0.0,0.006,0.006,-0.0337,-0.3835,0.655,-0.1166,-0.3497,0.2332,0.2056,-0.5798,0.6167,0.1641,-0.2163,0.2562,0.1381,-0.6213,0.5722,0.316,0.043,-0.2148,0.0217,-0.3109,0.3119,-0.1402,-0.2284,-0.0824,0.0636,-0.3053,0.3072,0.1007,-0.0388,-0.1061,0.0465,-0.3109,0.3025,0.0304,0.2552,-0.1958,-0.0035,0.0135,0.0061,0.0067,-0.0133,-0.0436,-0.1279,-0.195,-0.21,0.1565,-0.6104,0.3613,-0.2994,-0.1855,0.283,0.283,-0.6051,0.2265,-0.2746,-0.2451,0.5198,0.5857,-0.921,0.0,0.0,0.0,0.0,0.0,0.0,0.0,0.0,0.0,
1.24,run,0.62,3.6,0.63,0.39,0.06,0.0,0.0,0.0,0.033,-1.23,-24.35,40.61,-7.29,-19.86,12.83,12.48,-35.86,38.5,9.93,-10.2,13.45,7.91,-38.23,35.77,18.19,5.45,-13.18,-1.29,-32.68,47.25,-7.85,-13.75,12.36,12.92,-41.6,44.87,10.27,-7.57,11.57,7.64,-41.59,41.0,17.95,7.98,-14.08,-0.037,-0.1397,-0.1758,-0.2242,0.2046,-0.6192,0.3691,-0.3665,-0.1338,0.2935,0.3169,-0.6286,0.2183,-0.3017,-0.213,0.5128,0.5997,-0.9304,0.0,0.026,0.013,0.006,0.0,0.006,0.0,0.026,0.026,0.006,0.0,0.006,0.0,0.019,0.006,0.0,0.006,0.006,-0.0261,-0.408,0.678,-0.1227,-0.3543,0.2286,0.2117,-0.6044,0.6397,0.1703,-0.1994,0.2454,0.1381,-0.6458,0.5967,0.316,0.0644,-0.2255,0.0443,-0.311,0.3058,-0.1215,-0.1774,-0.0752,0.0678,-0.307,0.3026,0.0938,0.037,-0.1151,0.0325,-0.311,0.3051,0.0212,0.2603,-0.1779,-0.0054,0.0132,-0.0029,-0.0018,0.001,-0.0405,-0.1349,-0.1841,-0.2192,0.1793,-0.6145,0.365,-0.3354,-0.1588,0.2898,0.2997,-0.6164,0.2225,-0.29,-0.2313,0.5165,0.5956,-0.9277,0.0,0.0,0.0,0.0,0.0,0.0,0.0,0.0,0.0,
1.28,run,0.59,3.61,-0.34,-0.03,0.49,0.0,0.0,0.0,0.033,-1.32,-25.75,42.01,-7.56,-19.6,12.66,12.66,-37.27,39.9,10.11,-9.23,12.74,7.82,-39.38,37.18,18.11,6.42,-13.62,-1.13,-33.01,48.75,-8.09,-12.39,12.11,13.08,-43.1,46.37,10.46,-6.52,10.56,7.55,-42.3,42.5,17.81,8.44,-14.49,-0.0323,-0.1457,-0.1664,-0.2313,0.2293,-0.6222,0.3737,-0.3999,-0.108,0.2987,0.3359,-0.6404,0.2156,-0.3145,-0.1966,0.5088,0.6079,-0.9351,0.0,0.026,0.013,0.006,0.0,0.006,0.0,0.026,0.026,0.006,0.0,0.006,0.0,0.019,0.006,0.0,0.006,0.006,-0.0215,-0.4326,0.7041,-0.1304,-0.3559,0.2224,0.2148,-0.6289,0.6642,0.1718,-0.1856,0.2332,0.1381,-0.6688,0.6213,0.316,0.0859,-0.2347,0.0484,-0.3102,0.3124,-0.114,-0.1299,-0.0758,0.0591,-0.3075,0.3043,0.0715,0.078,-0.1268,0.0228,-0.3044,0.3061,0.0149,0.2632,-0.1592,-0.0038,0.0144,0.0109,0.0069,0.001,-0.037,-0.1397,-0.1758,-0.2242,0.2046,-0.6192,0.3691,-0.3665,-0.1338,0.2935,0.3169,-0.6286,0.2183,-0.3017,-0.213,0.5128,0.5997,-0.9304,0.0,0.0,0.0,0.0,0.0,0.0,0.0,0.0,0.0,
1.32,run,0.56,3.62,0.11,0.06,0.83,0.0,0.0,0.0,0.033,-1.32,-27.16,43.42,-7.82,-18.81,12.22,12.83,-38.67,41.31,10.37,-8.35,11.78,7.56,-40.43,38.58,17.75,7.29,-13.97,-0.91,-33.36,50.25,-8.31,-10.97,11.64,13.26,-44.6,47.87,10.61,-5.49,9.53,7.51,-43.0,44.0,17.62,8.73,-14.72,-0.0259,-0.1519,-0.1568,-0.2375,0.2551,-0.6278,0.379,-0.4312,-0.0803,0.3032,0.3548,-0.6525,0.2145,-0.3273,-0.1765,0.5034,0.6133,-0.9379,0.006,0.019,0.006,0.006,0.006,0.0,0.006,0.026,0.019,0.006,0.006,0.006,0.0,0.019,0.006,0.006,0.013,0.006,-0.023,-0.4571,0.7286,-0.135,-0.3513,0.2194,0.2178,-0.6535,0.6888,0.1749,-0.1687,0.2209,0.1365,-0.6888,0.6458,0.3145,0.1028,-0.2424,0.0281,-0.3094,0.3109,-0.0971,-0.0737,-0.0646,0.0529,-0.3075,0.3053,0.0616,0.118,-0.1349,0.0102,-0.2881,0.3065,0.0046,0.2477,-0.1403,-0.0065,0.0153,-0.006,-0.0006,0.0086,-0.0323,-0.1457,-0.1664,-0.2313,0.2293,-0.6222,0.3737,-0.3999,-0.108,0.2987,0.3359,-0.6404,0.2156,-0.3145,-0.1966,0.5088,0.6079,-0.9351,0.0,0.0,0.0,0.0,0.0,0.0,0.0,0.0,0.0,
1.36,run,0.59,3.62,0.44,0.39,-0.42,0.0,0.0,0.0,0.033,-0.88,-28.56,44.91,-8.09,-17.75,11.95,13.01,-40.08,42.8,10.46,-7.38,10.9,7.56,-41.48,40.08,17.75,7.91,-14.41,-0.66,-33.7,51.75,-8.53,-9.47,11.26,13.45,-46.1,49.37,10.88,-4.43,8.55,7.52,-43.91,45.5,17.37,9.02,-14.96,-0.0189,-0.1582,-0.1469,-0.2438,0.283,-0.6322,0.3843,-0.4625,-0.0519,0.3109,0.3739,-0.6641,0.2149,-0.3439,-0.155,0.4964,0.6185,-0.9407,0.006,0.019,0.006,0.006,0.006,0.0,0.006,0.026,0.019,0.006,0.006,0.006,0.0,0.019,0.006,0.006,0.013,0.006,-0.023,-0.4817,0.7532,-0.1396,-0.3375,0.2117,0.2209,-0.678,0.7133,0.1795,-0.1534,0.204,0.1319,-0.7072,0.6703,0.3083,0.1181,-0.2485,0.0197,-0.3081,0.3091,-0.0851,-0.0001,-0.0738,0.0484,-0.3067,0.3052,0.0602,0.1398,-0.1573,-0.01,-0.2702,0.306,-0.0196,0.2305,-0.1211,-0.0087,0.0162,0.0019,0.001,0.0146,-0.0259,-0.1519,-0.1568,-0.2375,0.2551,-0.6278,0.379,-0.4312,-0.0803,0.3032,0.3548,-0.6525,0.2145,-0.3273,-0.1765,0.5034,0.6133,-0.9379,0.0,0.0,0.0,0.0,0.0,0.0,0.0,0.0,0.0,
1.4,run,0.6,3.62,0.2,0.19,-0.11,0.0,0.0,0.0,0.033,-0.7,-29.97,46.23,-8.17,-16.35,11.51,13.1,-41.4,44.21,10.72,-6.5,10.02,7.56,-42.36,41.48,17.31,8.44,-14.59,-0.38,-33.91,53.03,-8.73,-8.08,10.62,13.56,-47.6,50.87,11.24,-3.25,7.29,7.67,-44.89,47.0,17.12,9.23,-15.37,-0.0108,-0.162,-0.1409,-0.2495,0.3076,-0.6397,0.3874,-0.4942,-0.0208,0.3212,0.3954,-0.679,0.2192,-0.3617,-0.1282,0.4892,0.6223,-0.9455,0.006,0.019,0.006,0.006,0.006,0.0,0.006,0.026,0.019,0.006,0.006,0.006,0.0,0.019,0.006,0.006,0.013,0.006,-0.0153,-0.5062,0.7793,-0.1442,-0.3191,0.2071,0.224,-0.7026,0.7394,0.181,-0.1365,0.1887,0.1319,-0.7256,0.6964,0.3083,0.1289,-0.2562,0.0427,-0.3082,0.3147,-0.0769,0.0693,-0.069,0.0455,-0.3072,0.3119,0.048,0.1615,-0.168,-0.007,-0.2586,0.3125,-0.0137,0.2019,-0.1137,-0.0065,0.0163,0.0077,0.0069,-0.0073,-0.0189,-0.1582,-0.1469,-0.2438,0.283,-0.6322,0.3843,-0.4625,-0.0519,0.3109,0.3739,-0.6641,0.2149,-0.3439,-0.155,0.4964,0.6185,-0.9407,0.0,0.0,0.0,0.0,0.0,0.0,0.0,0.0,0.0,
1.44,run,0.6,3.61,-0.07,-0.03,0.67,0.0,0.0,0.0,0.033,-0.79,-31.29,47.72,-8.44,-14.94,11.07,13.36,-42.8,45.62,10.99,-5.36,8.96,7.56,-43.33,42.89,17.23,8.88,-14.94,-0.09,-34.3,53.87,-8.95,-6.72,10.28,13.71,-49.1,52.37,11.6,-2.29,6.37,7.82,-45.89,48.5,16.85,9.44,-15.55,-0.0025,-0.169,-0.1309,-0.2558,0.3324,-0.6438,0.3918,-0.5223,0.0079,0.3315,0.4129,-0.6898,0.2235,-0.3798,-0.1023,0.4813,0.6263,-0.9476,0.0,0.013,0.006,0.006,0.006,0.013,0.006,0.033,0.019,0.006,0.0,0.006,0.006,0.013,0.013,0.006,0.0,0.006,-0.0123,-0.5308,0.8023,-0.1457,-0.2945,0.1994,0.2255,-0.7256,0.7639,0.1856,-0.1212,0.1733,0.1319,-0.7409,0.721,0.3007,0.1381,-0.2592,0.0413,-0.3072,0.3061,-0.0596,0.1401,-0.0769,0.0376,-0.3009,0.3099,0.0507,0.1702,-0.1748,-0.0049,-0.2382,0.3103,-0.0382,0.1756,-0.091,-0.0055,0.0164,0.0035,0.0033,-0.002,-0.0108,-0.162,-0.1409,-0.2495,0.3076,-0.6397,0.3874,-0.4942,-0.0208,0.3212,0.3954,-0.679,0.2192,-0.3617,-0.1282,0.4892,0.6223,-0.9455,0.0,0.0,0.0,0.0,0.0,0.0,0.0,0.0,0.0,
1.48,run,0.6,3.58,-0.21,-0.15,-0.66,0.0,0.0,0.0,0.033,0.0,-32.43,49.39,-8.7,-13.27,10.46,13.36,-44.56,47.2,11.43,-4.13,7.73,7.73,-44.47,44.65,16.88,9.23,-15.38,0.26,-34.53,54.24,-9.08,-5.3,9.4,13.93,-50.6,53.87,11.94,-1.14,5.05,8.06,-47.05,50.0,16.67,9.65,-15.86,0.0075,-0.1733,-0.1266,-0.2595,0.3581,-0.6541,0.398,-0.5522,0.0381,0.3411,0.4338,-0.7053,0.2302,-0.4008,-0.071,0.4762,0.6299,-0.9513,0.0,0.013,0.006,0.006,0.006,0.013,0.006,0.033,0.019,0.006,0.0,0.006,0.006,0.013,0.013,0.006,0.0,0.006,-0.0138,-0.5538,0.8283,-0.1503,-0.27,0.1917,0.2301,-0.7501,0.7885,0.1902,-0.1012,0.1549,0.1319,-0.7578,0.7455,0.2991,0.1457,-0.2654,0.0232,-0.3013,0.312,-0.0589,0.19,-0.0826,0.0435,-0.3026,0.3089,0.0528,0.1939,-0.1913,-0.0034,-0.23,0.3092,-0.0325,0.1517,-0.0867,-0.0055,0.0151,-0.0012,-0.0005,0.0116,-0.0025,-0.169,-0.1309,-0.2558,0.3324,-0.6438,0.3918,-0.5223,0.0079,0.3315,0.4129,-0.6898,0.2235,-0.3798,-0.1023,0.4813,0.6263,-0.9476,0.0,0.0,0.0,0.0,0.0,0.0,0.0,0.0,0.0,
1.52,run,0.6,3.58,-0.14,0.12,1.82,0.0,0.0,0.0,0.033,0.09,-33.31,50.8,-8.88,-11.87,10.28,13.54,-45.97,48.69,11.51,-3.25,6.86,7.73,-45.26,46.05,16.7,9.32,-15.47,0.68,-34.52,54.49,-9.13,-3.86,8.55,14.09,-52.1,55.37,12.34,-0.02,3.55,8.45,-48.46,51.5,16.46,9.72,-16.03,0.0194,-0.173,-0.1236,-0.2608,0.3844,-0.6641,0.4027,-0.5819,0.0748,0.3524,0.4542,-0.7232,0.2414,-0.4265,-0.0326,0.4702,0.6312,-0.9533,0.0,0.013,0.006,0.006,0.006,0.013,0.006,0.033,0.019,0.006,0.0,0.006,0.006,0.013,0.013,0.006,0.0,0.006,0.0,-0.5737,0.8575,-0.1549,-0.2408,0.181,0.2301,-0.7808,0.8161,0.1979,-0.0798,0.1335,0.135,-0.7777,0.7762,0.293,0.1519,-0.273,0.0594,-0.2734,0.3097,-0.0557,0.2243,-0.0914,0.0305,-0.3079,0.3027,0.0609,0.203,-0.2012,0.0072,-0.2234,0.3125,-0.042,0.1254,-0.0847,-0.005,0.0128,-0.0037,-0.0026,-0.0115,0.0075,-0.1733,-0.1266,-0.2595,0.3581,-0.6541,0.398,-0.5522,0.0381,0.3411,0.4338,-0.7053,0.2302,-0.4008,-0.071,0.4762,0.6299,-0.9513,0.0,0.0,0.0,0.0,0.0,0.0,0.0,0.0,0.0,
1.56,run,0.58,3.59,-0.23,-0.25,-0.2,0.0,0.0,0.0,0.039,0.09,-33.84,52.03,-8.96,-10.46,9.84,13.8,-47.37,50.1,12.04,-2.29,5.89,8.17,-46.23,47.46,16.61,9.58,-15.73,1.03,-34.86,54.88,-9.3,-2.67,7.9,14.3,-53.6,56.87,12.73,0.91,2.43,8.8,-49.53,53.0,16.27,9.95,-16.35,0.0295,-0.1793,-0.1191,-0.2659,0.406,-0.6717,0.4087,-0.6062,0.1005,0.3638,0.4711,-0.7362,0.2513,-0.446,-0.0028,0.4649,0.6354,-0.9571,0.013,0.019,0.0,0.006,0.006,0.006,0.006,0.039,0.019,0.006,0.0,0.013,0.0,0.013,0.013,0.006,0.006,0.006,0.0015,-0.589,0.882,-0.158,-0.2163,0.1779,0.2332,-0.8053,0.8422,0.1994,-0.0644,0.1181,0.135,-0.7915,0.8007,0.2899,0.1534,-0.2746,0.0473,-0.2484,0.308,-0.0504,0.2482,-0.0754,0.0327,-0.3067,0.3088,0.0484,0.1991,-0.1978,0.005,-0.2077,0.31,-0.0408,0.0935,-0.065,-0.005,0.0121,-0.0025,0.0021,0.0318,0.0194,-0.173,-0.1236,-0.2608,0.3844,-0.6641,0.4027,-0.5819,0.0748,0.3524,0.4542,-0.7232,0.2414,-0.4265,-0.0326,0.4702,0.6312,-0.9533,0.0,0.0,0.0,0.0,0.0,0.0,0.0,0.0,0.0,
1.6,run,0.59,3.61,0.24,0.26,1.16,0.0,0.0,0.0,0.039,0.97,-34.19,53.09,-9.05,-9.05,9.05,13.97,-48.87,51.5,12.48,-1.14,4.57,8.53,-47.37,48.96,16.17,9.76,-16.0,1.4,-34.57,54.86,-9.19,-1.6,6.84,14.45,-55.1,58.37,12.88,1.8,1.18,9.16,-50.86,54.5,16.21,10.03,-16.48,0.04,-0.1741,-0.1193,-0.2626,0.4254,-0.6842,0.4128,-0.6294,0.128,0.3679,0.4873,-0.7508,0.2617,-0.4703,0.0262,0.4632,0.6368,-0.9586,0.013,0.019,0.0,0.006,0.006,0.006,0.006,0.039,0.019,0.006,0.0,0.013,0.0,0.013,0.013,0.006,0.006,0.006,0.0015,-0.5983,0.9035,-0.1595,-0.1917,0.1703,0.2378,-0.8299,0.8667,0.2086,-0.0476,0.1012,0.1427,-0.8084,0.8253,0.2884,0.158,-0.2792,0.0331,-0.2083,0.2958,-0.041,0.2655,-0.0814,0.0401,-0.3064,0.3079,0.0683,0.2024,-0.2016,0.0322,-0.2085,0.3087,-0.0343,0.0826,-0.0627,-0.0069,0.0132,-0.004,-0.0043,-0.0036,0.0295,-0.1793,-0.1191,-0.2659,0.406,-0.6717,0.4087,-0.6062,0.1005,0.3638,0.4711,-0.7362,0.2513,-0.446,-0.0028,0.4649,0.6354,-0.9571,0.0,0.0,0.0,0.0,0.0,0.0,0.0,0.0,0.0,
1.64,run,0.62,3.61,0.21,-0.19,-0.48,0.0,0.0,0.0,0.039,1.14,-34.37,53.88,-9.05,-7.56,8.17,14.15,-50.27,53.0,12.74,-0.18,3.52,8.79,-48.43,50.36,16.17,9.84,-16.26,1.76,-34.3,54.54,-9.0,-0.34,5.85,14.61,-56.6,59.87,13.03,2.71,-0.26,9.54,-52.06,56.0,16.18,10.1,-16.4,0.0503,-0.1691,-0.123,-0.2571,0.4483,-0.6959,0.4175,-0.6489,0.1542,0.3724,0.5037,-0.7677,0.2726,-0.492,0.0609,0.4622,0.6382,-0.9576,0.013,0.019,0.0,0.006,0.006,0.006,0.006,0.039,0.019,0.006,0.0,0.013,0.0,0.013,0.013,0.006,0.006,0.006,0.0169,-0.6044,0.9219,-0.1611,-0.1672,0.1565,0.2408,-0.856,0.8912,0.2163,-0.0276,0.0782,0.1488,-0.8283,0.8514,0.2807,0.1611,-0.2838,0.0812,-0.169,0.2767,-0.0345,0.2787,-0.1092,0.0397,-0.3131,0.3084,0.0768,0.2171,-0.2281,0.0457,-0.2214,0.3147,-0.053,0.0694,-0.0613,-0.0058,0.0153,0.0041,0.0046,0.0202,0.04,-0.1741,-0.1193,-0.2626,0.4254,-0.6842,0.4128,-0.6294,0.128,0.3679,0.4873,-0.7508,0.2617,-0.4703,0.0262,0.4632,0.6368,-0.9586,0.0,0.0,0.0,0.0,0.0,0.0,0.0,0.0,0.0,
1.68,run,0.6,3.58,0.05,-0.16,0.22,0.0,0.0,0.0,0.039,1.41,-34.37,54.49,-9.05,-6.15,7.21,14.33,-51.68,54.32,13.01,0.79,2.2,9.23,-49.66,51.77,16.17,9.93,-16.35,2.15,-33.88,54.24,-8.77,0.65,4.78,14.77,-58.1,61.37,13.07,3.57,-1.55,9.98,-53.24,57.5,16.16,10.21,-16.36,0.0613,-0.1614,-0.1266,-0.2506,0.4664,-0.7085,0.4221,-0.6677,0.181,0.3734,0.5194,-0.7829,0.2852,-0.5135,0.0913,0.4618,0.6402,-0.9572,0.006,0.006,0.0,0.0,0.013,0.013,0.006,0.033,0.019,0.006,0.006,0.019,0.006,0.019,0.006,0.0,0.0,0.0,0.0199,-0.6075,0.9357,-0.1611,-0.1411,0.1411,0.2439,-0.8805,0.9173,0.2209,-0.0107,0.0598,0.1534,-0.8468,0.8759,0.2807,0.1626,-0.2884,0.0682,-0.1297,0.245,-0.0241,0.292,-0.1335,0.0392,-0.3104,0.3128,0.0709,0.2147,-0.2281,0.0491,-0.2234,0.3116,-0.0371,0.0543,-0.06,-0.0031,0.0154,0.0036,-0.0033,-0.0083,0.0503,-0.1691,-0.123,-0.2571,0.4483,-0.6959,0.4175,-0.6489,0.1542,0.3724,0.5037,-0.7677,0.2726,-0.492,0.0609,0.4622,0.6382,-0.9576,0.0,0.0,0.0,0.0,0.0,0.0,0.0,0.0,0.0,
1.72,run,0.66,3.59,0.77,0.6,0.03,0.0,0.0,0.0,0.039,2.02,-34.19,54.58,-9.05,-4.75,6.33,14.41,-53.17,55.81,12.92,1.76,0.97,9.67,-50.89,53.17,16.17,10.11,-16.35,2.52,-33.33,53.71,-8.44,1.68,3.7,14.98,-59.6,62.87,12.99,4.45,-2.86,10.38,-54.27,59.0,16.23,10.31,-16.17,0.072,-0.1515,-0.1328,-0.2412,0.4852,-0.7212,0.4279,-0.6832,0.2043,0.3711,0.5355,-0.7984,0.2967,-0.5322,0.1219,0.4636,0.6419,-0.955,0.006,0.006,0.0,0.0,0.013,0.013,0.006,0.033,0.019,0.006,0.006,0.019,0.006,0.019,0.006,0.0,0.0,0.0,0.0245,-0.6075,0.9465,-0.1611,-0.1166,0.1243,0.247,-0.905,0.9403,0.2255,0.0061,0.0368,0.1611,-0.8682,0.9004,0.2807,0.1641,-0.2899,0.0651,-0.0908,0.2119,-0.0169,0.2968,-0.1569,0.039,-0.3097,0.3056,0.0669,0.2138,-0.2463,0.0633,-0.2372,0.3105,-0.026,0.0438,-0.0478,-0.0049,0.0121,0.0009,-0.0027,0.0038,0.0613,-0.1614,-0.1266,-0.2506,0.4664,-0.7085,0.4221,-0.6677,0.181,0.3734,0.5194,-0.7829,0.2852,-0.5135,0.0913,0.4618,0.6402,-0.9572,0.0,0.0,0.0,0.0,0.0,0.0,0.0,0.0,0.0,
1.76,run,0.65,3.58,-0.38,-0.32,0.6,0.0,0.0,0.0,0.039,2.11,-33.93,54.49,-9.05,-3.34,5.27,14.59,-54.67,57.22,12.83,2.72,-0.26,10.02,-51.94,54.58,16.17,10.11,-16.35,2.84,-32.68,53.0,-8.05,2.67,2.66,15.09,-61.1,64.37,12.87,5.3,-4.15,10.78,-55.21,60.5,16.31,10.4,-15.91,0.0812,-0.1396,-0.1412,-0.2301,0.503,-0.7334,0.4312,-0.6963,0.2258,0.3676,0.5509,-0.8135,0.308,-0.5492,0.151,0.4659,0.6437,-0.9519,0.006,0.006,0.0,0.0,0.013,0.013,0.006,0.033,0.019,0.006,0.006,0.019,0.006,0.019,0.006,0.0,0.0,0.0,0.0353,-0.6044,0.948,-0.1611,-0.092,0.1089,0.2485,-0.9311,0.9664,0.224,0.023,0.0153,0.1687,-0.8897,0.925,0.2807,0.1672,-0.2899,0.086,-0.052,0.1541,-0.0118,0.3003,-0.1677,0.0331,-0.3151,0.3122,0.0411,0.2133,-0.2533,0.0732,-0.247,0.3098,-0.0182,0.0422,-0.0334,-0.0004,0.0131,0.0135,0.0105,0.0006,0.072,-0.1515,-0.1328,-0.2412,0.4852,-0.7212,0.4279,-0.6832,0.2043,0.3711,0.5355,-0.7984,0.2967,-0.5322,0.1219,0.4636,0.6419,-0.955,0.0,0.0,0.0,0.0,0.0,0.0,0.0,0.0,0.0,
1.8,run,0.63,3.57,0.11,0.09,0.77,0.0,0.0,0.0,0.039,2.64,-33.49,53.88,-8.96,-1.93,4.31,14.85,-56.07,58.62,12.83,3.6,-1.58,10.46,-53.09,56.07,16.17,10.11,-16.35,3.19,-32.0,52.3,-7.62,3.6,1.53,15.29,-62.6,65.87,12.62,6.1,-5.37,11.2,-55.99,62.0,16.4,10.46,-15.49,0.0911,-0.1273,-0.1494,-0.2178,0.52,-0.7467,0.4369,-0.7063,0.2474,0.3605,0.5655,-0.8278,0.3199,-0.5635,0.1795,0.4685,0.6447,-0.9469,0.0,0.0,0.006,0.0,0.006,0.013,0.006,0.019,0.019,0.006,0.006,0.013,0.006,0.019,0.013,0.0,0.006,0.0,0.0368,-0.5998,0.9465,-0.1611,-0.0675,0.0905,0.2516,-0.9572,0.991,0.2224,0.0399,-0.0061,0.1749,-0.9081,0.9495,0.2807,0.1672,-0.2899,0.0659,-0.0192,0.1022,-0.0083,0.3016,-0.186,0.0346,-0.3177,0.31,0.023,0.2122,-0.2574,0.0741,-0.2415,0.3083,-0.0127,0.0296,-0.0234,-0.0013,0.0124,-0.0067,-0.0057,0.0104,0.0812,-0.1396,-0.1412,-0.2301,0.503,-0.7334,0.4312,-0.6963,0.2258,0.3676,0.5509,-0.8135,0.308,-0.5492,0.151,0.4659,0.6437,-0.9519,0.0,0.0,0.0,0.0,0.0,0.0,0.0,0.0,0.0,
1.84,run,0.62,3.55,-0.35,-0.32,-0.74,0.0,0.0,0.0,0.039,2.9,-32.87,53.26,-8.26,-0.53,3.25,15.03,-57.57,60.03,12.83,4.48,-2.9,10.9,-54.05,57.48,16.44,10.11,-15.91,3.48,-31.1,51.32,-7.08,4.58,0.3,15.45,-64.1,67.37,12.32,6.91,-6.52,11.61,-56.77,63.5,16.54,10.48,-15.05,0.0994,-0.1109,-0.161,-0.2023,0.5378,-0.7612,0.4414,-0.7146,0.2664,0.3521,0.5802,-0.8414,0.3317,-0.5776,0.2072,0.4726,0.6451,-0.9418,0.0,0.0,0.006,0.0,0.006,0.013,0.006,0.019,0.019,0.006,0.006,0.013,0.006,0.019,0.013,0.0,0.006,0.0,0.046,-0.5921,0.9357,-0.1595,-0.043,0.0736,0.2562,-0.9817,1.0155,0.2224,0.0552,-0.0291,0.1825,-0.9281,0.9756,0.2807,0.1672,-0.2899,0.0808,0.0154,0.0311,-0.0,0.3034,-0.1936,0.0415,-0.3147,0.3093,0.0161,0.2062,-0.2667,0.0807,-0.244,0.3139,-0.0089,0.0207,-0.0164,-0.0023,0.012,0.0019,0.0015,0.0135,0.0911,-0.1273,-0.1494,-0.2178,0.52,-0.7467,0.4369,-0.7063,0.2474,0.3605,0.5655,-0.8278,0.3199,-0.5635,0.1795,0.4685,0.6447,-0.9469,0.0,0.0,0.0,0.0,0.0,0.0,0.0,0.0,0.0,
1.88,run,0.63,3.56,-0.29,-0.04,0.63,0.0,0.0,0.0,0.039,3.34,-32.34,52.65,-7.38,0.88,2.2,15.12,-58.89,61.44,12.39,5.36,-4.04,11.07,-55.02,58.89,16.52,10.28,-15.64,3.8,-30.11,50.15,-6.47,5.44,-1.06,15.55,-64.76,68.87,11.88,7.67,-7.76,12.03,-57.52,65.0,16.73,10.43,-14.62,0.1086,-0.0929,-0.1747,-0.185,0.5534,-0.7772,0.4444,-0.723,0.2863,0.3393,0.5939,-0.8561,0.3437,-0.5912,0.2312,0.4779,0.6443,-0.9368,0.0,0.0,0.006,0.0,0.006,0.013,0.006,0.019,0.019,0.006,0.006,0.013,0.006,0.019,0.013,0.0,0.006,0.0,0.0506,-0.5814,0.925,-0.1473,-0.0184,0.0552,0.2592,-1.0078,1.04,0.2224,0.0706,-0.0522,0.1902,-0.9449,1.0002,0.2853,0.1672,-0.2823,0.0738,0.0511,-0.0186,0.0461,0.3047,-0.2048,0.0406,-0.3184,0.3088,0.0113,0.202,-0.2732,0.0853,-0.2343,0.312,0.0111,0.0145,0.0174,-0.0034,0.0095,-0.0061,-0.0057,-0.0129,0.0994,-0.1109,-0.161,-0.2023,0.5378,-0.7612,0.4414,-0.7146,0.2664,0.3521,0.5802,-0.8414,0.3317,-0.5776,0.2072,0.4726,0.6451,-0.9418,0.0,0.0,0.0,0.0,0.0,0.0,0.0,0.0,0.0,
1.92,run,0.65,3.61,0.62,0.68,0.8,0.0,0.0,0.0,0.039,3.6,-31.55,51.86,-7.38,2.2,1.05,15.21,-60.29,62.84,12.04,6.24,-5.27,11.69,-55.81,60.38,16.52,10.37,-15.12,4.05,-29.26,48.97,-5.88,6.34,-2.2,15.61,-65.0,70.37,11.42,8.36,-8.87,12.37,-58.02,66.5,16.89,10.47,-14.07,0.1156,-0.0774,-0.1886,-0.1681,0.5698,-0.7905,0.446,-0.7272,0.3026,0.3264,0.6065,-0.8691,0.3535,-0.6004,0.2531,0.4827,0.6449,-0.9303,0.0,0.006,0.006,0.013,0.006,0.013,0.0,0.019,0.026,0.006,0.0,0.013,0.006,0.033,0.013,0.006,0.006,0.006,0.0583,-0.5722,0.9143,-0.1319,0.0061,0.0368,0.2608,-1.0308,1.0646,0.2148,0.0859,-0.0721,0.1933,-0.9618,1.0247,0.2869,0.1703,-0.2777,0.0803,0.0702,-0.0531,0.0896,0.3049,-0.212,0.0341,-0.3087,0.3078,-0.0207,0.1987,-0.2657,0.0712,-0.227,0.31,0.0135,0.0216,0.0293,-0.0026,0.0107,-0.0051,-0.0007,0.011,0.1086,-0.0929,-0.1747,-0.185,0.5534,-0.7772,0.4444,-0.723,0.2863,0.3393,0.5939,-0.8561,0.3437,-0.5912,0.2312,0.4779,0.6443,-0.9368,0.0,0.0,0.0,0.0,0.0,0.0,0.0,0.0,0.0,
1.96,run,0.63,3.6,-0.17,-0.09,-0.07,0.0,0.0,0.0,0.039,3.87,-30.67,50.98,-7.12,3.52,0.0,15.47,-61.79,64.25,11.6,7.12,-6.59,12.04,-56.69,61.79,16.79,10.37,-14.68,4.25,-28.22,47.88,-5.24,7.14,-3.29,15.68,-65.19,71.87,10.96,9.0,-9.79,12.73,-58.62,68.0,17.06,10.55,-13.58,0.1214,-0.0586,-0.2014,-0.1497,0.5843,-0.8035,0.448,-0.7308,0.3155,0.3132,0.6182,-0.8799,0.3636,-0.6113,0.274,0.4875,0.6464,-0.9245,0.0,0.006,0.006,0.013,0.006,0.013,0.0,0.019,0.026,0.006,0.0,0.013,0.006,0.033,0.013,0.006,0.006,0.006,0.0629,-0.5584,0.9004,-0.1319,0.0291,0.0169,0.2623,-1.0554,1.0891,0.2086,0.1012,-0.0936,0.204,-0.9756,1.0508,0.2869,0.1718,-0.2684,0.0735,0.1009,-0.089,0.0627,0.2998,-0.2232,0.0297,-0.3082,0.3075,-0.0375,0.1966,-0.2665,0.0901,-0.2107,0.3149,0.0094,0.0209,0.0551,-0.0007,0.0155,0.0108,0.0119,0.0139,0.1156,-0.0774,-0.1886,-0.1681,0.5698,-0.7905,0.446,-0.7272,0.3026,0.3264,0.6065,-0.8691,0.3535,-0.6004,0.2531,0.4827,0.6449,-0.9303,0.0,0.0,0.0,0.0,0.0,0.0,0.0,0.0,0.0,
2.0,run,0.64,3.59,-0.4,-0.17,0.48,0.0,0.0,0.0,0.039,4.04,-29.88,50.01,-6.15,4.66,-1.23,15.47,-63.02,65.65,11.43,7.82,-7.73,12.39,-57.3,63.19,16.88,10.46,-14.24,4.48,-27.14,46.59,-4.58,7.82,-4.48,15.77,-65.28,73.37,10.45,9.67,-10.71,13.09,-59.0,69.5,17.25,10.5,-12.9,0.1279,-0.0389,-0.2166,-0.1307,0.5968,-0.8174,0.4506,-0.7323,0.3303,0.2987,0.6303,-0.8907,0.3739,-0.6181,0.2953,0.4929,0.6454,-0.9164,0.0,0.006,0.006,0.013,0.006,0.013,0.0,0.019,0.026,0.006,0.0,0.013,0.006,0.033,0.013,0.006,0.006,0.006,0.0675,-0.543,0.8851,-0.1273,0.0522,-0.0015,0.2669,-1.0815,1.1137,0.201,0.1166,-0.1166,0.2102,-0.991,1.0753,0.2915,0.1718,-0.2608,0.0687,0.1281,-0.1198,0.0611,0.2961,-0.2253,0.038,-0.3135,0.3073,-0.055,0.1951,-0.2728,0.0861,-0.205,0.3124,0.0239,0.0146,0.0673,-0.0024,0.0143,-0.0031,-0.0015,-0.0013,0.1214,-0.0586,-0.2014,-0.1497,0.5843,-0.8035,0.448,-0.7308,0.3155,0.3132,0.6182,-0.8799,0.3636,-0.6113,0.274,0.4875,0.6464,-0.9245,0.0,0.0,0.0,0.0,0.0,0.0,0.0,0.0,0.0,
2.04,run,0.61,3.61,-0.14,0.15,0.57,0.0,0.0,0.0,0.039,4.39,-29.0,48.96,-5.45,5.71,-2.37,15.47,-63.98,67.06,10.81,8.61,-8.79,12.83,-57.92,64.6,17.14,10.46,-13.71,4.69,-26.14,45.31,-3.91,8.6,-5.66,15.83,-65.35,74.87,9.87,10.24,-11.6,13.41,-59.4,71.0,17.43,10.52,-12.36,0.1339,-0.0207,-0.2317,-0.1118,0.611,-0.8313,0.4523,-0.7336,0.344,0.2821,0.6408,-0.9012,0.3832,-0.6254,0.3128,0.498,0.6459,-0.9101,0.006,0.013,0.006,0.013,0.006,0.013,0.006,0.013,0.019,0.006,0.006,0.013,0.006,0.033,0.006,0.0,0.0,0.006,0.0706,-0.5292,0.8682,-0.1104,0.0721,-0.023,0.2669,-1.1029,1.1382,0.1979,0.1289,-0.1365,0.2163,-1.0017,1.0999,0.293,0.1733,-0.2531,0.0596,0.1415,-0.1471,0.1061,0.2821,-0.2383,0.0266,-0.3,0.3072,-0.05,0.1826,-0.2658,0.0833,-0.1838,0.3108,0.0225,0.016,0.0759,-0.0016,0.0132,-0.0069,-0.003,0.0083,0.1279,-0.0389,-0.2166,-0.1307,0.5968,-0.8174,0.4506,-0.7323,0.3303,0.2987,0.6303,-0.8907,0.3739,-0.6181,0.2953,0.4929,0.6454,-0.9164,0.0,0.0,0.0,0.0,0.0,0.0,0.0,0.0,0.0,
2.08,run,0.64,3.58,0.02,0.19,-0.18,0.0,0.0,0.0,0.039,4.48,-28.04,47.9,-5.27,6.77,-3.52,15.47,-64.69,68.47,10.2,9.32,-9.93,13.18,-58.54,66.09,17.31,10.46,-13.18,4.85,-25.01,43.92,-3.22,9.29,-6.73,15.83,-65.32,76.37,9.26,10.81,-12.37,13.71,-59.64,72.5,17.63,10.56,-11.73,0.1386,-0.0002,-0.2479,-0.092,0.6235,-0.8439,0.4523,-0.733,0.3554,0.2645,0.6511,-0.9102,0.3917,-0.6298,0.3294,0.5038,0.6466,-0.9027,0.006,0.013,0.006,0.013,0.006,0.013,0.006,0.013,0.019,0.006,0.006,0.013,0.006,0.033,0.006,0.0,0.0,0.006,0.0767,-0.5139,0.8498,-0.0982,0.0905,-0.043,0.2669,-1.1198,1.1628,0.1871,0.1427,-0.1549,0.224,-1.0124,1.1244,0.2976,0.1733,-0.2439,0.0647,0.1566,-0.172,0.1203,0.2665,-0.2416,0.0186,-0.2733,0.3071,-0.0753,0.1796,-0.2551,0.0871,-0.1689,0.3096,0.033,0.0112,0.0876,-0.0045,0.0149,-0.0025,0.0026,0.0099,0.1339,-0.0207,-0.2317,-0.1118,0.611,-0.8313,0.4523,-0.7336,0.344,0.2821,0.6408,-0.9012,0.3832,-0.6254,0.3128,0.498,0.6459,-0.9101,0.0,0.0,0.0,0.0,0.0,0.0,0.0,0.0,0.0,
2.12,run,0.63,3.57,-0.34,-0.19,-0.22,0.0,0.0,0.0,0.039,4.66,-27.16,46.76,-4.39,7.65,-4.57,15.47,-65.13,69.87,9.76,9.93,-10.81,13.36,-58.97,67.5,17.4,10.46,-12.66,5.02,-23.86,42.61,-2.51,9.85,-7.66,15.85,-65.26,77.87,8.67,11.29,-12.95,14.0,-59.97,74.0,17.79,10.63,-11.08,0.1434,0.0208,-0.2634,-0.0718,0.6336,-0.8548,0.4528,-0.732,0.3647,0.2477,0.6599,-0.9171,0.4001,-0.6358,0.3435,0.5083,0.6477,-0.8951,0.006,0.013,0.006,0.013,0.006,0.013,0.006,0.013,0.019,0.006,0.006,0.013,0.006,0.033,0.006,0.0,0.0,0.006,0.0782,-0.497,0.8314,-0.0951,0.1089,-0.0629,0.2669,-1.1321,1.1873,0.1764,0.1549,-0.1749,0.2301,-1.0232,1.1505,0.3007,0.1733,-0.2347,0.0511,0.1729,-0.1895,0.0957,0.2556,-0.2439,0.013,-0.2373,0.307,-0.093,0.1718,-0.2533,0.084,-0.1585,0.3145,0.0346,0.0078,0.0959,-0.0019,0.0129,0.0004,0.0034,-0.0032,0.1386,-0.0002,-0.2479,-0.092,0.6235,-0.8439,0.4523,-0.733,0.3554,0.2645,0.6511,-0.9102,0.3917,-0.6298,0.3294,0.5038,0.6466,-0.9027,0.0,0.0,0.0,0.0,0.0,0.0,0.0,0.0,0.0,
2.16,run,0.64,3.58,0.25,0.17,-1.04,0.0,0.0,0.0,0.039,4.92,-26.1,45.62,-3.6,8.53,-5.8,15.47,-65.13,71.37,9.14,10.55,-11.78,13.8,-59.24,68.91,17.67,10.46,-12.04,5.17,-22.75,41.17,-1.8,10.42,-8.6,15.83,-65.08,79.37,8.02,11.73,-13.51,14.25,-60.11,75.5,17.94,10.62,-10.38,0.1476,0.0409,-0.2803,-0.0516,0.644,-0.8659,0.4522,-0.7287,0.3741,0.2291,0.6677,-0.9236,0.4072,-0.6384,0.356,0.5127,0.6477,-0.8868,0.006,0.006,0.013,0.019,0.006,0.013,0.006,0.0,0.026,0.006,0.0,0.006,0.006,0.033,0.013,0.006,0.006,0.006,0.0813,-0.4817,0.8115,-0.0798,0.1243,-0.0813,0.2669,-1.1397,1.2118,0.1687,0.1657,-0.1902,0.2332,-1.0308,1.175,0.3022,0.1733,-0.2255,0.0472,0.1785,-0.2074,0.1245,0.2364,-0.2397,0.0091,-0.1949,0.3069,-0.0938,0.1605,-0.2349,0.0703,-0.1397,0.3122,0.03,0.0055,0.1016,-0.0031,0.0118,-0.006,-0.0034,-0.0038,0.1434,0.0208,-0.2634,-0.0718,0.6336,-0.8548,0.4528,-0.732,0.3647,0.2477,0.6599,-0.9171,0.4001,-0.6358,0.3435,0.5083,0.6477,-0.8951,0.0,0.0,0.0,0.0,0.0,0.0,0.0,0.0,0.0,
2.2,run,0.62,3.59,0.02,0.02,0.48,0.0,0.0,0.0,0.039,5.19,-24.7,44.03,-2.9,9.49,-7.12,15.47,-65.04,73.12,8.35,11.25,-12.83,14.06,-59.41,70.66,17.84,10.46,-11.25,5.31,-21.42,39.67,-1.02,10.99,-9.57,15.71,-64.9,80.87,7.29,12.18,-14.05,14.5,-60.32,77.0,18.12,10.7,-9.73,0.1518,0.0651,-0.2995,-0.0291,0.6543,-0.8773,0.449,-0.7254,0.3816,0.2084,0.6759,-0.9299,0.4143,-0.6422,0.3671,0.5177,0.649,-0.8792,0.006,0.006,0.013,0.019,0.006,0.013,0.006,0.0,0.026,0.006,0.0,0.006,0.006,0.033,0.013,0.006,0.006,0.006,0.0859,-0.4633,0.7915,-0.066,0.1396,-0.1028,0.2669,-1.1397,1.2379,0.158,0.1764,-0.2071,0.2408,-1.0354,1.1996,0.3068,0.1733,-0.2148,0.0502,0.1936,-0.2196,0.1387,0.2227,-0.2479,0.0064,-0.1364,0.3121,-0.1057,0.1524,-0.2273,0.0778,-0.115,0.3101,0.0381,0.0038,0.1112,-0.0021,0.0123,0.0044,0.003,-0.0182,0.1476,0.0409,-0.2803,-0.0516,0.644,-0.8659,0.4522,-0.7287,0.3741,0.2291,0.6677,-0.9236,0.4072,-0.6384,0.356,0.5127,0.6477,-0.8868,0.0,0.0,0.0,0.0,0.0,0.0,0.0,0.0,0.0,
2.24,run,0.61,3.59,-0.12,0.02,0.08,0.0,0.0,0.0,0.039,5.1,-23.82,42.89,-2.11,10.11,-8.0,15.47,-65.04,74.53,8.0,11.51,-13.45,14.24,-59.59,72.16,17.93,10.46,-10.72,5.45,-19.92,38.17,-0.05,11.6,-10.49,15.62,-64.33,82.37,6.42,12.66,-14.54,14.73,-60.2,78.5,18.23,10.69,-8.62,0.1557,0.0936,-0.3243,-0.0015,0.6655,-0.8881,0.4461,-0.7151,0.3879,0.1835,0.6847,-0.9357,0.4208,-0.6401,0.3795,0.5209,0.6489,-0.8661,0.006,0.006,0.013,0.019,0.006,0.013,0.006,0.0,0.026,0.006,0.0,0.006,0.006,0.033,0.013,0.006,0.006,0.006,0.0905,-0.4387,0.7639,-0.0537,0.1565,-0.1258,0.2669,-1.1382,1.2686,0.1442,0.1887,-0.2255,0.2454,-1.0385,1.2303,0.3099,0.1733,-0.201,0.049,0.2094,-0.2367,0.134,0.2066,-0.2427,0.0045,-0.0909,0.3107,-0.1155,0.1436,-0.2145,0.0683,-0.0897,0.3093,0.0359,0.0027,0.1193,-0.0035,0.0133,0.0004,0.0003,0.0084,0.1518,0.0651,-0.2995,-0.0291,0.6543,-0.8773,0.449,-0.7254,0.3816,0.2084,0.6759,-0.9299,0.4143,-0.6422,0.3671,0.5177,0.649,-0.8792,0.0,0.0,0.0,0.0,0.0,0.0,0.0,0.0,0.0,
2.28,run,0.63,3.63,0.72,0.61,1.05,0.0,0.0,0.0,0.039,5.36,-22.76,41.66,-1.76,10.72,-8.96,15.47,-64.6,75.94,7.29,12.04,-14.06,14.59,-59.59,73.56,18.11,10.46,-10.11,5.59,-18.69,36.67,0.64,11.96,-11.27,15.57,-63.94,83.87,5.76,12.97,-14.87,14.93,-60.2,80.0,18.33,10.71,-7.95,0.1596,0.1148,-0.3418,0.0183,0.672,-0.8973,0.4448,-0.708,0.3931,0.1645,0.6904,-0.9397,0.4266,-0.64,0.3863,0.5237,0.6492,-0.8583,0.0,0.006,0.013,0.013,0.0,0.013,0.0,0.0,0.013,0.0,0.0,0.006,0.006,0.033,0.006,0.006,0.006,0.006,0.089,-0.4234,0.744,-0.0399,0.1672,-0.1411,0.2669,-1.1382,1.2931,0.1381,0.1933,-0.2362,0.2485,-1.0416,1.2563,0.3114,0.1733,-0.1917,0.0286,0.2037,-0.24,0.1452,0.1847,-0.2271,0.0031,-0.0636,0.309,-0.1037,0.1177,-0.1902,0.0592,-0.0742,0.3137,0.0309,0.0019,0.1178,-0.0044,0.013,-0.0021,0.0003,0.0014,0.1557,0.0936,-0.3243,-0.0015,0.6655,-0.8881,0.4461,-0.7151,0.3879,0.1835,0.6847,-0.9357,0.4208,-0.6401,0.3795,0.5209,0.6489,-0.8661,0.0,0.0,0.0,0.0,0.0,0.0,0.0,0.0,0.0,
2.32,run,0.63,3.6,-0.47,-0.4,-1.23,0.0,0.0,0.0,0.039,5.54,-21.53,40.34,-0.79,11.34,-9.93,15.47,-64.25,77.34,6.59,12.48,-14.59,14.77,-59.59,74.97,18.19,10.46,-9.32,5.68,-17.34,35.17,1.42,12.4,-11.87,15.4,-63.35,85.37,5.06,13.33,-15.2,15.07,-60.02,81.5,18.41,10.73,-7.07,0.1623,0.1392,-0.3634,0.0406,0.6799,-0.9044,0.44,-0.6972,0.3954,0.1445,0.6968,-0.9435,0.4306,-0.6367,0.3937,0.5259,0.6497,-0.8479,0.0,0.006,0.013,0.013,0.0,0.013,0.0,0.0,0.013,0.0,0.0,0.006,0.006,0.033,0.006,0.006,0.006,0.006,0.0936,-0.405,0.7225,-0.0337,0.1779,-0.158,0.2669,-1.1305,1.3177,0.1258,0.2025,-0.247,0.2546,-1.0416,1.2809,0.3145,0.1733,-0.181,0.0372,0.2113,-0.2482,0.1246,0.1693,-0.2219,0.0022,-0.0159,0.3079,-0.1184,0.1167,-0.1732,0.0644,-0.052,0.3112,0.0331,0.0013,0.1226,-0.0025,0.0166,0.0125,0.0107,0.0183,0.1596,0.1148,-0.3418,0.0183,0.672,-0.8973,0.4448,-0.708,0.3931,0.1645,0.6904,-0.9397,0.4266,-0.64,0.3863,0.5237,0.6492,-0.8583,0.0,0.0,0.0,0.0,0.0,0.0,0.0,0.0,0.0,
2.36,run,0.61,3.61,-0.08,0.23,0.38,0.0,0.0,0.0,0.039,5.62,-20.48,38.94,-0.18,11.78,-10.81,15.47,-63.9,78.75,5.89,12.92,-14.94,14.94,-59.59,76.46,18.28,10.46,-8.53,5.81,-16.02,33.67,2.18,12.72,-12.53,15.23,-62.85,86.87,4.4,13.59,-15.6,15.23,-59.97,83.0,18.51,10.65,-6.17,0.166,0.1633,-0.3838,0.0623,0.6858,-0.9121,0.4351,-0.6881,0.4016,0.1256,0.7016,-0.9483,0.4352,-0.6358,0.3999,0.5287,0.6481,-0.8373,0.0,0.006,0.013,0.013,0.0,0.013,0.0,0.0,0.013,0.0,0.0,0.006,0.006,0.033,0.006,0.006,0.006,0.006,0.0966,-0.3835,0.6995,-0.0169,0.1887,-0.1749,0.2669,-1.1244,1.3422,0.1135,0.2102,-0.2562,0.2577,-1.0416,1.3054,0.316,0.1733,-0.1672,0.0375,0.2284,-0.26,0.1504,0.1588,-0.2186,0.0015,0.0119,0.3075,-0.1289,0.1105,-0.1557,0.0566,-0.0364,0.3098,0.0289,0.0009,0.1375,-0.003,0.0143,-0.0081,-0.007,-0.0215,0.1623,0.1392,-0.3634,0.0406,0.6799,-0.9044,0.44,-0.6972,0.3954,0.1445,0.6968,-0.9435,0.4306,-0.6367,0.3937,0.5259,0.6497,-0.8479,0.0,0.0,0.0,0.0,0.0,0.0,0.0,0.0,0.0,
2.4,run,0.58,3.58,-0.47,-0.37,-0.8,0.0,0.0,0.0,0.039,5.71,-19.16,37.62,0.7,12.3,-11.6,15.47,-63.37,80.16,5.19,13.36,-15.38,14.94,-59.59,77.87,18.46,10.46,-7.65,5.91,-14.67,32.17,2.94,13.14,-12.99,15.07,-62.05,88.37,3.71,13.93,-15.86,15.31,-59.61,84.5,18.52,10.6,-5.15,0.1688,0.1878,-0.4057,0.0839,0.6935,-0.9175,0.4305,-0.6737,0.4038,0.1059,0.7078,-0.9513,0.4375,-0.6293,0.4055,0.5292,0.6473,-0.8252,0.006,0.013,0.013,0.013,0.0,0.006,0.006,0.013,0.019,0.006,0.0,0.0,0.013,0.0,0.006,0.0,0.0,0.006,0.0982,-0.3651,0.675,-0.0061,0.1963,-0.1902,0.2669,-1.1183,1.3668,0.1012,0.2178,-0.2623,0.2608,-1.0416,1.3315,0.3175,0.1733,-0.1534,0.032,0.2289,-0.274,0.1456,0.1399,-0.2105,0.0011,0.0313,0.3073,-0.1362,0.1061,-0.132,0.0511,-0.0255,0.3147,0.026,0.0006,0.1481,-0.0047,0.0154,-0.0015,0.0041,0.0066,0.166,0.1633,-0.3838,0.0623,0.6858,-0.9121,0.4351,-0.6881,0.4016,0.1256,0.7016,-0.9483,0.4352,-0.6358,0.3999,0.5287,0.6481,-0.8373,0.0,0.0,0.0,0.0,0.0,0.0,0.0,0.0,0.0,
2.44,run,0.55,3.57,-0.56,-0.19,0.64,0.0,0.0,0.0,0.039,5.89,-17.93,36.21,1.41,12.66,-12.3,15.47,-62.67,81.56,4.48,13.62,-15.73,15.12,-59.41,79.28,18.54,10.46,-6.77,6.03,-13.28,30.67,3.69,13.48,-13.47,14.85,-61.34,89.87,3.08,14.2,-16.19,15.41,-59.42,86.0,18.56,10.48,-4.15,0.1723,0.2132,-0.428,0.1055,0.6997,-0.9232,0.4242,-0.6608,0.4074,0.088,0.7128,-0.9552,0.4403,-0.6259,0.41,0.5302,0.6451,-0.8135,0.006,0.013,0.013,0.013,0.0,0.006,0.006,0.013,0.019,0.006,0.0,0.0,0.013,0.0,0.006,0.0,0.0,0.006,0.0997,-0.3421,0.6519,0.0092,0.2056,-0.204,0.2669,-1.1091,1.3913,0.089,0.2255,-0.27,0.2608,-1.0416,1.356,0.3206,0.1733,-0.1381,0.0282,0.2468,-0.2783,0.1596,0.1325,-0.1993,0.0008,0.0565,0.3074,-0.1415,0.1031,-0.1213,0.0358,-0.0178,0.3125,0.0297,0.0005,0.1613,-0.0067,0.0128,-0.0082,-0.0065,-0.0139,0.1688,0.1878,-0.4057,0.0839,0.6935,-0.9175,0.4305,-0.6737,0.4038,0.1059,0.7078,-0.9513,0.4375,-0.6293,0.4055,0.5292,0.6473,-0.8252,0.0,0.0,0.0,0.0,0.0,0.0,0.0,0.0,0.0,
2.48,run,0.54,3.56,-0.06,-0.12,0.19,0.0,0.0,0.0,0.039,5.8,-16.61,34.8,2.11,13.1,-13.01,15.12,-62.05,82.97,3.78,13.89,-15.91,15.21,-59.24,80.77,18.54,10.46,-5.98,6.16,-11.82,29.17,4.46,13.84,-13.77,14.62,-60.37,91.37,2.43,14.49,-16.38,15.45,-59.0,87.5,18.54,10.37,-3.0,0.176,0.2396,-0.4511,0.1273,0.7063,-0.9267,0.4176,-0.6431,0.4086,0.0696,0.7179,-0.9574,0.4414,-0.6183,0.4138,0.5298,0.6431,-0.8,0.006,0.013,0.013,0.013,0.0,0.006,0.006,0.013,0.019,0.006,0.0,0.0,0.013,0.0,0.006,0.0,0.0,0.006,0.1028,-0.3206,0.6274,0.0215,0.2117,-0.2163,0.2669,-1.0968,1.4159,0.0767,0.2301,-0.2761,0.2638,-1.0385,1.3806,0.3221,0.1733,-0.1227,0.0313,0.2534,-0.287,0.1578,0.1158,-0.1856,0.0005,0.0857,0.3074,-0.1452,0.0894,-0.1079,0.0366,-0.001,0.311,0.0266,0.0003,0.1705,-0.0096,0.012,-0.0097,-0.0034,0.0111,0.1723,0.2132,-0.428,0.1055,0.6997,-0.9232,0.4242,-0.6608,0.4074,0.088,0.7128,-0.9552,0.4403,-0.6259,0.41,0.5302,0.6451,-0.8135,0.0,0.0,0.0,0.0,0.0,0.0,0.0,0.0,0.0,
2.52,run,0.53,3.55,-0.24,-0.03,0.17,0.0,0.0,0.0,0.039,6.15,-15.38,33.49,2.9,13.45,-13.45,14.85,-61.35,84.38,3.16,14.24,-16.26,15.21,-59.06,82.09,18.54,10.46,-5.1,6.27,-10.45,27.67,5.18,14.14,-14.11,14.38,-59.54,92.87,1.88,14.66,-16.64,15.51,-58.83,89.0,18.53,10.24,-2.06,0.1792,0.2646,-0.4733,0.148,0.7117,-0.9307,0.4109,-0.6281,0.4103,0.0538,0.7211,-0.9605,0.4433,-0.6152,0.4166,0.5294,0.6408,-0.789,0.0,0.006,0.013,0.013,0.0,0.006,0.013,0.006,0.019,0.013,0.0,0.006,0.013,0.0,0.013,0.0,0.0,0.006,0.1012,-0.2976,0.6029,0.0337,0.2194,-0.2286,0.2608,-1.0861,1.4404,0.0644,0.2347,-0.2792,0.2654,-1.0354,1.4067,0.3221,0.1733,-0.1089,0.0161,0.2634,-0.2927,0.1563,0.1098,-0.1758,-0.0226,0.1001,0.3069,-0.1475,0.0798,-0.087,0.0313,0.0108,0.3152,0.0186,0.0002,0.171,-0.0105,0.0103,-0.0011,-0.0021,0.0032,0.176,0.2396,-0.4511,0.1273,0.7063,-0.9267,0.4176,-0.6431,0.4086,0.0696,0.7179,-0.9574,0.4414,-0.6183,0.4138,0.5298,0.6431,-0.8,0.0,0.0,0.0,0.0,0.0,0.0,0.0,0.0,0.0,
2.56,run,0.54,3.55,0.21,-0.07,-0.04,0.0,0.0,0.0,0.039,6.15,-13.97,31.99,3.78,13.8,-13.97,14.59,-60.47,85.78,2.55,14.5,-16.52,15.29,-58.8,83.58,18.54,10.46,-4.04,6.36,-9.14,26.17,5.86,14.4,-14.32,14.1,-58.61,94.37,1.41,14.81,-16.78,15.55,-58.48,90.5,18.51,10.02,-0.98,0.1818,0.2884,-0.4949,0.1673,0.7163,-0.9332,0.403,-0.6111,0.4115,0.0403,0.7239,-0.9621,0.4441,-0.6088,0.4196,0.5287,0.6368,-0.7762,0.0,0.006,0.013,0.013,0.0,0.006,0.013,0.006,0.019,0.013,0.0,0.006,0.013,0.0,0.013,0.0,0.0,0.006,0.1074,-0.2761,0.5798,0.0476,0.2255,-0.2362,0.2562,-1.0738,1.465,0.0537,0.2408,-0.2853,0.2654,-1.0324,1.4297,0.3221,0.1733,-0.0936,0.0343,0.2649,-0.2911,0.1612,0.0998,-0.1518,-0.0331,0.1161,0.3069,-0.1435,0.0789,-0.0839,0.0219,0.0191,0.3069,0.013,0.0002,0.1772,-0.0109,0.0102,-0.0043,-0.0006,0.003,0.1792,0.2646,-0.4733,0.148,0.7117,-0.9307,0.4109,-0.6281,0.4103,0.0538,0.7211,-0.9605,0.4433,-0.6152,0.4166,0.5294,0.6408,-0.789,0.0,0.0,0.0,0.0,0.0,0.0,0.0,0.0,0.0,
2.6,run,0.56,3.54,0.12,0.07,-0.02,0.0,0.0,0.0,0.039,6.06,-12.66,30.59,4.48,14.06,-14.24,14.41,-59.77,87.28,1.93,14.59,-16.7,15.38,-58.62,84.99,18.54,10.37,-3.08,6.47,-7.74,24.67,6.55,14.68,-14.48,13.79,-57.66,95.87,0.91,14.94,-16.9,15.55,-58.24,92.0,18.44,9.81,-0.0,0.1849,0.3138,-0.5175,0.1872,0.7215,-0.935,0.3939,-0.5938,0.412,0.026,0.7262,-0.9635,0.4444,-0.6043,0.421,0.5269,0.6329,-0.7647,0.0,0.006,0.013,0.013,0.0,0.006,0.013,0.006,0.019,0.013,0.0,0.006,0.013,0.0,0.013,0.0,0.0,0.006,0.1074,-0.2516,0.5538,0.0629,0.2316,-0.2454,0.2516,-1.0584,1.4895,0.043,0.2454,-0.2899,0.2669,-1.0278,1.4557,0.3221,0.1733,-0.0752,0.024,0.2776,-0.3018,0.1705,0.0929,-0.1408,-0.0404,0.1389,0.307,-0.1408,0.0725,-0.076,0.0211,0.0306,0.3128,0.0091,0.0001,0.1932,-0.0108,0.0094,0.0036,-0.0013,-0.0008,0.1818,0.2884,-0.4949,0.1673,0.7163,-0.9332,0.403,-0.6111,0.4115,0.0403,0.7239,-0.9621,0.4441,-0.6088,0.4196,0.5287,0.6368,-0.7762,0.0,0.0,0.0,0.0,0.0,0.0,0.0,0.0,0.0,
2.64,run,0.58,3.56,0.63,0.48,0.01,0.0,0.0,0.0,0.039,6.5,-11.34,29.09,5.19,14.41,-14.5,14.06,-58.89,88.59,1.32,14.85,-16.79,15.47,-58.36,86.4,18.54,10.11,-2.11,6.56,-6.5,23.17,7.17,14.85,-14.64,13.53,-56.71,97.37,0.49,15.03,-16.95,15.57,-57.95,93.5,18.37,9.58,0.9,0.1875,0.3364,-0.5378,0.2047,0.7245,-0.937,0.3865,-0.5765,0.411,0.0139,0.7279,-0.9642,0.4447,-0.599,0.4219,0.5248,0.6288,-0.7541,0.0,0.013,0.013,0.019,0.0,0.006,0.0,0.0,0.026,0.006,0.0,0.0,0.006,0.0,0.013,0.0,0.006,0.013,0.1058,-0.2286,0.5292,0.0752,0.2362,-0.25,0.2485,-1.0462,1.5156,0.0322,0.247,-0.293,0.2684,-1.0247,1.4803,0.3221,0.1718,-0.0583,0.0111,0.2805,-0.3031,0.1653,0.0823,-0.1158,-0.0398,0.1432,0.3125,-0.1387,0.0565,-0.0647,0.0205,0.0329,0.3108,0.0064,-0.0057,0.1984,-0.0089,0.0091,0.0021,0.0013,-0.0004,0.1849,0.3138,-0.5175,0.1872,0.7215,-0.935,0.3939,-0.5938,0.412,0.026,0.7262,-0.9635,0.4444,-0.6043,0.421,0.5269,0.6329,-0.7647,0.0,0.0,0.0,0.0,0.0,0.0,0.0,0.0,0.0,
2.68,run,0.55,3.57,-0.09,0.12,0.31,0.0,0.0,0.0,0.039,6.59,-10.02,27.69,5.89,14.68,-14.59,13.8,-57.92,90.0,0.79,14.94,-16.96,15.38,-58.01,87.89,18.46,9.93,-1.14,6.61,-5.3,21.67,7.76,14.99,-14.75,13.19,-55.7,98.87,0.16,15.04,-17.03,15.57,-57.59,95.0,18.29,9.23,1.79,0.1888,0.3581,-0.5593,0.2217,0.7272,-0.9382,0.3769,-0.5582,0.4096,0.0046,0.728,-0.965,0.4448,-0.5925,0.4234,0.5226,0.6224,-0.7437,0.0,0.013,0.013,0.019,0.0,0.006,0.0,0.0,0.026,0.006,0.0,0.0,0.006,0.0,0.013,0.0,0.006,0.013,0.1135,-0.2056,0.5031,0.0874,0.2424,-0.2546,0.2424,-1.0308,1.5386,0.0215,0.2516,-0.2945,0.27,-1.0201,1.5048,0.3221,0.1672,-0.0414,0.0361,0.2813,-0.3084,0.161,0.0802,-0.0981,-0.0505,0.1568,0.3037,-0.1368,0.0565,-0.051,0.02,0.04,0.3082,0.0045,-0.021,0.2012,-0.0066,0.0108,0.0109,0.0083,0.0002,0.1875,0.3364,-0.5378,0.2047,0.7245,-0.937,0.3865,-0.5765,0.411,0.0139,0.7279,-0.9642,0.4447,-0.599,0.4219,0.5248,0.6288,-0.7541,0.0,0.0,0.0,0.0,0.0,0.0,0.0,0.0,0.0,
2.72,run,0.52,3.53,-0.62,-0.62,0.97,0.0,0.0,0.0,0.039,6.59,-8.7,26.28,6.59,14.85,-14.68,13.54,-57.04,91.41,0.44,14.94,-16.96,15.47,-57.83,89.21,18.28,9.76,-0.26,6.67,-4.16,20.17,8.3,15.06,-14.72,12.9,-54.71,99.76,-0.15,14.99,-16.89,15.56,-57.3,96.5,18.15,8.84,2.65,0.1905,0.3789,-0.5782,0.2373,0.7284,-0.9378,0.3686,-0.5401,0.4089,-0.0043,0.727,-0.9634,0.4444,-0.5872,0.4235,0.5186,0.6152,-0.7335,0.0,0.013,0.013,0.019,0.0,0.006,0.0,0.0,0.026,0.006,0.0,0.0,0.006,0.0,0.013,0.0,0.006,0.013,0.115,-0.1825,0.4786,0.0997,0.247,-0.2562,0.2378,-1.014,1.5631,0.0123,0.2531,-0.2976,0.2684,-1.014,1.5309,0.3206,0.1641,-0.0245,0.0311,0.2843,-0.3092,0.1593,0.0737,-0.0745,-0.0528,0.1739,0.3058,-0.1307,0.0454,-0.0473,0.0082,0.0513,0.3148,-0.0027,-0.0263,0.2049,-0.0096,0.0112,-0.0016,0.0021,0.0054,0.1888,0.3581,-0.5593,0.2217,0.7272,-0.9382,0.3769,-0.5582,0.4096,0.0046,0.728,-0.965,0.4448,-0.5925,0.4234,0.5226,0.6224,-0.7437,0.0,0.0,0.0,0.0,0.0,0.0,0.0,0.0,0.0,
2.76,run,0.58,3.55,0.49,0.49,-0.69,0.0,0.0,0.0,0.039,6.59,-7.38,24.87,7.21,14.94,-14.5,13.18,-56.07,92.81,-0.09,14.94,-16.96,15.47,-57.39,90.7,18.28,9.4,0.7,6.72,-3.17,18.67,8.81,15.08,-14.67,12.64,-53.75,99.62,-0.42,14.91,-16.77,15.52,-57.04,98.0,18.0,8.44,3.43,0.1919,0.3969,-0.595,0.2516,0.7287,-0.9373,0.3612,-0.5228,0.4073,-0.0121,0.7257,-0.962,0.4434,-0.5825,0.423,0.5144,0.6079,-0.7244,0.0,0.006,0.006,0.013,0.0,0.006,0.006,0.006,0.026,0.006,0.0,0.0,0.0,0.006,0.013,0.006,0.019,0.006,0.115,-0.1595,0.4541,0.112,0.25,-0.2577,0.2332,-0.9986,1.5877,0.0061,0.2531,-0.2976,0.27,-1.0109,1.5539,0.3175,0.1611,-0.0092,0.0218,0.2869,-0.3102,0.1584,0.0633,-0.058,-0.0546,0.1803,0.3079,-0.1149,0.0318,-0.0331,0.0116,0.0477,0.3083,-0.0136,-0.0301,0.2021,-0.0122,0.0082,-0.0108,-0.0109,0.017,0.1905,0.3789,-0.5782,0.2373,0.7284,-0.9378,0.3686,-0.5401,0.4089,-0.0043,0.727,-0.9634,0.4444,-0.5872,0.4235,0.5186,0.6152,-0.7335,0.0,0.0,0.0,0.0,0.0,0.0,0.0,0.0,0.0,
2.8,run,0.55,3.53,-0.21,-0.15,0.88,0.0,0.0,0.0,0.039,6.59,-6.06,23.47,7.82,15.03,-14.59,12.83,-55.11,94.31,-0.26,14.94,-16.79,15.38,-57.3,92.11,18.02,9.14,1.58,6.69,-2.32,17.17,9.21,15.0,-14.72,12.33,-53.02,99.22,-0.59,14.71,-16.6,15.54,-56.96,99.5,17.88,8.06,3.73,0.1912,0.4124,-0.6106,0.2631,0.7273,-0.9379,0.3524,-0.5095,0.4025,-0.0169,0.722,-0.96,0.4441,-0.5811,0.4201,0.5107,0.6012,-0.7208,0.0,0.006,0.006,0.013,0.0,0.006,0.006,0.006,0.026,0.006,0.0,0.0,0.0,0.006,0.013,0.006,0.019,0.006,0.115,-0.1365,0.4295,0.1227,0.2516,-0.2546,0.227,-0.9817,1.6122,-0.0031,0.2531,-0.2976,0.27,-1.0032,1.58,0.3175,0.1549,0.0077,0.0152,0.286,-0.3079,0.1506,0.05,-0.0292,-0.0609,0.1886,0.3063,-0.1145,0.0222,-0.0232,0.0081,0.0617,0.3123,-0.0095,-0.0438,0.2039,-0.0074,0.01,0.0085,0.0086,-0.0121,0.1919,0.3969,-0.595,0.2516,0.7287,-0.9373,0.3612,-0.5228,0.4073,-0.0121,0.7257,-0.962,0.4434,-0.5825,0.423,0.5144,0.6079,-0.7244,0.0,0.0,0.0,0.0,0.0,0.0,0.0,0.0,0.0,
2.84,run,0.56,3.54,0.3,0.19,-0.04,0.0,0.0,0.0,0.039,6.59,-4.83,22.06,8.35,15.03,-14.59,12.66,-54.23,95.62,-0.53,14.94,-16.79,15.47,-56.95,93.52,17.84,8.79,2.64,6.7,-1.55,15.67,9.63,14.87,-14.51,12.09,-52.08,99.05,-0.76,14.45,-16.27,15.47,-56.69,100.58,17.64,7.51,4.37,0.1913,0.4263,-0.6251,0.2751,0.7249,-0.9354,0.3453,-0.4924,0.4006,-0.0216,0.7172,-0.9562,0.442,-0.5761,0.4185,0.5039,0.591,-0.7132,0.0,0.006,0.006,0.013,0.0,0.006,0.006,0.006,0.026,0.006,0.0,0.0,0.0,0.006,0.013,0.006,0.019,0.006,0.115,-0.1135,0.405,0.1335,0.2531,-0.2562,0.2209,-0.9649,1.6383,-0.0061,0.2531,-0.2945,0.2684,-1.0017,1.6045,0.3129,0.1503,0.023,0.0107,0.2872,-0.3084,0.146,0.0408,-0.0263,-0.0658,0.1959,0.313,-0.0918,0.0156,-0.0046,-0.0001,0.049,0.3114,-0.0241,-0.0481,0.2007,-0.0093,0.0083,-0.0037,-0.0026,0.0154,0.1912,0.4124,-0.6106,0.2631,0.7273,-0.9379,0.3524,-0.5095,0.4025,-0.0169,0.722,-0.96,0.4441,-0.5811,0.4201,0.5107,0.6012,-0.7208,0.0,0.0,0.0,0.0,0.0,0.0,0.0,0.0,0.0,
2.88,run,0.58,3.55,0.27,0.19,-0.29,0.0,0.0,0.0,0.039,6.59,-3.78,20.65,8.79,15.03,-14.5,12.39,-53.35,96.86,-0.79,14.94,-16.52,15.38,-56.87,95.01,17.84,8.35,3.25,6.65,-0.85,14.17,9.96,14.74,-14.43,11.82,-51.38,98.68,-0.87,14.17,-15.93,15.46,-56.62,100.32,17.44,7.03,4.64,0.1899,0.4392,-0.6377,0.2846,0.7225,-0.9345,0.3376,-0.4797,0.3962,-0.0248,0.7121,-0.9521,0.4418,-0.5749,0.4155,0.4984,0.5823,-0.7101,0.0,0.006,0.013,0.013,0.006,0.0,0.006,0.006,0.013,0.0,0.013,0.0,0.0,0.0,0.006,0.006,0.019,0.0,0.115,-0.092,0.3804,0.1427,0.2531,-0.2562,0.2178,-0.9495,1.6613,-0.0107,0.2531,-0.2945,0.27,-0.9956,1.6291,0.3099,0.1442,0.0414,0.0075,0.2807,-0.3069,0.1364,0.0285,-0.0184,-0.0575,0.194,0.3045,-0.0813,0.0109,-0.0032,0.0056,0.0571,0.309,-0.0282,-0.0564,0.2088,-0.0088,0.0092,0.0052,0.0033,-0.0008,0.1913,0.4263,-0.6251,0.2751,0.7249,-0.9354,0.3453,-0.4924,0.4006,-0.0216,0.7172,-0.9562,0.442,-0.5761,0.4185,0.5039,0.591,-0.7132,0.0,0.0,0.0,0.0,0.0,0.0,0.0,0.0,0.0,
2.92,run,0.56,3.54,-0.08,-0.11,0.59,0.0,0.0,0.0,0.039,6.59,-2.72,19.16,9.32,15.03,-14.5,12.04,-52.47,97.73,-0.79,14.68,-16.08,15.38,-56.6,96.42,17.4,7.91,4.13,6.57,-0.27,12.67,10.27,14.51,-14.43,11.6,-50.73,98.29,-0.96,13.86,-15.64,15.46,-56.54,100.04,17.24,6.47,4.88,0.1878,0.4496,-0.6493,0.2934,0.7183,-0.9345,0.3313,-0.4678,0.3917,-0.0274,0.7066,-0.9487,0.4418,-0.5734,0.4123,0.4925,0.5722,-0.7073,0.0,0.006,0.013,0.013,0.006,0.0,0.006,0.006,0.013,0.0,0.013,0.0,0.0,0.0,0.006,0.006,0.019,0.0,0.115,-0.0736,0.3559,0.1503,0.2531,-0.2546,0.2132,-0.9342,1.6828,-0.0153,0.2531,-0.2899,0.2684,-0.994,1.6552,0.3099,0.1365,0.0522,0.0052,0.2661,-0.3077,0.1245,0.02,-0.0071,-0.0576,0.1938,0.2944,-0.0743,0.0076,0.0151,-0.0019,0.0458,0.315,-0.0198,-0.0685,0.1868,-0.0073,0.0095,0.0047,0.0033,-0.005,0.1899,0.4392,-0.6377,0.2846,0.7225,-0.9345,0.3376,-0.4797,0.3962,-0.0248,0.7121,-0.9521,0.4418,-0.5749,0.4155,0.4984,0.5823,-0.7101,0.0,0.0,0.0,0.0,0.0,0.0,0.0,0.0,0.0,
2.96,run,0.58,3.55,0.02,0.16,0.11,0.0,0.0,0.0,0.039,6.59,-1.85,17.75,9.58,15.03,-14.5,11.78,-51.68,98.35,-0.79,14.41,-15.91,15.38,-56.6,97.82,17.31,7.47,4.39,6.51,0.21,11.17,10.54,14.22,-14.21,11.39,-49.97,97.9,-0.99,13.43,-15.17,15.44,-56.4,99.79,16.98,5.81,5.09,0.1859,0.4583,-0.6598,0.3012,0.7131,-0.9319,0.3254,-0.454,0.3871,-0.0282,0.6988,-0.9432,0.4412,-0.5708,0.4092,0.4852,0.5601,-0.7048,0.0,0.006,0.013,0.013,0.006,0.0,0.006,0.006,0.013,0.0,0.013,0.0,0.0,0.0,0.006,0.006,0.019,0.0,0.115,-0.0552,0.3298,0.1595,0.2531,-0.2546,0.2071,-0.9189,1.6981,-0.0153,0.2485,-0.2823,0.2684,-0.9894,1.6797,0.3022,0.1289,0.0675,0.0037,0.2553,-0.3132,0.1217,0.014,-0.005,-0.0634,0.1932,0.2636,-0.052,-0.0119,0.0394,-0.0013,0.0493,0.3125,-0.0426,-0.0767,0.1883,-0.0085,0.0089,-0.0013,-0.0019,0.0103,0.1878,0.4496,-0.6493,0.2934,0.7183,-0.9345,0.3313,-0.4678,0.3917,-0.0274,0.7066,-0.9487,0.4418,-0.5734,0.4123,0.4925,0.5722,-0.7073,0.0,0.0,0.0,0.0,0.0,0.0,0.0,0.0,0.0,
3.0,run,0.59,3.54,0.31,0.18,0.15,0.0,0.0,0.0,0.039,6.5,-0.97,16.35,9.93,14.85,-14.33,11.6,-50.89,98.7,-0.79,14.06,-15.47,15.38,-56.51,98.79,16.96,6.94,4.83,6.4,0.66,9.67,10.75,13.91,-14.31,11.23,-49.44,97.42,-1.01,13.07,-14.83,15.46,-56.41,99.51,16.77,5.2,5.16,0.1829,0.4666,-0.6682,0.307,0.7075,-0.933,0.3207,-0.4444,0.3814,-0.0288,0.6922,-0.9392,0.4418,-0.571,0.406,0.4792,0.5491,-0.704,0.0,0.0,0.019,0.006,0.013,0.0,0.0,0.0,0.0,0.006,0.013,0.006,0.0,0.006,0.006,0.0,0.019,0.006,0.115,-0.0399,0.3053,0.1641,0.2531,-0.2546,0.2025,-0.905,1.7089,-0.0153,0.2439,-0.2792,0.2684,-0.9894,1.7043,0.3007,0.1212,0.0721,0.0026,0.2359,-0.3107,0.1023,0.0098,-0.0035,-0.0615,0.1867,0.2245,-0.0364,-0.0255,0.039,-0.0009,0.0345,0.3103,-0.0355,-0.0823,0.149,-0.0073,0.0094,0.0004,0.0027,0.0019,0.1859,0.4583,-0.6598,0.3012,0.7131,-0.9319,0.3254,-0.454,0.3871,-0.0282,0.6988,-0.9432,0.4412,-0.5708,0.4092,0.4852,0.5601,-0.7048,0.0,0.0,0.0,0.0,0.0,0.0,0.0,0.0,0.0,
3.04,run,0.59,3.56,-0.01,0.21,0.07,0.0,0.0,0.0,0.039,6.5,-0.26,14.94,10.2,14.5,-14.33,11.43,-50.19,98.7,-0.79,13.71,-15.03,15.38,-56.51,99.58,16.79,6.42,5.01,6.31,0.93,8.17,10.89,13.57,-14.24,11.06,-48.86,96.83,-1.0,12.69,-14.42,15.46,-56.31,99.1,16.56,4.62,5.26,0.1802,0.4714,-0.675,0.3113,0.7012,-0.9322,0.316,-0.4339,0.3745,-0.0285,0.6853,-0.9343,0.4418,-0.5692,0.4012,0.4732,0.5386,-0.7028,0.0,0.0,0.019,0.006,0.013,0.0,0.0,0.0,0.0,0.006,0.013,0.006,0.0,0.006,0.006,0.0,0.019,0.006,0.1135,-0.0245,0.2807,0.1703,0.25,-0.2516,0.1994,-0.8912,1.715,-0.0153,0.2378,-0.2715,0.2684,-0.9879,1.7211,0.2945,0.112,0.0798,-0.0039,0.2226,-0.3094,0.0946,-0.0046,0.0091,-0.0545,0.1824,0.1801,-0.0255,-0.0408,0.056,-0.0006,0.0299,0.2803,-0.0478,-0.0921,0.133,-0.0057,0.0094,0.0053,0.0031,0.0026,0.1829,0.4666,-0.6682,0.307,0.7075,-0.933,0.3207,-0.4444,0.3814,-0.0288,0.6922,-0.9392,0.4418,-0.571,0.406,0.4792,0.5491,-0.704,0.0,0.0,0.0,0.0,0.0,0.0,0.0,0.0,0.0,
3.08,run,0.57,3.54,-0.19,-0.18,0.18,0.0,0.0,0.0,0.039,6.42,0.35,13.54,10.46,14.24,-14.33,11.34,-49.48,98.35,-0.79,13.45,-14.85,15.38,-56.43,100.11,16.79,5.8,5.1,6.19,1.19,7.2,11.01,13.25,-14.3,10.94,-48.39,96.4,-0.99,12.37,-14.07,15.49,-56.23,98.7,16.39,4.11,5.41,0.177,0.4762,-0.6799,0.3145,0.6955,-0.9329,0.3126,-0.4253,0.3694,-0.0284,0.6795,-0.9303,0.4425,-0.5678,0.3965,0.4684,0.5292,-0.7011,0.0,0.0,0.019,0.006,0.013,0.0,0.0,0.0,0.0,0.006,0.013,0.006,0.0,0.006,0.006,0.0,0.019,0.006,0.1135,-0.0123,0.2562,0.1749,0.2439,-0.2516,0.1963,-0.879,1.715,-0.0153,0.2316,-0.2638,0.2684,-0.9879,1.7349,0.2915,0.1028,0.0828,-0.0028,0.2018,-0.3086,0.0835,-0.0262,0.0063,-0.0497,0.1737,0.1261,-0.0178,-0.0516,0.068,-0.0005,0.0209,0.248,-0.045,-0.0989,0.1046,-0.0064,0.0107,-0.0001,0.0037,0.0012,0.1802,0.4714,-0.675,0.3113,0.7012,-0.9322,0.316,-0.4339,0.3745,-0.0285,0.6853,-0.9343,0.4418,-0.5692,0.4012,0.4732,0.5386,-0.7028,0.0,0.0,0.0,0.0,0.0,0.0,0.0,0.0,0.0,
3.12,run,0.55,3.54,-0.45,-0.17,0.8,0.0,0.0,0.0,0.039,5.98,0.79,12.04,10.55,13.89,-14.33,11.07,-48.96,97.91,-0.79,13.01,-14.24,15.38,-56.25,100.11,16.35,5.27,5.19,6.1,1.37,6.76,11.09,12.99,-14.34,10.84,-47.98,95.91,-0.99,12.15,-13.86,15.52,-56.16,98.31,16.23,3.62,5.52,0.1742,0.4794,-0.6852,0.3169,0.6908,-0.9334,0.3096,-0.4178,0.3637,-0.0283,0.6755,-0.9278,0.4435,-0.5666,0.3919,0.4638,0.5204,-0.6997,0.0,0.0,0.019,0.013,0.013,0.0,0.0,0.006,0.019,0.006,0.006,0.006,0.006,0.0,0.013,0.006,0.019,0.0,0.112,-0.0015,0.2316,0.1795,0.2393,-0.2516,0.1948,-0.8667,1.7089,-0.0153,0.227,-0.2608,0.2684,-0.9863,1.7441,0.2915,0.092,0.0844,-0.0077,0.1816,-0.3083,0.0757,-0.0357,0.0044,-0.0405,0.1677,0.0652,-0.0125,-0.0534,0.0591,-0.0003,0.0204,0.2082,-0.0315,-0.1097,0.079,-0.0079,0.0089,-0.0033,-0.0031,0.0031,0.177,0.4762,-0.6799,0.3145,0.6955,-0.9329,0.3126,-0.4253,0.3694,-0.0284,0.6795,-0.9303,0.4425,-0.5678,0.3965,0.4684,0.5292,-0.7011,0.0,0.0,0.0,0.0,0.0,0.0,0.0,0.0,0.0,
3.16,run,0.56,3.54,0.39,0.48,-0.58,0.0,0.0,0.0,0.039,5.98,1.14,10.72,10.63,13.62,-14.33,10.9,-48.34,97.38,-0.79,12.74,-14.15,15.47,-56.16,99.93,16.26,4.66,5.36,6.03,1.38,6.59,11.11,12.71,-14.25,10.8,-47.59,95.46,-0.98,11.91,-13.58,15.54,-56.05,97.96,16.08,3.23,5.63,0.1724,0.4797,-0.6872,0.3175,0.6856,-0.9323,0.3086,-0.4107,0.3583,-0.0279,0.671,-0.9245,0.4439,-0.5646,0.3878,0.4595,0.5132,-0.6985,0.0,0.0,0.019,0.013,0.013,0.0,0.0,0.006,0.019,0.006,0.006,0.006,0.006,0.0,0.013,0.006,0.019,0.0,0.1043,0.0061,0.2056,0.181,0.2332,-0.2516,0.1902,-0.8575,1.7012,-0.0153,0.2194,-0.25,0.2684,-0.9833,1.7441,0.2838,0.0828,0.0859,-0.034,0.1558,-0.3132,0.0587,-0.0479,0.0031,-0.0456,0.1518,0.017,-0.0087,-0.066,0.0815,-0.0002,0.0257,0.1458,-0.0507,-0.1111,0.061,-0.0095,0.009,-0.0078,-0.003,0.0139,0.1742,0.4794,-0.6852,0.3169,0.6908,-0.9334,0.3096,-0.4178,0.3637,-0.0283,0.6755,-0.9278,0.4435,-0.5666,0.3919,0.4638,0.5204,-0.6997,0.0,0.0,0.0,0.0,0.0,0.0,0.0,0.0,0.0,
3.2,run,0.53,3.53,-0.17,-0.09,0.46,0.0,0.0,0.0,0.039,5.98,1.32,9.4,10.72,13.36,-14.33,10.9,-47.9,96.5,-0.79,12.39,-13.8,15.38,-56.16,98.96,16.26,4.22,5.36,5.94,1.37,6.48,11.06,12.42,-14.31,10.7,-47.43,94.82,-0.91,11.68,-13.46,15.57,-56.03,97.51,16.01,2.9,5.52,0.1696,0.4794,-0.6884,0.316,0.6804,-0.933,0.3058,-0.4079,0.3509,-0.0259,0.667,-0.923,0.4449,-0.5642,0.3825,0.4574,0.5073,-0.6997,0.0,0.0,0.019,0.013,0.013,0.0,0.0,0.006,0.019,0.006,0.006,0.006,0.006,0.0,0.013,0.006,0.019,0.0,0.1043,0.0123,0.1825,0.1825,0.2286,-0.2516,0.1871,-0.8468,1.692,-0.0153,0.2148,-0.2485,0.27,-0.9817,1.7411,0.2823,0.0721,0.089,-0.0238,0.1322,-0.306,0.0469,-0.0509,0.0022,-0.0435,0.1467,-0.0228,-0.0061,-0.0636,0.0628,0.0056,0.0238,0.0905,-0.0413,-0.1183,0.0543,-0.009,0.0089,0.0068,0.0083,-0.0101,0.1724,0.4797,-0.6872,0.3175,0.6856,-0.9323,0.3086,-0.4107,0.3583,-0.0279,0.671,-0.9245,0.4439,-0.5646,0.3878,0.4595,0.5132,-0.6985,0.0,0.0,0.0,0.0,0.0,0.0,0.0,0.0,0.0,
3.24,run,0.52,3.5,-0.52,-0.5,-0.01,0.0,0.0,0.0,0.039,5.98,1.32,8.35,10.72,13.01,-14.33,10.9,-47.55,95.89,-0.79,12.22,-13.62,15.38,-56.07,98.17,16.0,3.69,5.36,5.87,1.26,6.45,11.04,12.17,-14.07,10.66,-47.11,94.27,-0.91,11.6,-13.28,15.58,-55.71,97.03,15.91,2.65,5.73,0.1676,0.4775,-0.6888,0.3155,0.6757,-0.9302,0.3045,-0.4019,0.3443,-0.0259,0.6655,-0.9209,0.4451,-0.5584,0.3768,0.4546,0.5027,-0.6973,0.0,0.0,0.006,0.006,0.019,0.006,0.006,0.0,0.013,0.0,0.006,0.0,0.0,0.0,0.006,0.006,0.013,0.0,0.1043,0.0153,0.1595,0.1841,0.224,-0.2516,0.1871,-0.8391,1.6766,-0.0153,0.2086,-0.2424,0.2684,-0.9817,1.7242,0.2823,0.0644,0.089,-0.0167,0.1041,-0.3006,0.0386,-0.0529,0.0015,-0.0304,0.1315,-0.0736,-0.0043,-0.0675,0.067,-0.0018,0.0167,-0.0001,-0.0289,-0.1116,0.038,-0.0109,0.008,-0.0031,-0.0015,0.008,0.1696,0.4794,-0.6884,0.316,0.6804,-0.933,0.3058,-0.4079,0.3509,-0.0259,0.667,-0.923,0.4449,-0.5642,0.3825,0.4574,0.5073,-0.6997,0.0,0.0,0.0,0.0,0.0,0.0,0.0,0.0,0.0,
3.28,run,0.56,3.52,0.34,0.24,-0.49,0.0,0.0,0.0,0.039,5.98,1.32,7.29,10.72,12.66,-14.33,10.81,-47.29,95.27,-0.79,12.04,-13.36,15.47,-55.81,97.38,15.82,3.25,5.45,5.81,1.2,6.46,10.98,12.01,-14.11,10.66,-46.96,93.9,-0.87,11.58,-13.27,15.6,-55.57,96.7,15.89,2.49,5.85,0.166,0.4764,-0.6888,0.3138,0.6729,-0.9307,0.3045,-0.3993,0.34,-0.0249,0.6651,-0.9208,0.4456,-0.5558,0.3729,0.4541,0.4997,-0.6959,0.0,0.0,0.006,0.006,0.019,0.006,0.006,0.0,0.013,0.0,0.006,0.0,0.0,0.0,0.006,0.006,0.013,0.0,0.1043,0.0153,0.1411,0.1841,0.2178,-0.2516,0.1871,-0.833,1.6659,-0.0153,0.2056,-0.2393,0.2684,-0.9802,1.7104,0.2777,0.0552,0.089,-0.0117,0.0728,-0.279,0.027,-0.0599,0.0011,-0.0213,0.1149,-0.0915,-0.003,-0.0587,0.0583,-0.0013,0.0174,-0.0515,-0.0374,-0.1124,0.0266,-0.0119,0.0055,-0.009,-0.0087,-0.0001,0.1676,0.4775,-0.6888,0.3155,0.6757,-0.9302,0.3045,-0.4019,0.3443,-0.0259,0.6655,-0.9209,0.4451,-0.5584,0.3768,0.4546,0.5027,-0.6973,0.0,0.0,0.0,0.0,0.0,0.0,0.0,0.0,0.0,
3.32,run,0.56,3.52,0.25,0.17,0.3,0.0,0.0,0.0,0.039,5.98,1.32,6.77,10.72,12.48,-14.24,10.72,-47.11,94.83,-0.79,12.04,-13.27,15.47,-55.63,96.94,15.82,3.16,5.62,5.77,0.99,6.53,10.88,11.84,-14.02,10.63,-46.95,93.41,-0.81,11.49,-13.26,15.62,-55.49,96.26,15.87,2.41,5.67,0.1648,0.4726,-0.6879,0.3108,0.6699,-0.9297,0.3036,-0.3991,0.3342,-0.0233,0.6634,-0.9208,0.4462,-0.5543,0.3678,0.4535,0.4984,-0.698,0.0,0.0,0.006,0.006,0.019,0.006,0.006,0.0,0.013,0.0,0.006,0.0,0.0,0.0,0.006,0.006,0.013,0.0,0.1043,0.0153,0.1227,0.1841,0.2117,-0.2516,0.1856,-0.8283,1.6552,-0.0153,0.2025,-0.2347,0.27,-0.9756,1.6966,0.2746,0.0476,0.0905,-0.0082,0.051,-0.2535,0.0189,-0.0613,0.0007,-0.0198,0.095,-0.098,-0.0021,-0.0508,0.0554,0.004,0.0267,-0.0796,-0.0358,-0.1029,0.0235,-0.0087,0.0075,0.006,0.0042,-0.0086,0.166,0.4764,-0.6888,0.3138,0.6729,-0.9307,0.3045,-0.3993,0.34,-0.0249,0.6651,-0.9208,0.4456,-0.5558,0.3729,0.4541,0.4997,-0.6959,0.0,0.0,0.0,0.0,0.0,0.0,0.0,0.0,0.0,
3.36,run,0.54,3.51,-0.54,-0.24,-0.3,0.0,0.0,0.0,0.039,5.71,1.32,6.59,10.72,12.39,-14.24,10.72,-46.93,94.31,-0.79,12.04,-13.36,15.56,-55.46,96.5,15.82,2.99,5.71,5.75,0.94,6.42,10.91,11.73,-13.73,10.6,-46.89,93.11,-0.84,11.41,-13.18,15.62,-55.36,95.98,15.8,2.29,5.63,0.1642,0.4716,-0.6892,0.3117,0.6679,-0.9263,0.3028,-0.3979,0.3308,-0.0239,0.6621,-0.9197,0.4461,-0.5519,0.3644,0.4516,0.4963,-0.6985,0.0,0.006,0.0,0.006,0.013,0.006,0.0,0.0,0.013,0.0,0.013,0.006,0.006,0.0,0.006,0.0,0.013,0.0,0.1043,0.0153,0.1135,0.1841,0.2086,-0.25,0.1841,-0.8253,1.6475,-0.0153,0.2025,-0.2332,0.27,-0.9725,1.6889,0.2746,0.046,0.0936,-0.0057,0.0357,-0.2117,0.0132,-0.0543,0.0062,-0.0195,0.0779,-0.0971,-0.0015,-0.0356,0.0445,0.0028,0.0301,-0.0843,-0.0251,-0.0777,0.0278,-0.0086,0.0069,0.0044,0.003,0.0052,0.1648,0.4726,-0.6879,0.3108,0.6699,-0.9297,0.3036,-0.3991,0.3342,-0.0233,0.6634,-0.9208,0.4462,-0.5543,0.3678,0.4535,0.4984,-0.698,0.0,0.0,0.0,0.0,0.0,0.0,0.0,0.0,0.0,
3.4,run,0.55,3.51,0.31,0.36,0.17,0.0,0.0,0.0,0.039,5.71,1.32,6.59,10.72,12.22,-13.89,10.72,-47.02,93.78,-0.79,11.87,-13.27,15.56,-55.46,96.15,15.82,2.9,5.71,5.74,0.97,6.4,10.9,11.71,-13.76,10.6,-46.95,92.93,-0.88,11.46,-13.17,15.65,-55.37,95.72,15.81,2.3,5.69,0.1641,0.4722,-0.6894,0.3114,0.6674,-0.9266,0.3027,-0.3991,0.3286,-0.0251,0.6629,-0.9196,0.447,-0.5522,0.3614,0.4516,0.4964,-0.6978,0.0,0.006,0.0,0.006,0.013,0.006,0.0,0.0,0.013,0.0,0.013,0.006,0.006,0.0,0.006,0.0,0.013,0.0,0.0997,0.0153,0.1104,0.1841,0.2071,-0.25,0.1841,-0.8222,1.6383,-0.0153,0.2025,-0.2347,0.2715,-0.9695,1.6812,0.2746,0.043,0.0951,-0.0212,0.025,-0.1597,0.0093,-0.0438,0.0044,-0.0137,0.066,-0.1025,-0.001,-0.0249,0.0254,0.0077,0.0326,-0.0877,-0.0176,-0.0659,0.0252,-0.0106,0.0063,-0.0094,-0.0042,-0.0053,0.1642,0.4716,-0.6892,0.3117,0.6679,-0.9263,0.3028,-0.3979,0.3308,-0.0239,0.6621,-0.9197,0.4461,-0.5519,0.3644,0.4516,0.4963,-0.6985,0.0,0.0,0.0,0.0,0.0,0.0,0.0,0.0,0.0,
3.44,run,0.54,3.5,-0.28,-0.19,-0.02,0.0,0.0,0.0,0.039,5.71,1.32,6.59,10.72,12.13,-13.8,10.72,-47.02,93.52,-0.79,11.87,-13.27,15.56,-55.46,95.8,15.82,2.9,5.71,5.71,0.83,6.42,10.85,11.59,-13.67,10.59,-46.9,92.53,-0.84,11.42,-13.12,15.65,-55.22,95.43,15.81,2.29,5.6,0.1632,0.4697,-0.6892,0.3101,0.6653,-0.9255,0.3026,-0.3983,0.3239,-0.0241,0.6622,-0.9191,0.4472,-0.5495,0.358,0.4518,0.4962,-0.6988,0.0,0.006,0.0,0.006,0.013,0.006,0.0,0.0,0.013,0.0,0.013,0.006,0.006,0.0,0.006,0.0,0.013,0.0,0.0997,0.0153,0.1104,0.1841,0.204,-0.2439,0.1841,-0.8237,1.6291,-0.0153,0.1994,-0.2332,0.2715,-0.9695,1.6751,0.2746,0.0414,0.0951,-0.0149,0.0175,-0.1118,0.0065,-0.0421,0.026,-0.0096,0.0405,-0.1061,-0.0007,-0.0289,0.0235,0.0054,0.0228,-0.0843,-0.0123,-0.0519,0.0177,-0.0097,0.0065,0.0055,0.0062,0.003,0.1641,0.4722,-0.6894,0.3114,0.6674,-0.9266,0.3027,-0.3991,0.3286,-0.0251,0.6629,-0.9196,0.447,-0.5522,0.3614,0.4516,0.4964,-0.6978,0.0,0.0,0.0,0.0,0.0,0.0,0.0,0.0,0.0,
3.48,run,0.54,3.5,0.06,0.09,0.38,0.0,0.0,0.0,0.039,5.62,1.32,6.59,10.72,11.95,-13.8,10.72,-47.02,93.16,-0.79,11.87,-13.1,15.56,-55.28,95.54,15.82,2.9,5.71,5.71,0.84,6.41,10.87,11.55,-13.65,10.6,-46.94,92.45,-0.88,11.43,-13.13,15.64,-55.18,95.26,15.82,2.28,5.69,0.1631,0.4699,-0.6893,0.3107,0.6646,-0.9252,0.3027,-0.3988,0.323,-0.025,0.6624,-0.9192,0.4469,-0.5486,0.356,0.452,0.496,-0.6978,0.0,0.006,0.0,0.0,0.006,0.006,0.0,0.0,0.013,0.0,0.013,0.0,0.0,0.006,0.006,0.0,0.013,0.0,0.0997,0.0153,0.1104,0.1841,0.2025,-0.2424,0.1841,-0.8237,1.6245,-0.0153,0.1994,-0.2332,0.2715,-0.9695,1.669,0.2746,0.0414,0.0951,-0.0104,0.0122,-0.0782,0.0045,-0.0352,0.0239,-0.0067,0.0283,-0.0916,-0.0005,-0.0202,0.0164,0.0038,0.016,-0.0821,-0.0086,-0.0363,0.0124,-0.0107,0.0054,-0.0049,-0.0034,-0.0004,0.1632,0.4697,-0.6892,0.3101,0.6653,-0.9255,0.3026,-0.3983,0.3239,-0.0241,0.6622,-0.9191,0.4472,-0.5495,0.358,0.4518,0.4962,-0.6988,0.0,0.0,0.0,0.0,0.0,0.0,0.0,0.0,0.0,
3.52,run,0.52,3.5,-0.17,-0.14,-0.13,0.0,0.0,0.0,0.039,5.62,1.32,6.59,10.72,11.95,-13.62,10.72,-47.02,92.9,-0.79,11.87,-13.1,15.56,-55.2,95.36,15.82,2.9,5.71,5.71,0.75,6.41,10.86,11.55,-13.51,10.59,-46.94,92.39,-0.87,11.42,-13.13,15.62,-55.13,95.09,15.79,2.3,5.61,0.1632,0.4681,-0.6893,0.3102,0.6645,-0.9236,0.3025,-0.3989,0.3222,-0.025,0.6622,-0.9192,0.4464,-0.5479,0.354,0.4513,0.4964,-0.6987,0.0,0.006,0.0,0.0,0.006,0.006,0.0,0.0,0.013,0.0,0.013,0.0,0.0,0.006,0.006,0.0,0.013,0.0,0.0982,0.0153,0.1104,0.1841,0.1994,-0.2424,0.1841,-0.8237,1.6183,-0.0153,0.1994,-0.2301,0.2715,-0.9664,1.6644,0.2746,0.0414,0.0951,-0.013,0.0086,-0.0548,0.0032,-0.0362,0.0168,-0.0047,0.0198,-0.0871,-0.0004,-0.0142,0.023,0.0026,0.0227,-0.0747,-0.006,-0.0254,0.0087,-0.0108,0.0057,0.0011,0.0015,0.0067,0.1631,0.4699,-0.6893,0.3107,0.6646,-0.9252,0.3027,-0.3988,0.323,-0.025,0.6624,-0.9192,0.4469,-0.5486,0.356,0.452,0.496,-0.6978,0.0,0.0,0.0,0.0,0.0,0.0,0.0,0.0,0.0,
3.56,run,0.52,3.5,-0.27,-0.06,0.37,0.0,0.0,0.0,0.039,5.62,1.32,6.59,10.72,11.95,-13.71,10.72,-47.02,92.9,-0.79,11.87,-13.1,15.56,-55.2,95.27,15.82,2.9,5.71,5.7,0.72,6.44,10.85,11.51,-13.52,10.59,-47.0,92.29,-0.88,11.41,-13.15,15.63,-55.14,94.99,15.81,2.29,5.59,0.1629,0.4676,-0.689,0.3099,0.6637,-0.9238,0.3025,-0.3999,0.321,-0.025,0.6619,-0.9194,0.4465,-0.5481,0.3528,0.4517,0.4961,-0.699,0.0,0.006,0.0,0.0,0.006,0.006,0.0,0.0,0.013,0.0,0.013,0.0,0.0,0.006,0.006,0.0,0.013,0.0,0.0982,0.0153,0.1104,0.1841,0.1994,-0.2393,0.1841,-0.8237,1.6137,-0.0153,0.1994,-0.2301,0.2715,-0.9649,1.6613,0.2746,0.0414,0.0951,-0.0091,0.006,-0.0383,0.0022,-0.0253,0.0233,-0.0033,0.0139,-0.0783,-0.0002,-0.0099,0.0161,0.0018,0.0217,-0.0639,-0.0042,-0.0178,0.0061,-0.0122,0.0052,-0.0031,-0.0025,-0.0024,0.1632,0.4681,-0.6893,0.3102,0.6645,-0.9236,0.3025,-0.3989,0.3222,-0.025,0.6622,-0.9192,0.4464,-0.5479,0.354,0.4513,0.4964,-0.6987,0.0,0.0,0.0,0.0,0.0,0.0,0.0,0.0,0.0,
3.6,run,0.54,3.5,0.34,0.29,0.13,0.0,0.0,0.0,0.039,5.62,1.14,6.59,10.72,11.95,-13.54,10.72,-47.02,92.72,-0.79,11.87,-13.1,15.56,-55.2,95.27,15.82,2.9,5.71,5.72,0.71,6.42,10.86,11.53,-13.51,10.58,-46.99,92.3,-0.89,11.4,-13.15,15.6,-55.14,94.93,15.79,2.29,5.61,0.1635,0.4675,-0.6891,0.3102,0.6641,-0.9236,0.3023,-0.3998,0.3212,-0.0253,0.6619,-0.9194,0.4456,-0.548,0.3521,0.451,0.4961,-0.6988,0.0,0.006,0.0,0.006,0.013,0.0,0.006,0.0,0.013,0.0,0.006,0.0,0.0,0.0,0.013,0.0,0.013,0.0,0.0982,0.0153,0.1104,0.1841,0.1994,-0.2408,0.1841,-0.8237,1.6137,-0.0153,0.1994,-0.2301,0.2715,-0.9649,1.6598,0.2746,0.0414,0.0951,-0.0064,0.0042,-0.0268,0.0016,-0.0177,0.0106,-0.0023,0.0097,-0.0548,-0.0002,-0.0069,0.0113,0.0013,0.0152,-0.0504,-0.003,-0.0125,0.0042,-0.0121,0.0051,-0.0047,-0.001,0.0064,0.1629,0.4676,-0.689,0.3099,0.6637,-0.9238,0.3025,-0.3999,0.321,-0.025,0.6619,-0.9194,0.4465,-0.5481,0.3528,0.4517,0.4961,-0.699,0.0,0.0,0.0,0.0,0.0,0.0,0.0,0.0,0.0,
3.64,run,0.52,3.5,-0.04,0.04,-0.11,0.0,0.0,0.0,0.039,5.62,1.14,6.59,10.72,11.95,-13.54,10.72,-47.02,92.72,-0.79,11.87,-13.1,15.56,-55.2,95.01,15.82,2.9,5.71,5.71,0.66,6.44,10.84,11.49,-13.52,10.58,-47.02,92.15,-0.86,11.37,-13.14,15.59,-55.16,94.85,15.79,2.27,5.47,0.163,0.4665,-0.689,0.3096,0.6635,-0.9237,0.3022,-0.4004,0.3194,-0.0245,0.6612,-0.9193,0.4454,-0.5484,0.3511,0.4511,0.4959,-0.7003,0.0,0.006,0.0,0.006,0.013,0.0,0.006,0.0,0.013,0.0,0.006,0.0,0.0,0.0,0.013,0.0,0.013,0.0,0.0982,0.0123,0.1104,0.1841,0.1994,-0.2378,0.1841,-0.8237,1.6107,-0.0153,0.1994,-0.2301,0.2715,-0.9649,1.6598,0.2746,0.0414,0.0951,-0.0045,-0.0086,-0.0188,0.0011,-0.0124,0.0189,-0.0016,0.0068,-0.0499,-0.0001,-0.0049,0.0079,0.0009,0.0106,-0.0353,-0.0021,-0.0087,0.003,-0.0108,0.0059,0.006,0.0051,0.0023,0.1635,0.4675,-0.6891,0.3102,0.6641,-0.9236,0.3023,-0.3998,0.3212,-0.0253,0.6619,-0.9194,0.4456,-0.548,0.3521,0.451,0.4961,-0.6988,0.0,0.0,0.0,0.0,0.0,0.0,0.0,0.0,0.0,
3.68,run,0.51,3.5,-0.27,-0.22,0.21,0.0,0.0,0.0,0.039,5.62,1.14,6.59,10.72,11.95,-13.54,10.72,-47.02,92.72,-0.79,11.78,-13.1,15.56,-55.2,94.83,15.82,2.9,5.71,5.71,0.65,6.52,10.83,11.5,-13.55,10.58,-47.07,92.16,-0.88,11.39,-13.15,15.58,-55.16,94.76,15.8,2.31,5.55,0.1632,0.4663,-0.688,0.3094,0.6636,-0.9241,0.3023,-0.4012,0.3196,-0.025,0.6616,-0.9194,0.445,-0.5484,0.3501,0.4513,0.4965,-0.6994,0.0,0.006,0.0,0.006,0.013,0.0,0.006,0.0,0.013,0.0,0.006,0.0,0.0,0.0,0.013,0.0,0.013,0.0,0.0982,0.0123,0.1104,0.1841,0.1994,-0.2378,0.1841,-0.8237,1.6107,-0.0153,0.1994,-0.2301,0.2715,-0.9649,1.6552,0.2746,0.0414,0.0951,-0.0031,-0.006,-0.0131,0.0008,-0.0087,0.0132,-0.0011,0.0048,-0.0349,-0.0001,-0.0034,0.0055,0.0006,0.0074,-0.0391,-0.0014,-0.0061,0.0021,-0.0122,0.0057,-0.0007,0.0007,-0.002,0.163,0.4665,-0.689,0.3096,0.6635,-0.9237,0.3022,-0.4004,0.3194,-0.0245,0.6612,-0.9193,0.4454,-0.5484,0.3511,0.4511,0.4959,-0.7003,0.0,0.0,0.0,0.0,0.0,0.0,0.0,0.0,0.0,
3.72,run,0.53,3.51,0.24,0.14,0.28,0.0,0.0,0.0,0.039,5.62,1.14,6.59,10.72,11.95,-13.54,10.72,-47.02,92.64,-0.79,11.78,-13.1,15.56,-55.2,94.83,15.82,2.9,5.71,5.73,0.65,6.54,10.83,11.52,-13.55,10.59,-47.06,92.19,-0.89,11.43,-13.16,15.57,-55.14,94.75,15.81,2.35,5.62,0.1637,0.4663,-0.6877,0.3094,0.664,-0.9242,0.3026,-0.4011,0.3199,-0.0253,0.6623,-0.9196,0.4448,-0.548,0.35,0.4516,0.4973,-0.6986,0.0,0.013,0.0,0.0,0.006,0.0,0.0,0.0,0.006,0.0,0.006,0.0,0.0,0.0,0.0,0.0,0.006,0.0,0.0982,0.0123,0.1104,0.1841,0.1994,-0.2378,0.1841,-0.8237,1.6107,-0.0153,0.1979,-0.2301,0.2715,-0.9649,1.6521,0.2746,0.0414,0.0951,-0.0022,-0.0042,-0.0092,0.0005,-0.0061,0.0093,-0.0008,0.0033,-0.0245,-0.0001,-0.0081,0.0039,0.0004,0.0052,-0.0388,-0.001,-0.0043,0.0015,-0.0131,0.0058,-0.0048,-0.0038,0.0036,0.1632,0.4663,-0.688,0.3094,0.6636,-0.9241,0.3023,-0.4012,0.3196,-0.025,0.6616,-0.9194,0.445,-0.5484,0.3501,0.4513,0.4965,-0.6994,0.0,0.0,0.0,0.0,0.0,0.0,0.0,0.0,0.0,
3.76,run,0.52,3.5,-0.22,-0.02,-0.1,0.0,0.0,0.0,0.039,5.62,1.14,6.59,10.72,11.95,-13.54,10.72,-47.02,92.64,-0.79,11.78,-13.1,15.56,-55.2,94.83,15.82,2.9,5.71,5.73,0.6,6.53,10.81,11.52,-13.52,10.58,-47.07,92.14,-0.87,11.41,-13.18,15.56,-55.15,94.72,15.8,2.36,5.52,0.1638,0.4654,-0.6879,0.3088,0.664,-0.9238,0.3023,-0.4013,0.3193,-0.0247,0.6619,-0.9198,0.4445,-0.5481,0.3496,0.4515,0.4974,-0.6997,0.0,0.013,0.0,0.0,0.006,0.0,0.0,0.0,0.006,0.0,0.006,0.0,0.0,0.0,0.0,0.0,0.006,0.0,0.0982,0.0123,0.1104,0.1841,0.1994,-0.2378,0.1841,-0.8237,1.6091,-0.0153,0.1979,-0.2301,0.2715,-0.9649,1.6521,0.2746,0.0414,0.0951,-0.0015,-0.0029,-0.0064,0.0004,-0.0043,0.0065,-0.0006,0.0023,-0.0229,-0.0,-0.0057,0.0027,0.0003,0.0036,-0.0272,-0.0007,-0.003,0.001,-0.011,0.0061,0.0041,0.0025,0.0048,0.1637,0.4663,-0.6877,0.3094,0.664,-0.9242,0.3026,-0.4011,0.3199,-0.0253,0.6623,-0.9196,0.4448,-0.548,0.35,0.4516,0.4973,-0.6986,0.0,0.0,0.0,0.0,0.0,0.0,0.0,0.0,0.0,
3.8,run,0.53,3.51,0.21,0.17,0.16,0.0,0.0,0.0,0.039,5.62,1.14,6.59,10.72,11.95,-13.54,10.72,-47.02,92.64,-0.79,11.78,-13.1,15.56,-55.2,94.75,15.82,2.9,5.71,5.73,0.62,6.56,10.81,11.52,-13.57,10.59,-47.11,92.19,-0.88,11.42,-13.2,15.56,-55.17,94.7,15.81,2.36,5.57,0.1638,0.4658,-0.6876,0.309,0.6641,-0.9244,0.3025,-0.402,0.3199,-0.0251,0.6621,-0.92,0.4445,-0.5486,0.3494,0.4516,0.4974,-0.6992,0.0,0.013,0.0,0.0,0.006,0.0,0.0,0.0,0.006,0.0,0.006,0.0,0.0,0.0,0.0,0.0,0.006,0.0,0.0982,0.0123,0.1104,0.1841,0.1994,-0.2378,0.1841,-0.8237,1.6091,-0.0153,0.1979,-0.2301,0.2715,-0.9649,1.6521,0.2746,0.0414,0.0951,-0.0011,-0.0021,-0.0045,0.0003,-0.003,0.0045,-0.0004,0.0016,-0.016,-0.0,-0.004,0.0019,0.0002,0.0025,-0.019,-0.0005,-0.0021,0.0007,-0.0121,0.0055,-0.0039,-0.0003,-0.0018,0.1638,0.4654,-0.6879,0.3088,0.664,-0.9238,0.3023,-0.4013,0.3193,-0.0247,0.6619,-0.9198,0.4445,-0.5481,0.3496,0.4515,0.4974,-0.6997,0.0,0.0,0.0,0.0,0.0,0.0,0.0,0.0,0.0,
3.84,run,0.52,3.5,-0.21,-0.11,-0.04,0.0,0.0,0.0,0.039,5.62,1.14,6.59,10.72,11.95,-13.54,10.72,-47.02,92.64,-0.79,11.78,-13.1,15.56,-55.2,94.83,15.82,2.9,5.71,5.74,0.57,6.57,10.8,11.53,-13.54,10.58,-47.11,92.16,-0.87,11.41,-13.2,15.54,-55.16,94.67,15.8,2.37,5.53,0.164,0.465,-0.6874,0.3085,0.6642,-0.924,0.3023,-0.402,0.3195,-0.0248,0.662,-0.92,0.4441,-0.5484,0.3491,0.4514,0.4977,-0.6997,0.0,0.013,0.0,0.0,0.013,0.0,0.0,0.0,0.006,0.0,0.006,0.0,0.0,0.0,0.0,0.0,0.013,0.006,0.0982,0.0123,0.1104,0.1841,0.1994,-0.2378,0.1841,-0.8237,1.6091,-0.0153,0.1979,-0.2301,0.2715,-0.9649,1.6506,0.2746,0.0414,0.0951,-0.0008,-0.0014,-0.0032,0.0002,-0.0021,0.0032,-0.0003,0.0011,-0.0112,-0.0,-0.0028,0.0013,0.0002,0.0018,-0.019,-0.0003,-0.0015,0.0005,-0.0114,0.0064,0.0037,0.003,0.0028,0.1638,0.4658,-0.6876,0.309,0.6641,-0.9244,0.3025,-0.402,0.3199,-0.0251,0.6621,-0.92,0.4445,-0.5486,0.3494,0.4516,0.4974,-0.6992,0.0,0.0,0.0,0.0,0.0,0.0,0.0,0.0,0.0,
3.88,run,0.54,3.5,0.16,0.19,0.22,0.0,0.0,0.0,0.039,5.62,1.14,6.59,10.72,11.95,-13.54,10.72,-47.02,92.64,-0.79,11.78,-13.1,15.56,-55.2,94.66,15.82,2.9,5.71,5.74,0.61,6.54,10.82,11.54,-13.58,10.59,-47.12,92.22,-0.88,11.42,-13.22,15.55,-55.19,94.69,15.8,2.36,5.57,0.164,0.4657,-0.6877,0.3091,0.6643,-0.9245,0.3026,-0.4023,0.3202,-0.0251,0.6622,-0.9203,0.4443,-0.5489,0.3493,0.4515,0.4975,-0.6992,0.0,0.013,0.0,0.0,0.013,0.0,0.0,0.0,0.006,0.0,0.006,0.0,0.0,0.0,0.0,0.0,0.013,0.006,0.0982,0.0123,0.1104,0.1841,0.1994,-0.2378,0.1841,-0.8237,1.6091,-0.0153,0.1979,-0.2301,0.2715,-0.9649,1.6521,0.2746,0.0414,0.0951,-0.0005,-0.001,-0.0022,0.0001,-0.0015,0.0022,-0.0002,0.0008,-0.0078,-0.0,-0.0019,0.0009,0.0001,0.0012,-0.0076,-0.0002,-0.001,0.0003,-0.0118,0.0057,-0.0036,-0.0019,-0.0006,0.164,0.465,-0.6874,0.3085,0.6642,-0.924,0.3023,-0.402,0.3195,-0.0248,0.662,-0.92,0.4441,-0.5484,0.3491,0.4514,0.4977,-0.6997,0.0,0.0,0.0,0.0,0.0,0.0,0.0,0.0,0.0,
3.92,run,0.52,3.5,-0.13,-0.01,-0.04,0.0,0.0,0.0,0.039,5.62,1.14,6.59,10.72,11.95,-13.54,10.72,-47.02,92.64,-0.79,11.78,-13.1,15.56,-55.2,94.66,15.82,2.9,5.71,5.75,0.56,6.58,10.79,11.53,-13.53,10.58,-47.11,92.15,-0.87,11.42,-13.21,15.54,-55.15,94.66,15.8,2.39,5.53,0.1642,0.4646,-0.6873,0.3084,0.6642,-0.9239,0.3023,-0.4021,0.3194,-0.0248,0.6622,-0.9201,0.444,-0.5483,0.3489,0.4515,0.498,-0.6996,0.0,0.013,0.0,0.0,0.013,0.0,0.0,0.0,0.006,0.0,0.006,0.0,0.0,0.0,0.0,0.0,0.013,0.006,0.0982,0.0123,0.1104,0.1841,0.1994,-0.2378,0.1841,-0.8237,1.6091,-0.0153,0.1979,-0.2301,0.2715,-0.9649,1.649,0.2746,0.0414,0.0951,-0.0004,-0.0007,-0.0015,0.0001,-0.001,0.0016,-0.0001,0.0006,-0.0055,-0.0,-0.0014,0.0007,0.0001,0.0009,-0.0169,-0.0002,-0.0007,0.0002,-0.0107,0.0057,0.0028,0.0034,0.0038,0.164,0.4657,-0.6877,0.3091,0.6643,-0.9245,0.3026,-0.4023,0.3202,-0.0251,0.6622,-0.9203,0.4443,-0.5489,0.3493,0.4515,0.4975,-0.6992,0.0,0.0,0.0,0.0,0.0,0.0,0.0,0.0,0.0,
3.96,run,0.53,3.51,0.09,0.09,0.19,0.0,0.0,0.0,0.039,5.62,1.14,6.59,10.72,11.95,-13.54,10.72,-47.02,92.64,-0.79,11.78,-13.1,15.56,-55.2,94.66,15.82,2.9,5.71,5.74,0.58,6.59,10.8,11.54,-13.57,10.59,-47.14,92.2,-0.88,11.43,-13.23,15.54,-55.17,94.66,15.81,2.39,5.56,0.1641,0.4651,-0.6871,0.3086,0.6644,-0.9244,0.3025,-0.4025,0.32,-0.0251,0.6624,-0.9203,0.4441,-0.5486,0.3489,0.4516,0.498,-0.6993,0.0,0.013,0.0,0.0,0.006,0.0,0.006,0.0,0.006,0.0,0.006,0.0,0.0,0.0,0.0,0.0,0.006,0.0,0.0982,0.0123,0.1104,0.1841,0.1994,-0.2378,0.1841,-0.8237,1.6091,-0.0153,0.1979,-0.2301,0.2715,-0.9649,1.649,0.2746,0.0414,0.0951,-0.0003,-0.0005,-0.0011,0.0001,-0.0007,0.0011,-0.0001,0.0004,-0.0038,-0.0,-0.001,0.0005,0.0001,0.0006,-0.0118,-0.0001,-0.0005,0.0002,-0.0121,0.0056,-0.0023,-0.0002,-0.0008,0.1642,0.4646,-0.6873,0.3084,0.6642,-0.9239,0.3023,-0.4021,0.3194,-0.0248,0.6622,-0.9201,0.444,-0.5483,0.3489,0.4515,0.498,-0.6996,0.0,0.0,0.0,0.0,0.0,0.0,0.0,0.0,0.0,
4.0,run,0.53,3.51,-0.09,0.04,0.09,0.0,0.0,0.0,0.039,5.62,1.14,6.59,10.72,11.95,-13.54,10.72,-47.02,92.64,-0.79,11.78,-13.1,15.56,-55.2,94.66,15.82,2.9,5.71,5.75,0.56,6.58,10.8,11.55,-13.55,10.58,-47.13,92.18,-0.87,11.43,-13.23,15.54,-55.17,94.66,15.8,2.39,5.54,0.1642,0.4647,-0.6873,0.3085,0.6645,-0.9241,0.3024,-0.4023,0.3198,-0.0249,0.6623,-0.9203,0.4439,-0.5485,0.3489,0.4515,0.4981,-0.6995,0.0,0.013,0.0,0.0,0.006,0.0,0.006,0.0,0.006,0.0,0.006,0.0,0.0,0.0,0.0,0.0,0.006,0.0,0.0982,0.0123,0.1104,0.1841,0.1994,-0.2378,0.1841,-0.8237,1.6091,-0.0153,0.1979,-0.2301,0.2715,-0.9649,1.649,0.2746,0.0414,0.0951,-0.0002,-0.0003,-0.0008,0.0,-0.0005,0.0008,-0.0001,0.0003,-0.0027,-0.0,-0.0007,0.0003,0.0,0.0004,-0.0083,-0.0001,-0.0004,0.0001,-0.0113,0.006,0.0016,0.0015,0.0032,0.1641,0.4651,-0.6871,0.3086,0.6644,-0.9244,0.3025,-0.4025,0.32,-0.0251,0.6624,-0.9203,0.4441,-0.5486,0.3489,0.4516,0.498,-0.6993,0.0,0.0,0.0,0.0,0.0,0.0,0.0,0.0,0.0,
4.04,run,0.52,3.51,-0.04,0.03,0.09,0.0,0.0,0.0,0.039,5.62,1.14,6.59,10.72,11.95,-13.54,10.72,-47.02,92.64,-0.79,11.78,-13.1,15.56,-55.2,94.66,15.82,2.9,5.71,5.75,0.57,6.59,10.8,11.55,-13.57,10.59,-47.14,92.2,-0.87,11.43,-13.23,15.54,-55.17,94.66,15.81,2.4,5.55,0.1642,0.4649,-0.6872,0.3085,0.6645,-0.9243,0.3025,-0.4025,0.32,-0.0249,0.6624,-0.9203,0.444,-0.5486,0.3489,0.4516,0.4981,-0.6994,0.0,0.013,0.0,0.0,0.006,0.0,0.006,0.0,0.006,0.0,0.006,0.0,0.0,0.0,0.0,0.0,0.006,0.0,0.0982,0.0123,0.1104,0.1841,0.1994,-0.2378,0.1841,-0.8237,1.6091,-0.0153,0.1979,-0.2301,0.2715,-0.9649,1.649,0.2746,0.0414,0.0951,-0.0001,-0.0002,-0.0005,0.0,-0.0004,0.0005,-0.0,0.0002,-0.0019,-0.0,-0.0005,0.0002,0.0,0.0003,-0.0058,-0.0001,-0.0002,0.0001,-0.0116,0.006,-0.0016,0.0007,0.0015,0.1642,0.4647,-0.6873,0.3085,0.6645,-0.9241,0.3024,-0.4023,0.3198,-0.0249,0.6623,-0.9203,0.4439,-0.5485,0.3489,0.4515,0.4981,-0.6995,0.0,0.0,0.0,0.0,0.0,0.0,0.0,0.0,0.0,
4.08,run,0.53,3.51,-0.07,-0.01,0.09,0.0,0.0,0.0,0.039,5.62,1.14,6.59,10.72,11.95,-13.54,10.72,-47.02,92.64,-0.79,11.78,-13.1,15.56,-55.2,94.66,15.82,2.9,5.71,5.75,0.57,6.59,10.8,11.55,-13.56,10.59,-47.14,92.21,-0.87,11.43,-13.23,15.54,-55.18,94.66,15.8,2.4,5.55,0.1643,0.4648,-0.6872,0.3085,0.6646,-0.9243,0.3025,-0.4026,0.3201,-0.0249,0.6624,-0.9204,0.4439,-0.5487,0.3489,0.4515,0.4981,-0.6994,0.0,0.013,0.0,0.0,0.006,0.0,0.006,0.0,0.006,0.0,0.006,0.006,0.0,0.0,0.0,0.0,0.013,0.0,0.0982,0.0123,0.1104,0.1841,0.1994,-0.2378,0.1841,-0.8237,1.6091,-0.0153,0.1979,-0.2301,0.2715,-0.9649,1.649,0.2746,0.0414,0.0951,-0.0001,-0.0002,-0.0004,0.0,-0.0002,0.0004,-0.0,0.0001,-0.0013,-0.0,-0.0003,0.0002,0.0,0.0002,-0.004,-0.0,-0.0002,0.0001,-0.0119,0.0061,-0.0007,0.0005,0.0016,0.1642,0.4649,-0.6872,0.3085,0.6645,-0.9243,0.3025,-0.4025,0.32,-0.0249,0.6624,-0.9203,0.444,-0.5486,0.3489,0.4516,0.4981,-0.6994,0.0,0.0,0.0,0.0,0.0,0.0,0.0,0.0,0.0,
4.12,run,0.53,3.51,0.05,0.08,0.06,0.0,0.0,0.0,0.039,5.62,1.14,6.59,10.72,11.95,-13.54,10.72,-47.02,92.64,-0.79,11.78,-13.18,15.56,-55.2,94.66,15.82,2.9,5.71,5.75,0.57,6.59,10.8,11.56,-13.57,10.59,-47.14,92.21,-0.87,11.43,-13.23,15.54,-55.18,94.66,15.8,2.4,5.55,0.1643,0.4649,-0.6872,0.3085,0.6646,-0.9243,0.3025,-0.4026,0.3202,-0.0249,0.6624,-0.9204,0.444,-0.5487,0.349,0.4515,0.4982,-0.6994,0.0,0.013,0.0,0.0,0.006,0.0,0.006,0.0,0.006,0.0,0.006,0.006,0.0,0.0,0.0,0.0,0.013,0.0,0.0982,0.0123,0.1104,0.1841,0.1994,-0.2378,0.1841,-0.8237,1.6091,-0.0153,0.1979,-0.2301,0.2715,-0.9649,1.649,0.2746,0.0414,0.0951,-0.0001,-0.0001,-0.0003,0.0,-0.0002,0.0003,-0.0,0.0001,-0.0009,-0.0,-0.0002,0.0001,0.0,0.0001,-0.0028,-0.0,-0.0001,0.0,-0.0117,0.0061,-0.0012,-0.0002,0.0015,0.1643,0.4648,-0.6872,0.3085,0.6646,-0.9243,0.3025,-0.4026,0.3201,-0.0249,0.6624,-0.9204,0.4439,-0.5487,0.3489,0.4515,0.4981,-0.6994,0.0,0.0,0.0,0.0,0.0,0.0,0.0,0.0,0.0,
4.16,run,0.53,3.51,0.03,0.13,0.13,0.0,0.0,0.0,0.039,5.62,1.14,6.59,10.72,11.95,-13.54,10.72,-47.02,92.64,-0.79,11.78,-13.18,15.56,-55.2,94.66,15.82,2.9,5.71,5.75,0.56,6.59,10.79,11.56,-13.58,10.59,-47.15,92.21,-0.87,11.44,-13.24,15.54,-55.19,94.67,15.81,2.41,5.54,0.1643,0.4648,-0.6872,0.3083,0.6648,-0.9245,0.3025,-0.4027,0.3201,-0.0247,0.6625,-0.9205,0.444,-0.5489,0.3491,0.4517,0.4983,-0.6995,0.0,0.013,0.0,0.0,0.006,0.0,0.006,0.0,0.006,0.0,0.006,0.006,0.0,0.0,0.0,0.0,0.013,0.0,0.0982,0.0123,0.1104,0.1841,0.1994,-0.2378,0.1841,-0.8237,1.6091,-0.0153,0.1979,-0.2316,0.2715,-0.9649,1.649,0.2746,0.0414,0.0951,-0.0,-0.0001,-0.0002,0.0,-0.0001,0.0002,-0.0,0.0001,-0.0006,-0.0,-0.0002,-0.0048,0.0,0.0001,-0.002,-0.0,-0.0001,0.0,-0.0113,0.0061,0.0008,0.0014,0.001,0.1643,0.4649,-0.6872,0.3085,0.6646,-0.9243,0.3025,-0.4026,0.3202,-0.0249,0.6624,-0.9204,0.444,-0.5487,0.349,0.4515,0.4982,-0.6994,0.0,0.0,0.0,0.0,0.0,0.0,0.0,0.0,0.0,
4.2,run,0.53,3.51,-0.05,-0.0,0.06,0.0,0.0,0.0,0.039,5.62,1.14,6.59,10.72,11.95,-13.54,10.72,-47.02,92.64,-0.79,11.78,-13.18,15.56,-55.2,94.66,15.82,2.9,5.71,5.75,0.56,6.6,10.79,11.57,-13.58,10.59,-47.15,92.22,-0.86,11.43,-13.23,15.54,-55.19,94.67,15.81,2.41,5.54,0.1643,0.4647,-0.6871,0.3082,0.6648,-0.9245,0.3025,-0.4028,0.3202,-0.0247,0.6624,-0.9204,0.444,-0.5489,0.3491,0.4516,0.4984,-0.6996,0.0,0.013,0.0,0.0,0.006,0.0,0.0,0.0,0.006,0.0,0.0,0.0,0.0,0.0,0.0,0.0,0.006,0.006,0.0982,0.0123,0.1104,0.1841,0.1994,-0.2378,0.1841,-0.8237,1.6091,-0.0153,0.1979,-0.2316,0.2715,-0.9649,1.649,0.2746,0.0414,0.0951,-0.0,-0.0001,-0.0001,0.0,-0.0001,0.0001,-0.0,0.0,-0.0005,-0.0,-0.0001,-0.0033,0.0,0.0001,-0.0014,-0.0,-0.0001,0.0,-0.0114,0.0067,0.0005,0.0023,0.0023,0.1643,0.4648,-0.6872,0.3083,0.6648,-0.9245,0.3025,-0.4027,0.3201,-0.0247,0.6625,-0.9205,0.444,-0.5489,0.3491,0.4517,0.4983,-0.6995,0.0,0.0,0.0,0.0,0.0,0.0,0.0,0.0,0.0,
4.24,run,0.53,3.52,0.02,0.13,0.15,0.0,0.0,0.0,0.039,5.62,1.14,6.59,10.72,11.95,-13.54,10.72,-47.02,92.64,-0.79,11.78,-13.18,15.56,-55.2,94.66,15.82,2.9,5.71,5.75,0.57,6.59,10.79,11.57,-13.59,10.59,-47.16,92.23,-0.87,11.44,-13.24,15.54,-55.19,94.68,15.81,2.41,5.55,0.1643,0.4649,-0.6871,0.3083,0.6649,-0.9246,0.3026,-0.4029,0.3204,-0.0248,0.6625,-0.9205,0.4441,-0.549,0.3492,0.4518,0.4984,-0.6994,0.0,0.013,0.0,0.0,0.006,0.0,0.0,0.0,0.006,0.0,0.0,0.0,0.0,0.0,0.0,0.0,0.006,0.006,0.0982,0.0123,0.1104,0.1841,0.1994,-0.2378,0.1841,-0.8237,1.6091,-0.0153,0.1979,-0.2316,0.2715,-0.9649,1.649,0.2746,0.0414,0.0951,-0.0,-0.0,-0.0001,0.0,-0.0001,0.0001,-0.0,0.0,-0.0003,-0.0,-0.0001,-0.0023,0.0,0.0001,-0.001,-0.0,-0.0,0.0,-0.0114,0.0067,-0.0008,-0.0001,0.0011,0.1643,0.4647,-0.6871,0.3082,0.6648,-0.9245,0.3025,-0.4028,0.3202,-0.0247,0.6624,-0.9204,0.444,-0.5489,0.3491,0.4516,0.4984,-0.6996,0.0,0.0,0.0,0.0,0.0,0.0,0.0,0.0,0.0,
4.28,run,0.53,3.52,-0.05,0.04,0.06,0.0,0.0,0.0,0.039,5.62,1.14,6.59,10.72,11.95,-13.54,10.72,-47.11,92.64,-0.79,11.78,-13.18,15.56,-55.2,94.66,15.82,2.9,5.71,5.75,0.56,6.61,10.79,11.57,-13.59,10.59,-47.16,92.23,-0.86,11.43,-13.23,15.54,-55.19,94.68,15.81,2.41,5.54,0.1643,0.4647,-0.687,0.3082,0.6649,-0.9245,0.3025,-0.4029,0.3204,-0.0247,0.6624,-0.9204,0.444,-0.5489,0.3492,0.4517,0.4984,-0.6996,0.0,0.013,0.0,0.0,0.006,0.0,0.0,0.0,0.006,0.0,0.0,0.0,0.0,0.0,0.0,0.0,0.006,0.006,0.0982,0.0123,0.1104,0.1841,0.1994,-0.2378,0.1841,-0.8237,1.6091,-0.0153,0.1979,-0.2316,0.2715,-0.9649,1.649,0.2746,0.0414,0.0951,-0.0,-0.0,-0.0001,0.0,-0.0,0.0001,-0.0,0.0,-0.0002,-0.0,-0.0001,-0.0016,0.0,0.0,-0.0007,-0.0,-0.0,0.0,-0.0117,0.0072,0.0003,0.0022,0.0026,0.1643,0.4649,-0.6871,0.3083,0.6649,-0.9246,0.3026,-0.4029,0.3204,-0.0248,0.6625,-0.9205,0.4441,-0.549,0.3492,0.4518,0.4984,-0.6994,0.0,0.0,0.0,0.0,0.0,0.0,0.0,0.0,0.0,
4.32,run,0.52,3.52,0.0,0.06,0.12,0.0,0.0,0.0,0.039,5.62,1.14,6.59,10.72,11.95,-13.54,10.72,-47.11,92.64,-0.79,11.78,-13.18,15.56,-55.2,94.66,15.82,2.9,5.71,5.75,0.56,6.61,10.79,11.57,-13.61,10.6,-47.17,92.24,-0.87,11.45,-13.26,15.55,-55.19,94.69,15.82,2.42,5.54,0.1642,0.4647,-0.6869,0.3082,0.665,-0.9248,0.3028,-0.4031,0.3205,-0.0249,0.6627,-0.9207,0.4442,-0.5489,0.3493,0.452,0.4986,-0.6995,0.0,0.019,0.0,0.0,0.006,0.0,0.0,0.0,0.006,0.0,0.006,0.0,0.0,0.0,0.0,0.0,0.013,0.0,0.0982,0.0123,0.1104,0.1841,0.1994,-0.2378,0.1841,-0.8253,1.6091,-0.0153,0.1979,-0.2316,0.2715,-0.9649,1.649,0.2746,0.0414,0.0951,-0.0,-0.0,-0.0,0.0,-0.0,0.0,-0.0,-0.0057,-0.0002,-0.0,-0.0,-0.0011,0.0,0.0,-0.0005,-0.0,-0.0,0.0,-0.0117,0.0073,-0.0009,0.0007,0.0011,0.1643,0.4647,-0.687,0.3082,0.6649,-0.9245,0.3025,-0.4029,0.3204,-0.0247,0.6624,-0.9204,0.444,-0.5489,0.3492,0.4517,0.4984,-0.6996,0.0,0.0,0.0,0.0,0.0,0.0,0.0,0.0,0.0,
4.36,run,0.53,3.53,0.03,-0.0,0.02,0.0,0.0,0.0,0.039,5.62,1.14,6.59,10.72,11.95,-13.54,10.72,-47.11,92.64,-0.79,11.69,-13.18,15.56,-55.2,94.66,15.82,2.9,5.71,5.75,0.56,6.61,10.79,11.58,-13.6,10.6,-47.17,92.25,-0.87,11.45,-13.25,15.54,-55.19,94.69,15.82,2.43,5.54,0.1643,0.4647,-0.6869,0.3082,0.6651,-0.9248,0.3028,-0.4031,0.3206,-0.0248,0.6627,-0.9206,0.4441,-0.5489,0.3493,0.4519,0.4986,-0.6995,0.0,0.019,0.0,0.0,0.006,0.0,0.0,0.0,0.006,0.0,0.006,0.0,0.0,0.0,0.0,0.0,0.013,0.0,0.0982,0.0123,0.1104,0.1841,0.1994,-0.2378,0.1841,-0.8253,1.6091,-0.0153,0.1979,-0.2316,0.2715,-0.9649,1.649,0.2746,0.0414,0.0951,-0.0,-0.0,-0.0,0.0,-0.0,0.0,-0.0,-0.004,-0.0001,-0.0,-0.0,-0.0008,0.0,0.0,-0.0003,-0.0,-0.0,0.0,-0.0119,0.0073,0.0,0.001,0.0022,0.1642,0.4647,-0.6869,0.3082,0.665,-0.9248,0.3028,-0.4031,0.3205,-0.0249,0.6627,-0.9207,0.4442,-0.5489,0.3493,0.452,0.4986,-0.6995,0.0,0.0,0.0,0.0,0.0,0.0,0.0,0.0,0.0,
4.4,run,0.52,3.52,-0.01,-0.0,0.09,0.0,0.0,0.0,0.039,5.62,1.14,6.59,10.72,11.95,-13.54,10.72,-47.11,92.64,-0.79,11.69,-13.18,15.56,-55.2,94.66,15.82,2.9,5.71,5.75,0.57,6.62,10.78,11.58,-13.63,10.6,-47.17,92.24,-0.87,11.45,-13.25,15.55,-55.2,94.69,15.83,2.44,5.55,0.1644,0.4649,-0.6868,0.3081,0.6651,-0.9251,0.3028,-0.4031,0.3205,-0.0248,0.6628,-0.9206,0.4443,-0.5491,0.3494,0.4522,0.4989,-0.6995,0.0,0.019,0.0,0.0,0.006,0.0,0.0,0.0,0.006,0.0,0.006,0.0,0.0,0.0,0.0,0.0,0.013,0.0,0.0982,0.0123,0.1104,0.1841,0.1994,-0.2378,0.1841,-0.8253,1.6091,-0.0153,0.1963,-0.2316,0.2715,-0.9649,1.649,0.2746,0.0414,0.0951,-0.0,-0.0,-0.0,0.0,-0.0,0.0,-0.0,-0.0028,-0.0001,-0.0,-0.0058,-0.0006,0.0,0.0,-0.0002,-0.0,-0.0,0.0,-0.0117,0.0078,0.0005,-0.0001,0.0003,0.1643,0.4647,-0.6869,0.3082,0.6651,-0.9248,0.3028,-0.4031,0.3206,-0.0248,0.6627,-0.9206,0.4441,-0.5489,0.3493,0.4519,0.4986,-0.6995,0.0,0.0,0.0,0.0,0.0,0.0,0.0,0.0,0.0,
4.44,run,0.52,3.52,0.0,-0.04,0.03,0.0,0.0,0.0,0.039,5.62,1.14,6.59,10.72,11.95,-13.54,10.72,-47.11,92.64,-0.79,11.69,-13.18,15.56,-55.2,94.66,15.82,2.9,5.71,5.75,0.57,6.61,10.79,11.58,-13.62,10.6,-47.17,92.25,-0.87,11.46,-13.26,15.55,-55.2,94.7,15.82,2.44,5.55,0.1644,0.4649,-0.6869,0.3082,0.6651,-0.9249,0.3028,-0.403,0.3206,-0.0248,0.6628,-0.9207,0.4442,-0.549,0.3494,0.4521,0.4988,-0.6994,0.0,0.019,0.0,0.0,0.006,0.0,0.0,0.0,0.006,0.0,0.006,0.0,0.0,0.0,0.0,0.0,0.006,0.0,0.0982,0.0123,0.1104,0.1841,0.1994,-0.2378,0.1841,-0.8253,1.6091,-0.0153,0.1963,-0.2316,0.2715,-0.9649,1.649,0.2746,0.0414,0.0951,-0.0,-0.0,-0.0,0.0,-0.0,0.0,-0.0,-0.0019,-0.0001,-0.0,-0.0041,-0.0004,0.0,0.0,-0.0002,-0.0,-0.0,0.0,-0.0118,0.0075,-0.0003,-0.0001,0.0015,0.1644,0.4649,-0.6868,0.3081,0.6651,-0.9251,0.3028,-0.4031,0.3205,-0.0248,0.6628,-0.9206,0.4443,-0.5491,0.3494,0.4522,0.4989,-0.6995,0.0,0.0,0.0,0.0,0.0,0.0,0.0,0.0,0.0,
4.48,run,0.52,3.52,-0.07,0.05,0.14,0.0,0.0,0.0,0.039,5.62,1.14,6.59,10.72,11.95,-13.54,10.72,-47.11,92.64,-0.79,11.69,-13.18,15.56,-55.2,94.66,15.82,2.9,5.71,5.76,0.57,6.61,10.79,11.58,-13.62,10.6,-47.17,92.26,-0.87,11.46,-13.26,15.55,-55.2,94.7,15.82,2.44,5.55,0.1644,0.4649,-0.687,0.3082,0.6652,-0.9249,0.3028,-0.4031,0.3207,-0.0249,0.6629,-0.9208,0.4442,-0.5491,0.3494,0.4521,0.4988,-0.6994,0.0,0.019,0.0,0.0,0.006,0.0,0.0,0.0,0.006,0.0,0.006,0.0,0.0,0.0,0.0,0.0,0.006,0.0,0.0982,0.0123,0.1104,0.1841,0.1994,-0.2378,0.1841,-0.8253,1.6091,-0.0153,0.1963,-0.2316,0.2715,-0.9649,1.649,0.2746,0.0414,0.0951,-0.0,-0.0,-0.0,0.0,-0.0,0.0,-0.0,-0.0014,-0.0,-0.0,-0.0028,-0.0003,0.0,0.0,-0.0001,-0.0,-0.0,0.0,-0.0118,0.0072,0.0,-0.0007,0.0006,0.1644,0.4649,-0.6869,0.3082,0.6651,-0.9249,0.3028,-0.403,0.3206,-0.0248,0.6628,-0.9207,0.4442,-0.549,0.3494,0.4521,0.4988,-0.6994,0.0,0.0,0.0,0.0,0.0,0.0,0.0,0.0,0.0,
4.52,run,0.52,3.52,-0.07,0.03,0.12,0.0,0.0,0.0,0.039,5.62,1.14,6.59,10.72,11.95,-13.54,10.72,-47.11,92.64,-0.79,11.69,-13.18,15.56,-55.2,94.66,15.82,2.9,5.71,5.76,0.57,6.61,10.79,11.58,-13.61,10.6,-47.16,92.26,-0.87,11.46,-13.26,15.55,-55.19,94.71,15.82,2.43,5.56,0.1645,0.4649,-0.6869,0.3082,0.6652,-0.9249,0.3028,-0.403,0.3208,-0.0248,0.6629,-0.9207,0.4442,-0.5489,0.3495,0.452,0.4988,-0.6993,0.0,0.019,0.0,0.0,0.006,0.0,0.0,0.0,0.006,0.0,0.006,0.0,0.0,0.0,0.0,0.0,0.006,0.0,0.0982,0.0123,0.1104,0.1841,0.1994,-0.2378,0.1841,-0.8253,1.6091,-0.0153,0.1963,-0.2316,0.2715,-0.9649,1.649,0.2746,0.0414,0.0951,-0.0,-0.0,-0.0,0.0,-0.0,0.0,-0.0,-0.001,-0.0,-0.0,-0.002,-0.0002,0.0,0.0,-0.0001,-0.0,-0.0,0.0,-0.012,0.0072,-0.0012,0.0009,0.0024,0.1644,0.4649,-0.687,0.3082,0.6652,-0.9249,0.3028,-0.4031,0.3207,-0.0249,0.6629,-0.9208,0.4442,-0.5491,0.3494,0.4521,0.4988,-0.6994,0.0,0.0,0.0,0.0,0.0,0.0,0.0,0.0,0.0,
4.56,run,0.52,3.52,-0.08,0.08,0.06,0.0,0.0,0.0,0.039,5.62,1.14,6.59,10.72,11.95,-13.54,10.72,-47.11,92.64,-0.79,11.69,-13.18,15.56,-55.2,94.66,15.82,2.9,5.71,5.76,0.57,6.62,10.79,11.59,-13.62,10.6,-47.17,92.27,-0.87,11.46,-13.26,15.55,-55.2,94.71,15.82,2.43,5.55,0.1644,0.4649,-0.6869,0.3082,0.6652,-0.9249,0.3028,-0.403,0.3208,-0.0249,0.6629,-0.9207,0.4442,-0.549,0.3495,0.452,0.4988,-0.6994,0.0,0.013,0.0,0.0,0.006,0.0,0.0,0.0,0.006,0.0,0.006,0.0,0.0,0.0,0.0,0.0,0.006,0.006,0.0982,0.0123,0.1104,0.1841,0.1994,-0.2378,0.1841,-0.8253,1.6091,-0.0153,0.1963,-0.2316,0.2715,-0.9649,1.649,0.2746,0.0414,0.0951,-0.0,-0.0,-0.0,0.0,-0.0,0.0,-0.0,-0.0007,-0.0,-0.0,-0.0014,-0.0001,0.0,0.0,-0.0001,-0.0,-0.0,0.0,-0.0121,0.0074,-0.0012,0.0006,0.002,0.1645,0.4649,-0.6869,0.3082,0.6652,-0.9249,0.3028,-0.403,0.3208,-0.0248,0.6629,-0.9207,0.4442,-0.5489,0.3495,0.452,0.4988,-0.6993,0.0,0.0,0.0,0.0,0.0,0.0,0.0,0.0,0.0,
4.6,run,0.52,3.53,-0.06,0.07,0.12,0.0,0.0,0.0,0.039,5.62,1.14,6.59,10.72,11.95,-13.54,10.72,-47.11,92.64,-0.79,11.69,-13.18,15.56,-55.2,94.66,15.82,2.9,5.71,5.76,0.57,6.62,10.78,11.59,-13.62,10.6,-47.17,92.27,-0.87,11.46,-13.26,15.55,-55.2,94.71,15.82,2.43,5.55,0.1644,0.4649,-0.6868,0.3081,0.6652,-0.9249,0.3028,-0.4031,0.3208,-0.0248,0.6628,-0.9207,0.4442,-0.5491,0.3495,0.452,0.4988,-0.6994,0.0,0.013,0.0,0.0,0.006,0.0,0.0,0.0,0.006,0.0,0.006,0.0,0.0,0.0,0.0,0.0,0.006,0.006,0.0982,0.0123,0.1104,0.1841,0.1994,-0.2378,0.1841,-0.8253,1.6091,-0.0153,0.1963,-0.2316,0.2715,-0.9649,1.649,0.2746,0.0414,0.0951,-0.0,-0.0,-0.0,0.0,-0.0,0.0,-0.0,-0.0005,-0.0,-0.0,-0.001,-0.0001,0.0,0.0,-0.0,-0.0,-0.0,0.0,-0.0121,0.0073,-0.0013,0.0014,0.001,0.1644,0.4649,-0.6869,0.3082,0.6652,-0.9249,0.3028,-0.403,0.3208,-0.0249,0.6629,-0.9207,0.4442,-0.549,0.3495,0.452,0.4988,-0.6994,0.0,0.0,0.0,0.0,0.0,0.0,0.0,0.0,0.0,
4.64,run,0.51,3.53,-0.03,0.03,0.09,0.0,0.0,0.0,0.039,5.62,1.14,6.59,10.72,11.95,-13.54,10.72,-47.11,92.64,-0.79,11.69,-13.18,15.56,-55.2,94.66,15.82,2.9,5.71,5.76,0.57,6.63,10.78,11.59,-13.62,10.59,-47.17,92.28,-0.87,11.45,-13.26,15.54,-55.2,94.71,15.82,2.43,5.55,0.1644,0.4649,-0.6867,0.3081,0.6653,-0.925,0.3027,-0.4031,0.3209,-0.0248,0.6628,-0.9207,0.4441,-0.5491,0.3495,0.452,0.4988,-0.6994,0.0,0.013,0.0,0.0,0.006,0.0,0.0,0.0,0.006,0.0,0.006,0.0,0.0,0.0,0.0,0.0,0.006,0.006,0.0982,0.0123,0.1104,0.1841,0.1994,-0.2378,0.1841,-0.8253,1.6091,-0.0153,0.1963,-0.2316,0.2715,-0.9649,1.649,0.2746,0.0414,0.0951,-0.0,-0.0,-0.0,0.0,-0.0,0.0,-0.0,-0.0003,-0.0,-0.0,-0.0007,-0.0001,0.0,0.0,-0.0,-0.0,-0.0,0.0,-0.0125,0.0079,-0.0011,0.0011,0.0022,0.1644,0.4649,-0.6868,0.3081,0.6652,-0.9249,0.3028,-0.4031,0.3208,-0.0248,0.6628,-0.9207,0.4442,-0.5491,0.3495,0.452,0.4988,-0.6994,0.0,0.0,0.0,0.0,0.0,0.0,0.0,0.0,0.0,
4.68,run,0.52,3.53,-0.01,0.05,0.06,0.0,0.0,0.0,0.039,5.62,1.14,6.59,10.72,11.95,-13.54,10.72,-47.11,92.64,-0.79,11.69,-13.18,15.56,-55.2,94.66,15.82,2.9,5.71,5.76,0.57,6.63,10.78,11.59,-13.62,10.59,-47.18,92.28,-0.87,11.46,-13.26,15.54,-55.2,94.71,15.82,2.43,5.55,0.1645,0.4649,-0.6867,0.3081,0.6653,-0.925,0.3027,-0.4032,0.3209,-0.0248,0.6628,-0.9207,0.4441,-0.5492,0.3495,0.452,0.4988,-0.6994,0.0,0.013,0.0,0.0,0.006,0.0,0.0,0.0,0.006,0.0,0.006,0.0,0.0,0.0,0.0,0.0,0.006,0.006,0.0982,0.0123,0.1104,0.1841,0.1994,-0.2378,0.1841,-0.8253,1.6091,-0.0153,0.1963,-0.2316,0.2715,-0.9649,1.649,0.2746,0.0414,0.0951,-0.0,-0.0,-0.0,0.0,-0.0,0.0,-0.0,-0.0002,-0.0,-0.0,-0.0005,-0.0,0.0,0.0,-0.0,-0.0,-0.0,0.0,-0.0127,0.0079,-0.0005,0.0006,0.0015,0.1644,0.4649,-0.6867,0.3081,0.6653,-0.925,0.3027,-0.4031,0.3209,-0.0248,0.6628,-0.9207,0.4441,-0.5491,0.3495,0.452,0.4988,-0.6994,0.0,0.0,0.0,0.0,0.0,0.0,0.0,0.0,0.0,
4.72,run,0.52,3.53,-0.01,0.05,0.09,0.0,0.0,0.0,0.039,5.62,1.14,6.59,10.72,11.95,-13.54,10.72,-47.11,92.64,-0.79,11.69,-13.18,15.56,-55.2,94.66,15.82,2.9,5.71,5.76,0.57,6.63,10.78,11.59,-13.62,10.59,-47.18,92.28,-0.87,11.45,-13.26,15.54,-55.21,94.71,15.82,2.44,5.55,0.1645,0.4648,-0.6867,0.308,0.6653,-0.925,0.3027,-0.4033,0.3209,-0.0248,0.6628,-0.9207,0.4441,-0.5492,0.3495,0.452,0.4988,-0.6994,0.0,0.013,0.0,0.0,0.006,0.0,0.0,0.0,0.006,0.0,0.006,0.0,0.0,0.0,0.0,0.0,0.006,0.006,0.0982,0.0123,0.1104,0.1841,0.1994,-0.2378,0.1841,-0.8253,1.6091,-0.0153,0.1963,-0.2316,0.2715,-0.9649,1.649,0.2746,0.0414,0.0951,-0.0,-0.0,-0.0,0.0,-0.0,0.0,-0.0,-0.0002,-0.0,-0.0,-0.0003,-0.0,0.0,0.0,-0.0,-0.0,-0.0,0.0,-0.0125,0.008,-0.0001,0.0009,0.0011,0.1645,0.4649,-0.6867,0.3081,0.6653,-0.925,0.3027,-0.4032,0.3209,-0.0248,0.6628,-0.9207,0.4441,-0.5492,0.3495,0.452,0.4988,-0.6994,0.0,0.0,0.0,0.0,0.0,0.0,0.0,0.0,0.0,
4.76,run,0.52,3.53,0.03,0.07,0.16,0.0,0.0,0.0,0.039,5.62,1.14,6.59,10.72,11.95,-13.54,10.72,-47.11,92.64,-0.79,11.69,-13.18,15.56,-55.2,94.66,15.82,2.9,5.71,5.76,0.57,6.63,10.78,11.59,-13.62,10.59,-47.18,92.28,-0.87,11.45,-13.26,15.54,-55.2,94.71,15.82,2.44,5.55,0.1645,0.4648,-0.6867,0.308,0.6653,-0.925,0.3027,-0.4032,0.3209,-0.0248,0.6628,-0.9207,0.4441,-0.5492,0.3495,0.452,0.4988,-0.6994,0.0,0.013,0.0,0.0,0.006,0.0,0.0,0.0,0.006,0.0,0.006,0.0,0.0,0.0,0.0,0.0,0.006,0.006,0.0982,0.0123,0.1104,0.1841,0.1994,-0.2378,0.1841,-0.8253,1.6091,-0.0153,0.1963,-0.2316,0.2715,-0.9649,1.649,0.2746,0.0414,0.0951,-0.0,-0.0,-0.0,0.0,-0.0,0.0,-0.0,-0.0001,-0.0,-0.0,-0.0002,-0.0,0.0,0.0,-0.0,-0.0,-0.0,0.0,-0.0124,0.008,-0.0003,0.0009,0.0015,0.1645,0.4648,-0.6867,0.308,0.6653,-0.925,0.3027,-0.4033,0.3209,-0.0248,0.6628,-0.9207,0.4441,-0.5492,0.3495,0.452,0.4988,-0.6994,0.0,0.0,0.0,0.0,0.0,0.0,0.0,0.0,0.0,
4.8,run,0.52,3.53,-0.03,0.07,0.11,0.0,0.0,0.0,0.039,5.62,1.14,6.59,10.72,11.95,-13.54,10.72,-47.11,92.64,-0.79,11.69,-13.18,15.56,-55.2,94.66,15.82,2.9,5.71,5.76,0.56,6.62,10.78,11.59,-13.62,10.59,-47.17,92.27,-0.87,11.45,-13.26,15.54,-55.2,94.71,15.82,2.44,5.54,0.1645,0.4648,-0.6868,0.308,0.6653,-0.9249,0.3027,-0.4032,0.3208,-0.0248,0.6628,-0.9207,0.4441,-0.5491,0.3495,0.452,0.4988,-0.6995,0.0,0.013,0.0,0.0,0.006,0.0,0.006,0.0,0.006,0.0,0.006,0.0,0.0,0.0,0.0,0.0,0.006,0.0,0.0982,0.0123,0.1104,0.1841,0.1994,-0.2378,0.1841,-0.8253,1.6091,-0.0153,0.1963,-0.2316,0.2715,-0.9649,1.649,0.2746,0.0414,0.0951,-0.0,-0.0,-0.0,0.0,-0.0,0.0,-0.0,-0.0001,-0.0,-0.0,-0.0002,-0.0,0.0,0.0,-0.0,-0.0,-0.0,0.0,-0.0121,0.0081,0.0005,0.0013,0.0027,0.1645,0.4648,-0.6867,0.308,0.6653,-0.925,0.3027,-0.4032,0.3209,-0.0248,0.6628,-0.9207,0.4441,-0.5492,0.3495,0.452,0.4988,-0.6994,0.0,0.0,0.0,0.0,0.0,0.0,0.0,0.0,0.0,
4.84,run,0.52,3.53,-0.05,-0.01,0.09,0.0,0.0,0.0,0.039,5.62,1.14,6.59,10.72,11.95,-13.54,10.72,-47.11,92.64,-0.79,11.69,-13.18,15.56,-55.2,94.66,15.82,2.9,5.71,5.76,0.56,6.63,10.78,11.59,-13.62,10.59,-47.18,92.28,-0.87,11.45,-13.26,15.54,-55.2,94.71,15.82,2.44,5.55,0.1644,0.4648,-0.6867,0.308,0.6653,-0.925,0.3027,-0.4033,0.3209,-0.0248,0.6628,-0.9207,0.4441,-0.5491,0.3496,0.4521,0.4989,-0.6994,0.0,0.013,0.0,0.0,0.006,0.0,0.006,0.0,0.006,0.0,0.006,0.0,0.0,0.0,0.0,0.0,0.006,0.0,0.0982,0.0123,0.1104,0.1841,0.1994,-0.2378,0.1841,-0.8253,1.6091,-0.0153,0.1963,-0.2316,0.2715,-0.9649,1.649,0.2746,0.0414,0.0951,-0.0,-0.0,-0.0,0.0,-0.0,0.0,-0.0,-0.0001,-0.0,-0.0,-0.0001,-0.0,0.0,0.0,-0.0,-0.0,-0.0,0.0,-0.0121,0.0083,-0.0005,0.0013,0.0019,0.1645,0.4648,-0.6868,0.308,0.6653,-0.9249,0.3027,-0.4032,0.3208,-0.0248,0.6628,-0.9207,0.4441,-0.5491,0.3495,0.452,0.4988,-0.6995,0.0,0.0,0.0,0.0,0.0,0.0,0.0,0.0,0.0,
4.88,run,0.51,3.53,-0.09,0.0,0.09,0.0,0.0,0.0,0.039,5.62,1.14,6.59,10.72,11.95,-13.54,10.72,-47.11,92.64,-0.79,11.69,-13.18,15.56,-55.2,94.66,15.82,2.9,5.71,5.76,0.57,6.62,10.78,11.59,-13.62,10.6,-47.18,92.28,-0.87,11.46,-13.26,15.55,-55.2,94.72,15.82,2.44,5.56,0.1645,0.4649,-0.6868,0.3081,0.6653,-0.925,0.3027,-0.4033,0.321,-0.0249,0.6628,-0.9207,0.4441,-0.5492,0.3496,0.4521,0.4989,-0.6993,0.0,0.013,0.0,0.0,0.006,0.0,0.006,0.0,0.006,0.0,0.006,0.0,0.0,0.0,0.0,0.0,0.006,0.0,0.0982,0.0123,0.1104,0.1841,0.1994,-0.2378,0.1841,-0.8253,1.6091,-0.0153,0.1963,-0.2316,0.2715,-0.9649,1.649,0.2746,0.0414,0.0951,-0.0,-0.0,-0.0,0.0,-0.0,0.0,-0.0,-0.0,-0.0,-0.0,-0.0001,-0.0,0.0,0.0,-0.0,-0.0,-0.0,0.0,-0.0123,0.0081,-0.0009,-0.0002,0.0016,0.1644,0.4648,-0.6867,0.308,0.6653,-0.925,0.3027,-0.4033,0.3209,-0.0248,0.6628,-0.9207,0.4441,-0.5491,0.3496,0.4521,0.4989,-0.6994,0.0,0.0,0.0,0.0,0.0,0.0,0.0,0.0,0.0,
4.92,run,0.52,3.53,0.02,-0.02,0.14,0.0,0.0,0.0,0.039,5.62,1.14,6.59,10.72,11.95,-13.54,10.72,-47.11,92.64,-0.79,11.69,-13.18,15.56,-55.2,94.66,15.82,2.9,5.71,5.76,0.57,6.63,10.78,11.59,-13.63,10.6,-47.18,92.29,-0.87,11.46,-13.26,15.54,-55.2,94.72,15.82,2.44,5.56,0.1645,0.4649,-0.6867,0.3081,0.6653,-0.925,0.3027,-0.4032,0.3211,-0.0249,0.6629,-0.9207,0.4441,-0.5492,0.3496,0.452,0.4988,-0.6993,0.0,0.013,0.0,0.0,0.006,0.0,0.0,0.0,0.006,0.0,0.006,0.0,0.0,0.0,0.0,0.0,0.013,0.0,0.0982,0.0123,0.1104,0.1841,0.1994,-0.2378,0.1841,-0.8253,1.6091,-0.0153,0.1963,-0.2316,0.2715,-0.9649,1.649,0.2746,0.0414,0.0951,-0.0,-0.0,-0.0,0.0,-0.0,0.0,-0.0,-0.0,-0.0,-0.0,-0.0001,-0.0,0.0,0.0,-0.0,-0.0,-0.0,0.0,-0.0128,0.008,-0.0016,0.0001,0.0016,0.1645,0.4649,-0.6868,0.3081,0.6653,-0.925,0.3027,-0.4033,0.321,-0.0249,0.6628,-0.9207,0.4441,-0.5492,0.3496,0.4521,0.4989,-0.6993,0.0,0.0,0.0,0.0,0.0,0.0,0.0,0.0,0.0,
4.96,run,0.51,3.53,-0.04,0.08,0.07,0.0,0.0,0.0,0.039,5.62,1.14,6.59,10.72,11.95,-13.54,10.72,-47.11,92.64,-0.79,11.69,-13.18,15.56,-55.2,94.66,15.82,2.9,5.71,5.76,0.57,6.62,10.78,11.59,-13.62,10.59,-47.17,92.28,-0.87,11.46,-13.26,15.54,-55.2,94.72,15.82,2.43,5.56,0.1645,0.4648,-0.6869,0.3081,0.6653,-0.9249,0.3027,-0.4031,0.321,-0.0249,0.6629,-0.9207,0.4441,-0.5491,0.3496,0.452,0.4988,-0.6993,0.0,0.013,0.0,0.0,0.006,0.0,0.0,0.0,0.006,0.0,0.006,0.0,0.0,0.0,0.0,0.0,0.013,0.0,0.0982,0.0123,0.1104,0.1841,0.1994,-0.2378,0.1841,-0.8253,1.6091,-0.0153,0.1963,-0.2316,0.2715,-0.9649,1.649,0.2746,0.0414,0.0951,-0.0,-0.0,-0.0,0.0,-0.0,0.0,-0.0,-0.0,-0.0,-0.0,-0.0,-0.0,0.0,0.0,-0.0,-0.0,-0.0,0.0,-0.0125,0.0078,0.0003,-0.0003,0.0024,0.1645,0.4649,-0.6867,0.3081,0.6653,-0.925,0.3027,-0.4032,0.3211,-0.0249,0.6629,-0.9207,0.4441,-0.5492,0.3496,0.452,0.4988,-0.6993,0.0,0.0,0.0,0.0,0.0,0.0,0.0,0.0,0.0,
