t_s,phase,roll_deg,pitch_deg,gyro_x_dps,gyro_y_dps,gyro_z_dps,height_ref_mm,vx_ref_mps,vy_ref_mps,max_cur_a,q0_deg,q1_deg,q2_deg,q3_deg,q4_deg,q5_deg,q6_deg,q7_deg,q8_deg,q9_deg,q10_deg,q11_deg,q12_deg,q13_deg,q14_deg,q15_deg,q16_deg,q17_deg,cmd0_deg,cmd1_deg,cmd2_deg,cmd3_deg,cmd4_deg,cmd5_deg,cmd6_deg,cmd7_deg,cmd8_deg,cmd9_deg,cmd10_deg,cmd11_deg,cmd12_deg,cmd13_deg,cmd14_deg,cmd15_deg,cmd16_deg,cmd17_deg,act0,act1,act2,act3,act4,act5,act6,act7,act8,act9,act10,act11,act12,act13,act14,act15,act16,act17,cur0_a,cur1_a,cur2_a,cur3_a,cur4_a,cur5_a,cur6_a,cur7_a,cur8_a,cur9_a,cur10_a,cur11_a,cur12_a,cur13_a,cur14_a,cur15_a,cur16_a,cur17_a,obs0,obs1,obs2,obs3,obs4,obs5,obs6,obs7,obs8,obs9,obs10,obs11,obs12,obs13,obs14,obs15,obs16,obs17,obs18,obs19,obs20,obs21,obs22,obs23,obs24,obs25,obs26,obs27,obs28,obs29,obs30,obs31,obs32,obs33,obs34,obs35,obs36,obs37,obs38,obs39,obs40,obs41,obs42,obs43,obs44,obs45,obs46,obs47,obs48,obs49,obs50,obs51,obs52,obs53,obs54,obs55,obs56,obs57,obs58,obs59,obs60,obs61,obs62,obs63,obs64,obs65,obs66,obs67,rot60_k
0.0,run,0.42,3.56,-0.11,-0.04,0.05,0.0,0.0,0.0,0.019,0.0,0.44,0.18,0.09,0.0,0.09,-0.09,0.18,0.44,0.09,0.26,0.26,0.0,0.26,0.35,-0.09,0.18,0.26,-0.0,-1.15,1.68,1.59,-0.86,1.59,1.41,-1.32,1.94,-1.41,1.76,1.68,1.5,-1.32,1.76,1.41,-1.05,1.76,-0.0001,0.3348,-0.0853,0.1333,0.4388,-0.3166,0.1655,-0.0836,-0.2011,-0.2264,0.5733,-0.0839,0.0704,-0.0315,-0.2545,0.4156,0.4355,-0.178,0.0,0.006,0.006,0.006,0.013,0.013,0.006,0.019,0.006,0.013,0.006,0.006,0.013,0.013,0.006,0.006,0.006,0.006,0.0,0.0015,0.0,0.0,0.0,0.0,0.0,0.0015,0.0,0.0,0.0,0.0015,0.0,0.0015,0.0015,0.0,0.0,0.0,0.0,0.0027,0.0,0.0,0.0,0.0,0.0,0.0029,0.0,0.0,0.0,0.0027,0.0,0.0029,0.0029,0.0,0.0,0.0,0.0,0.0,-0.002,0.0005,0.0022,0.0,0.0,0.0,0.0,0.0,0.0,0.0,0.0,0.0,0.0,0.0,0.0,0.0,0.0,0.0,0.0,0.0,0.0,0.0,0.0,0.0,0.0,0.0,0.0,0.0,0.0,0.0,
0.04,run,0.43,3.56,-0.05,0.18,-0.05,0.0,0.0,0.0,0.019,0.0,0.44,0.18,0.09,0.0,0.35,-0.09,0.0,0.53,-0.09,0.35,0.35,0.09,0.0,0.35,0.0,0.18,0.35,-0.42,0.35,3.18,3.09,0.64,3.09,2.91,-2.82,3.44,-2.16,3.26,3.18,3.0,-2.82,3.26,2.91,0.45,3.26,-0.0121,0.547,-0.2878,0.1662,0.5617,-0.4436,0.1798,0.1619,-0.1663,-0.0618,0.6179,-0.4034,0.1384,0.1318,-0.0249,0.3345,0.5773,-0.5166,0.0,0.006,0.006,0.006,0.013,0.013,0.006,0.019,0.006,0.013,0.006,0.006,0.013,0.013,0.006,0.006,0.006,0.006,0.0,0.0015,0.0,0.0,0.0,0.0,0.0,0.0,0.0,0.0,0.0,0.0015,0.0,0.0015,0.0015,0.0,0.0,0.0,0.0,0.0019,0.0,0.0,0.0,0.0,0.0,-0.0003,0.0,0.0,0.0,0.0019,0.0,0.002,0.002,0.0,0.0,0.0,-0.0006,-0.0005,-0.002,-0.0007,0.0008,-0.0001,0.3348,-0.0853,0.1333,0.4388,-0.3166,0.1655,-0.0836,-0.2011,-0.2264,0.5733,-0.0839,0.0704,-0.0315,-0.2545,0.4156,0.4355,-0.178,0.0,0.0,0.0,0.0,0.0,0.0,0.0,0.0,0.0,
0.08,run,0.43,3.58,0.31,0.6,1.9,0.0,0.0,0.0,0.019,0.0,0.0,0.79,0.35,-0.18,0.88,0.18,-0.62,1.05,-0.97,0.97,1.05,0.88,-0.7,1.14,0.97,-0.26,0.97,-0.3,1.85,4.68,4.59,2.14,4.59,4.41,-4.32,4.94,-0.66,4.76,4.68,4.5,-4.32,4.76,4.41,1.95,4.76,-0.0085,0.6119,-0.3744,0.193,0.6352,-0.4841,0.2029,0.1745,-0.084,-0.0181,0.6339,-0.4588,0.1631,0.1723,-0.0709,0.2864,0.5578,-0.5091,0.0,0.006,0.006,0.006,0.013,0.013,0.006,0.019,0.006,0.013,0.006,0.006,0.013,0.013,0.006,0.006,0.006,0.006,0.0,0.0015,0.0,0.0,0.0,0.0046,0.0,-0.0031,0.0015,-0.0031,0.0015,0.0031,0.0015,-0.0031,0.0015,0.0015,0.0,0.0015,0.0,0.0013,0.0,0.0,0.0,0.017,0.0,-0.0115,0.0057,-0.0113,0.0057,0.007,0.0057,-0.0155,0.0014,0.0057,0.0,0.0057,-0.0004,-0.0008,-0.0009,0.0031,-0.0009,-0.0121,0.547,-0.2878,0.1662,0.5617,-0.4436,0.1798,0.1619,-0.1663,-0.0618,0.6179,-0.4034,0.1384,0.1318,-0.0249,0.3345,0.5773,-0.5166,0.0,0.0,0.0,0.0,0.0,0.0,0.0,0.0,0.0,
0.12,run,0.41,3.58,-0.2,-0.41,-0.68,0.0,0.0,0.0,0.039,-0.35,-0.35,1.58,1.41,-0.35,1.93,1.23,-1.49,1.32,-1.58,1.85,2.11,1.76,-1.58,2.29,1.76,-0.62,1.67,-0.46,3.35,6.18,6.09,3.64,6.09,5.91,-5.82,6.44,0.15,6.26,6.18,5.17,-5.82,6.26,5.91,3.45,6.26,-0.0131,0.588,-0.3793,0.1755,0.6299,-0.4918,0.195,0.1745,-0.1096,0.0041,0.6269,-0.4731,0.1477,0.1868,-0.1285,0.2734,0.5744,-0.5381,0.006,0.0,0.006,0.019,0.0,0.019,0.013,0.039,0.013,0.006,0.006,0.006,0.019,0.026,0.013,0.039,0.0,0.013,0.0,-0.0061,0.0107,0.0046,-0.0031,0.0138,0.0046,-0.0138,0.0107,-0.0184,0.0123,0.0153,0.0153,-0.0153,0.0153,0.0184,-0.0077,0.0123,0.0,-0.028,0.0405,0.0174,-0.0116,0.0466,0.0174,-0.0485,0.0387,-0.0658,0.0444,0.0512,0.056,-0.0571,0.053,0.0676,-0.0289,0.0444,0.0002,0.001,0.0055,0.0105,0.0331,-0.0085,0.6119,-0.3744,0.193,0.6352,-0.4841,0.2029,0.1745,-0.084,-0.0181,0.6339,-0.4588,0.1631,0.1723,-0.0709,0.2864,0.5578,-0.5091,0.0,0.0,0.0,0.0,0.0,0.0,0.0,0.0,0.0,
0.16,run,0.39,3.58,0.28,0.26,0.96,0.0,0.0,0.0,0.039,-0.62,-0.44,2.81,2.55,-0.26,3.25,2.37,-2.81,2.72,-2.02,2.99,3.34,2.99,-2.9,3.52,2.99,-0.53,2.9,-1.06,4.85,7.68,5.53,5.14,7.59,5.95,-7.32,7.94,0.31,7.51,7.68,3.91,-7.32,7.76,7.41,4.95,7.76,-0.0304,0.5555,-0.3928,0.1581,0.5886,-0.4998,0.1701,0.2029,-0.1917,0.0089,0.5911,-0.4888,0.1118,0.211,-0.2564,0.2638,0.5751,-0.5892,0.006,0.0,0.006,0.019,0.0,0.019,0.013,0.039,0.013,0.006,0.006,0.006,0.019,0.026,0.013,0.039,0.0,0.013,-0.0061,-0.0123,0.0245,0.023,-0.0061,0.0322,0.023,-0.0291,0.0153,-0.0291,0.0276,0.0337,0.0307,-0.0307,0.0353,0.0322,-0.0138,0.0245,-0.0222,-0.0418,0.0782,0.0786,-0.0192,0.0991,0.0786,-0.0894,0.0437,-0.0848,0.0865,0.1023,0.0946,-0.0954,0.1092,0.0972,-0.0424,0.0754,-0.0016,0.001,-0.0035,-0.0071,-0.0119,-0.0131,0.588,-0.3793,0.1755,0.6299,-0.4918,0.195,0.1745,-0.1096,0.0041,0.6269,-0.4731,0.1477,0.1868,-0.1285,0.2734,0.5744,-0.5381,0.0,0.0,0.0,0.0,0.0,0.0,0.0,0.0,0.0,
0.2,run,0.37,3.56,-0.27,-0.66,-2.94,0.0,0.0,0.0,0.039,-0.53,-0.18,3.96,3.69,0.44,4.48,3.52,-4.04,3.96,-1.93,4.22,4.57,3.96,-4.04,4.75,4.48,-0.18,4.04,-2.1,3.35,9.18,5.39,3.83,9.09,4.79,-8.82,9.44,0.15,6.01,9.18,2.41,-8.82,9.26,8.91,5.93,9.15,-0.0599,0.5145,-0.4208,0.1539,0.5241,-0.5044,0.137,0.255,-0.3222,0.0044,0.5299,-0.4968,0.0531,0.2583,-0.4385,0.2604,0.5624,-0.657,0.006,0.0,0.006,0.019,0.0,0.019,0.013,0.039,0.013,0.006,0.006,0.006,0.019,0.026,0.013,0.039,0.0,0.013,-0.0107,-0.0138,0.046,0.043,-0.0046,0.0552,0.043,-0.0522,0.0399,-0.0368,0.0476,0.0552,0.0522,-0.0537,0.0568,0.0537,-0.0123,0.046,-0.0319,-0.0347,0.1314,0.1262,-0.008,0.1514,0.1262,-0.1446,0.1181,-0.0867,0.1317,0.1482,0.1428,-0.1489,0.153,0.1446,-0.0242,0.1294,-0.004,0.0008,0.0048,0.0046,0.0168,-0.0304,0.5555,-0.3928,0.1581,0.5886,-0.4998,0.1701,0.2029,-0.1917,0.0089,0.5911,-0.4888,0.1118,0.211,-0.2564,0.2638,0.5751,-0.5892,0.0,0.0,0.0,0.0,0.0,0.0,0.0,0.0,0.0,
0.24,run,0.38,3.57,-0.21,0.23,3.19,0.0,0.0,0.0,0.039,-0.97,0.79,5.45,4.75,1.49,5.98,4.57,-5.45,5.45,-1.67,5.45,6.06,4.66,-5.45,6.15,5.62,0.44,5.45,-2.78,2.16,10.68,5.75,2.33,10.59,3.98,-8.32,10.94,-0.48,4.51,10.68,0.91,-9.03,10.76,9.41,4.47,7.65,-0.0794,0.4938,-0.4569,0.1643,0.4534,-0.5165,0.1137,0.3032,-0.4331,-0.0136,0.4662,-0.5181,0.0115,0.2903,-0.5764,0.2689,0.5359,-0.7184,0.006,0.0,0.006,0.006,0.006,0.013,0.006,0.019,0.019,0.006,0.0,0.013,0.006,0.019,0.013,0.006,0.019,0.006,-0.0092,-0.0092,0.066,0.0629,0.0077,0.0767,0.0629,-0.0736,0.0614,-0.0353,0.069,0.0767,0.069,-0.0736,0.0782,0.0798,-0.0061,0.066,-0.0166,-0.007,0.1671,0.1634,0.0407,0.1869,0.1634,-0.1821,0.1636,-0.0549,0.1731,0.1846,0.1635,-0.1793,0.188,0.1995,0.0062,0.1657,-0.0049,-0.0007,-0.0047,-0.0115,-0.0512,-0.0599,0.5145,-0.4208,0.1539,0.5241,-0.5044,0.137,0.255,-0.3222,0.0044,0.5299,-0.4968,0.0531,0.2583,-0.4385,0.2604,0.5624,-0.657,0.0,0.0,0.0,0.0,0.0,0.0,0.0,0.0,0.0,
0.28,run,0.41,3.57,0.35,0.04,-1.84,0.0,0.0,0.0,0.039,-2.11,1.85,6.94,5.36,2.46,7.38,5.27,-6.77,6.94,-0.53,6.42,7.47,5.01,-6.86,7.65,7.38,1.85,6.86,-3.1,0.66,12.18,5.86,0.83,12.09,3.74,-7.12,12.44,-0.38,3.01,12.18,-0.34,-8.5,10.55,9.81,2.97,6.15,-0.0887,0.4458,-0.4953,0.1673,0.3957,-0.5231,0.1069,0.3252,-0.5005,-0.0107,0.3999,-0.527,-0.0098,0.3,-0.6406,0.2803,0.4913,-0.7618,0.006,0.0,0.006,0.006,0.006,0.013,0.006,0.019,0.019,0.006,0.0,0.013,0.006,0.019,0.013,0.006,0.019,0.006,-0.0169,0.0077,0.092,0.0813,0.0261,0.1028,0.0813,-0.0982,0.0874,-0.0307,0.0905,0.1028,0.0813,-0.0982,0.1028,0.0997,0.0046,0.0905,-0.0382,0.0536,0.2073,0.1782,0.0922,0.2212,0.1782,-0.2125,0.2049,-0.0225,0.1956,0.2196,0.157,-0.2106,0.2166,0.2087,0.0415,0.201,-0.0044,0.0005,-0.0036,0.0039,0.0557,-0.0794,0.4938,-0.4569,0.1643,0.4534,-0.5165,0.1137,0.3032,-0.4331,-0.0136,0.4662,-0.5181,0.0115,0.2903,-0.5764,0.2689,0.5359,-0.7184,0.0,0.0,0.0,0.0,0.0,0.0,0.0,0.0,0.0,
0.32,run,0.34,3.57,-0.45,0.21,1.09,0.0,0.0,0.0,0.039,-2.37,2.55,8.09,5.62,3.16,8.7,5.62,-7.65,8.17,-0.35,7.03,8.79,4.92,-7.82,8.88,8.17,2.9,7.73,-3.19,-0.84,13.68,5.36,-0.67,13.59,4.19,-8.27,13.94,-0.17,1.51,13.68,-0.27,-10.0,10.29,10.85,1.47,4.65,-0.0912,0.3796,-0.5348,0.1531,0.3165,-0.529,0.1196,0.3043,-0.5297,-0.0048,0.3288,-0.5464,-0.0077,0.2665,-0.6436,0.31,0.4402,-0.8023,0.006,0.0,0.006,0.006,0.006,0.013,0.006,0.019,0.019,0.006,0.0,0.013,0.006,0.019,0.013,0.006,0.019,0.006,-0.0368,0.0261,0.1181,0.092,0.043,0.1273,0.0936,-0.1212,0.1135,-0.0107,0.1074,0.1273,0.0874,-0.1227,0.1289,0.1304,0.0291,0.115,-0.0937,0.0993,0.2327,0.1608,0.1212,0.2372,0.1659,-0.226,0.2309,0.0512,0.1935,0.2361,0.1305,-0.2298,0.2392,0.2491,0.1115,0.2231,-0.0019,0.0005,0.0061,0.0007,-0.0321,-0.0887,0.4458,-0.4953,0.1673,0.3957,-0.5231,0.1069,0.3252,-0.5005,-0.0107,0.3999,-0.527,-0.0098,0.3,-0.6406,0.2803,0.4913,-0.7618,0.0,0.0,0.0,0.0,0.0,0.0,0.0,0.0,0.0,
0.36,run,0.35,3.55,-0.08,-0.35,-0.2,0.0,0.0,0.0,0.039,-2.81,3.08,9.58,5.71,3.6,10.11,5.62,-8.26,9.67,-0.44,7.21,10.2,4.31,-8.7,9.76,9.14,3.52,8.44,-3.44,-2.34,15.18,4.71,-2.17,15.09,4.59,-9.59,15.44,0.2,0.01,15.18,-0.06,-11.5,11.61,11.88,-0.03,3.15,-0.0982,0.3001,-0.5556,0.1345,0.241,-0.5248,0.1312,0.2802,-0.5455,0.0058,0.2581,-0.5382,-0.0017,0.2304,-0.6281,0.3396,0.3805,-0.8165,0.0,0.006,0.006,0.013,0.0,0.006,0.013,0.013,0.019,0.013,0.0,0.006,0.013,0.019,0.013,0.006,0.0,0.006,-0.0414,0.0383,0.1381,0.0966,0.0552,0.1503,0.0997,-0.1365,0.135,-0.0077,0.1181,0.1503,0.0859,-0.1396,0.1503,0.1442,0.0476,0.1304,-0.0838,0.1182,0.2419,0.1308,0.1335,0.2573,0.1405,-0.2191,0.2468,0.048,0.1781,0.2565,0.0853,-0.2278,0.2526,0.2291,0.151,0.217,-0.0076,0.0003,-0.0078,0.0037,0.0191,-0.0912,0.3796,-0.5348,0.1531,0.3165,-0.529,0.1196,0.3043,-0.5297,-0.0048,0.3288,-0.5464,-0.0077,0.2665,-0.6436,0.31,0.4402,-0.8023,0.0,0.0,0.0,0.0,0.0,0.0,0.0,0.0,0.0,
0.4,run,0.34,3.52,-0.77,-0.3,1.32,0.0,0.0,0.0,0.039,-3.6,3.16,11.16,5.62,3.6,11.87,5.36,-8.88,11.25,0.0,7.21,11.87,3.25,-9.84,10.81,10.37,4.22,8.79,-3.49,-3.84,16.68,4.07,-3.67,16.59,5.06,-11.09,16.94,0.42,-1.49,16.68,0.32,-13.0,13.11,12.91,-1.53,1.65,-0.0997,0.2275,-0.5602,0.1162,0.1716,-0.5212,0.1445,0.2432,-0.5525,0.0121,0.2097,-0.5344,0.0091,0.1821,-0.6092,0.3687,0.3425,-0.8286,0.0,0.006,0.006,0.013,0.0,0.006,0.013,0.013,0.019,0.013,0.0,0.006,0.013,0.019,0.013,0.006,0.0,0.006,-0.0491,0.0476,0.1641,0.0982,0.0629,0.1749,0.0997,-0.1473,0.1611,-0.0092,0.1212,0.1749,0.0752,-0.1549,0.1657,0.1611,0.0583,0.1427,-0.0873,0.1171,0.2667,0.0973,0.1221,0.2718,0.0983,-0.1934,0.2702,0.0279,0.1361,0.2712,0.0196,-0.2167,0.2341,0.2234,0.1458,0.1977,-0.0071,-0.0017,-0.0013,-0.0061,-0.0036,-0.0982,0.3001,-0.5556,0.1345,0.241,-0.5248,0.1312,0.2802,-0.5455,0.0058,0.2581,-0.5382,-0.0017,0.2304,-0.6281,0.3396,0.3805,-0.8165,0.0,0.0,0.0,0.0,0.0,0.0,0.0,0.0,0.0,
0.44,run,0.35,3.53,0.85,0.49,-0.62,0.0,0.0,0.0,0.039,-3.52,2.99,12.57,5.27,3.43,13.1,4.92,-9.32,12.66,0.35,6.59,13.18,2.02,-10.63,11.43,11.16,4.22,8.79,-3.62,-5.34,17.63,3.61,-5.17,18.09,5.6,-12.59,17.97,0.68,-2.99,18.18,0.7,-14.5,14.61,13.62,-3.03,0.15,-0.1035,0.1589,-0.5573,0.1031,0.1172,-0.5194,0.1599,0.2027,-0.5533,0.0193,0.1733,-0.5255,0.0199,0.1378,-0.5918,0.3891,0.3156,-0.8386,0.0,0.006,0.006,0.013,0.0,0.006,0.013,0.013,0.019,0.013,0.0,0.006,0.013,0.019,0.013,0.006,0.0,0.006,-0.0629,0.0491,0.1917,0.0966,0.0629,0.2056,0.0951,-0.158,0.1887,-0.0015,0.1212,0.204,0.0568,-0.1749,0.1841,0.1825,0.0706,0.1488,-0.1042,0.0868,0.2729,0.0633,0.0855,0.286,0.0545,-0.1689,0.2753,0.0435,0.0953,0.2809,-0.0438,-0.214,0.2214,0.2234,0.1404,0.1576,-0.0077,-0.004,-0.0134,-0.0053,0.0231,-0.0997,0.2275,-0.5602,0.1162,0.1716,-0.5212,0.1445,0.2432,-0.5525,0.0121,0.2097,-0.5344,0.0091,0.1821,-0.6092,0.3687,0.3425,-0.8286,0.0,0.0,0.0,0.0,0.0,0.0,0.0,0.0,0.0,
0.48,run,0.33,3.53,-0.04,0.13,0.2,0.0,0.0,0.0,0.039,-3.34,2.29,14.06,4.57,2.55,14.59,4.83,-10.02,14.06,0.44,5.71,14.68,1.05,-11.78,12.22,12.22,4.04,8.35,-3.73,-6.84,19.13,3.14,-6.67,19.59,6.03,-14.09,18.23,0.95,-4.49,19.68,1.23,-16.0,15.53,14.15,-4.53,-1.35,-0.1066,0.1125,-0.5395,0.0896,0.083,-0.5198,0.1722,0.1696,-0.5502,0.0272,0.1583,-0.5218,0.035,0.1009,-0.582,0.4042,0.3057,-0.8431,0.006,0.026,0.006,0.006,0.026,0.006,0.006,0.026,0.019,0.0,0.026,0.006,0.006,0.019,0.013,0.013,0.013,0.006,-0.0614,0.046,0.2163,0.0905,0.0598,0.227,0.0874,-0.1657,0.2132,0.0046,0.1104,0.227,0.0353,-0.1887,0.1948,0.1963,0.0706,0.1488,-0.0673,0.0493,0.2823,0.0215,0.0484,0.2801,0.0096,-0.1468,0.284,0.0532,0.0268,0.2821,-0.1105,-0.2011,0.1949,0.2077,0.0983,0.1103,-0.0073,-0.0034,0.0148,0.0085,-0.0109,-0.1035,0.1589,-0.5573,0.1031,0.1172,-0.5194,0.1599,0.2027,-0.5533,0.0193,0.1733,-0.5255,0.0199,0.1378,-0.5918,0.3891,0.3156,-0.8386,0.0,0.0,0.0,0.0,0.0,0.0,0.0,0.0,0.0,
0.52,run,0.31,3.52,0.09,0.01,-0.87,0.0,0.0,0.0,0.039,-3.87,0.97,15.56,3.87,1.23,16.26,5.1,-11.16,15.56,0.88,4.22,16.26,0.44,-13.27,13.62,13.27,3.16,7.29,-3.86,-8.34,20.63,2.7,-8.17,20.63,6.47,-15.59,19.04,1.3,-5.99,21.0,1.69,-17.5,16.2,14.59,-6.03,-2.85,-0.1104,0.0782,-0.5184,0.0771,0.0614,-0.5221,0.1849,0.1455,-0.5408,0.0372,0.154,-0.5176,0.0484,0.0766,-0.5741,0.4169,0.3136,-0.8435,0.006,0.026,0.006,0.006,0.026,0.006,0.006,0.026,0.019,0.0,0.026,0.006,0.006,0.019,0.013,0.013,0.013,0.006,-0.0583,0.0337,0.2424,0.0782,0.0445,0.2531,0.0859,-0.1779,0.2378,0.0061,0.0951,0.2531,0.0184,-0.2086,0.2086,0.2148,0.0675,0.1411,-0.0356,-0.0115,0.2953,-0.0309,-0.0236,0.2938,0.001,-0.1487,0.2908,0.043,-0.0388,0.2952,-0.1406,-0.2155,0.1881,0.2144,0.0573,0.0485,-0.0091,-0.0036,-0.0007,0.0023,0.0035,-0.1066,0.1125,-0.5395,0.0896,0.083,-0.5198,0.1722,0.1696,-0.5502,0.0272,0.1583,-0.5218,0.035,0.1009,-0.582,0.4042,0.3057,-0.8431,0.0,0.0,0.0,0.0,0.0,0.0,0.0,0.0,0.0,
0.56,run,0.27,3.47,-0.03,-0.03,0.11,0.0,0.0,0.0,0.039,-3.87,-9.4,22.06,2.37,-9.14,19.78,7.03,-16.88,20.13,1.67,-7.12,20.3,2.29,-18.81,17.23,15.03,-6.24,-4.13,-3.85,-9.84,22.13,2.18,-9.67,19.72,7.15,-17.09,20.35,1.74,-7.49,20.31,2.39,-19.0,17.25,15.12,-6.74,-4.35,-0.1099,0.05,-0.4932,0.0622,0.0452,-0.5327,0.2043,0.122,-0.5253,0.0496,0.1585,-0.5258,0.0682,0.0501,-0.5618,0.432,0.332,-0.8492,0.0,0.006,0.0,0.0,0.013,0.0,0.0,0.006,0.006,0.0,0.006,0.0,0.0,0.006,0.0,0.0,0.006,0.006,-0.0675,0.0107,0.2684,0.066,0.0215,0.2823,0.0905,-0.1979,0.2638,0.0138,0.069,0.2807,0.0077,-0.2347,0.2332,0.2332,0.0522,0.1227,-0.0538,-0.0804,0.2887,-0.0602,-0.0888,0.2973,0.0152,-0.1668,0.2855,0.0542,-0.1091,0.2935,-0.1322,-0.2328,0.2089,0.2079,-0.0081,-0.0239,-0.0109,-0.0044,0.0016,0.0002,-0.0151,-0.1104,0.0782,-0.5184,0.0771,0.0614,-0.5221,0.1849,0.1455,-0.5408,0.0372,0.154,-0.5176,0.0484,0.0766,-0.5741,0.4169,0.3136,-0.8435,0.0,0.0,0.0,0.0,0.0,0.0,0.0,0.0,0.0,
0.6,run,0.27,3.47,-0.05,0.05,0.06,0.0,0.0,0.0,0.039,-3.87,-9.4,22.06,2.37,-9.14,19.78,7.03,-16.88,20.13,1.67,-7.12,20.3,2.29,-18.81,17.23,15.03,-6.24,-4.13,-2.35,-11.34,23.63,0.68,-11.17,18.22,8.65,-18.59,21.85,3.24,-8.99,18.81,3.89,-20.5,18.75,16.62,-5.24,-5.85,-0.0658,-0.0031,-0.3951,-0.0084,0.0617,-0.5886,0.2495,0.0293,-0.4372,0.1202,0.2472,-0.5881,0.1599,-0.073,-0.5012,0.4921,0.4506,-0.8403,0.0,0.006,0.0,0.0,0.013,0.0,0.0,0.006,0.006,0.0,0.006,0.0,0.0,0.006,0.0,0.0,0.006,0.006,-0.0675,-0.1703,0.382,0.0399,-0.1595,0.3436,0.1243,-0.2976,0.3436,0.0276,-0.1289,0.3513,0.0399,-0.3313,0.2961,0.2638,-0.112,-0.0767,-0.0538,-0.0804,0.2887,-0.0602,-0.0888,0.2973,0.0152,-0.1668,0.2855,0.0542,-0.1091,0.2935,-0.1322,-0.2328,0.2089,0.2079,-0.0081,-0.0239,-0.0143,-0.0088,-0.0005,-0.0006,0.0019,-0.1099,0.05,-0.4932,0.0622,0.0452,-0.5327,0.2043,0.122,-0.5253,0.0496,0.1585,-0.5258,0.0682,0.0501,-0.5618,0.432,0.332,-0.8492,0.0,0.0,0.0,0.0,0.0,0.0,0.0,0.0,0.0,
0.64,run,0.27,3.48,-0.03,0.01,0.35,0.0,0.0,0.0,0.039,-3.87,-9.4,22.06,2.37,-9.14,19.69,7.03,-16.88,20.13,1.67,-7.12,20.3,2.29,-18.9,17.23,15.03,-6.24,-4.22,-2.73,-12.84,25.13,-0.82,-12.67,16.72,8.76,-20.09,23.35,4.74,-10.49,17.31,5.39,-22.0,20.25,16.86,-3.74,-7.05,-0.078,-0.0355,-0.3446,-0.0597,0.0673,-0.579,0.2504,0.0126,-0.4236,0.1529,0.2445,-0.5689,0.1654,-0.0878,-0.4818,0.4817,0.454,-0.8477,0.0,0.006,0.0,0.0,0.013,0.0,0.0,0.006,0.006,0.0,0.006,0.0,0.0,0.006,0.0,0.0,0.006,0.006,-0.0675,-0.1703,0.382,0.0399,-0.1595,0.3436,0.1243,-0.2976,0.3436,0.0276,-0.1289,0.3513,0.0399,-0.3313,0.2961,0.2638,-0.112,-0.0767,-0.0377,-0.0562,0.2021,-0.0422,-0.0622,0.2081,0.0106,-0.1168,0.1999,0.038,-0.0764,0.2054,-0.0925,-0.163,0.1462,0.1456,-0.0057,-0.0168,-0.0138,-0.0085,-0.0008,0.0009,0.0011,-0.0658,-0.0031,-0.3951,-0.0084,0.0617,-0.5886,0.2495,0.0293,-0.4372,0.1202,0.2472,-0.5881,0.1599,-0.073,-0.5012,0.4921,0.4506,-0.8403,0.0,0.0,0.0,0.0,0.0,0.0,0.0,0.0,0.0,
0.68,run,0.26,3.5,-0.43,0.03,1.38,0.0,0.0,0.0,0.039,-3.6,-9.84,22.41,2.02,-9.67,19.16,7.29,-17.31,20.39,2.2,-7.56,19.69,2.81,-19.16,17.75,15.56,-6.15,-4.66,-2.8,-14.34,26.63,-2.32,-14.17,15.64,8.87,-21.59,24.85,5.67,-11.4,16.55,5.93,-23.5,21.75,16.96,-2.24,-7.26,-0.0801,-0.0571,-0.3243,-0.0741,0.0663,-0.5807,0.2535,-0.0119,-0.4187,0.1621,0.2474,-0.57,0.1693,-0.1069,-0.4727,0.4847,0.4577,-0.8502,0.0,0.019,0.006,0.013,0.019,0.013,0.013,0.026,0.013,0.013,0.013,0.0,0.013,0.019,0.0,0.006,0.006,0.013,-0.0675,-0.1703,0.382,0.0399,-0.1595,0.3421,0.1243,-0.2976,0.3436,0.0276,-0.1289,0.3513,0.0399,-0.3329,0.2961,0.2638,-0.112,-0.0782,-0.0264,-0.0394,0.1415,-0.0295,-0.0435,0.1399,0.0074,-0.0817,0.1399,0.0266,-0.0535,0.1438,-0.0648,-0.1198,0.1023,0.1019,-0.004,-0.0175,-0.0137,-0.0078,-0.0005,0.0002,0.006,-0.078,-0.0355,-0.3446,-0.0597,0.0673,-0.579,0.2504,0.0126,-0.4236,0.1529,0.2445,-0.5689,0.1654,-0.0878,-0.4818,0.4817,0.454,-0.8477,0.0,0.0,0.0,0.0,0.0,0.0,0.0,0.0,0.0,
0.72,run,0.28,3.53,0.23,0.06,-0.59,0.0,0.0,0.0,0.039,-2.55,-10.72,23.2,1.05,-10.46,18.19,8.0,-18.28,21.27,3.16,-8.35,18.81,3.78,-20.3,18.72,16.44,-5.54,-5.45,-2.79,-15.84,28.13,-3.1,-15.67,15.32,9.14,-23.09,26.35,6.08,-11.51,16.82,6.13,-25.0,23.25,17.05,-0.74,-7.82,-0.0796,-0.0667,-0.3107,-0.0887,0.0624,-0.5845,0.2611,-0.0301,-0.4103,0.1737,0.2452,-0.5668,0.1753,-0.1198,-0.4618,0.4872,0.4622,-0.8567,0.0,0.019,0.006,0.013,0.019,0.013,0.013,0.026,0.013,0.013,0.013,0.0,0.013,0.019,0.0,0.006,0.006,0.013,-0.0629,-0.1779,0.3881,0.0337,-0.1687,0.3329,0.1289,-0.3053,0.3482,0.0368,-0.1365,0.3405,0.0491,-0.3375,0.3053,0.273,-0.1104,-0.0859,-0.0012,-0.0564,0.1221,-0.0437,-0.065,0.0634,0.0225,-0.086,0.1152,0.0532,-0.0662,0.0603,-0.0108,-0.1012,0.1062,0.1059,0.003,-0.041,-0.0147,-0.0055,-0.0076,0.0006,0.0242,-0.0801,-0.0571,-0.3243,-0.0741,0.0663,-0.5807,0.2535,-0.0119,-0.4187,0.1621,0.2474,-0.57,0.1693,-0.1069,-0.4727,0.4847,0.4577,-0.8502,0.0,0.0,0.0,0.0,0.0,0.0,0.0,0.0,0.0,
0.76,run,0.25,3.53,-0.37,0.03,-0.34,0.0,0.0,0.0,0.039,-2.64,-11.69,24.26,0.09,-11.51,17.14,8.53,-19.42,22.24,4.22,-9.32,17.84,4.75,-21.36,19.86,16.88,-4.66,-6.33,-2.83,-17.34,29.63,-3.77,-17.17,15.08,9.55,-24.59,27.85,6.83,-11.92,16.88,6.41,-26.5,24.75,17.24,0.76,-9.23,-0.0808,-0.0753,-0.2964,-0.1077,0.0529,-0.5873,0.2729,-0.0541,-0.3943,0.1952,0.2377,-0.5661,0.1832,-0.1356,-0.4425,0.4927,0.4724,-0.8733,0.0,0.019,0.006,0.013,0.019,0.013,0.013,0.026,0.013,0.013,0.013,0.0,0.013,0.019,0.0,0.006,0.006,0.013,-0.0445,-0.1933,0.4019,0.0169,-0.1825,0.316,0.1411,-0.3221,0.3636,0.0537,-0.1503,0.3252,0.066,-0.3574,0.3221,0.2884,-0.0997,-0.0997,0.0569,-0.0875,0.1287,-0.0835,-0.0888,-0.0085,0.0542,-0.1131,0.1287,0.0901,-0.0896,-0.0058,0.0453,-0.1333,0.1272,0.1222,0.0357,-0.072,-0.0135,-0.0035,0.004,0.001,-0.0102,-0.0796,-0.0667,-0.3107,-0.0887,0.0624,-0.5845,0.2611,-0.0301,-0.4103,0.1737,0.2452,-0.5668,0.1753,-0.1198,-0.4618,0.4872,0.4622,-0.8567,0.0,0.0,0.0,0.0,0.0,0.0,0.0,0.0,0.0,
0.8,run,0.24,3.52,-0.17,-0.28,0.25,0.0,0.0,0.0,0.039,-2.99,-13.01,25.49,-1.05,-12.74,16.17,8.96,-20.74,23.47,5.27,-10.28,17.05,5.54,-22.76,21.27,17.14,-3.34,-7.21,-2.71,-18.84,31.13,-4.27,-18.67,14.71,10.16,-26.09,29.35,7.36,-12.18,17.0,6.78,-28.0,26.25,17.46,1.67,-10.02,-0.0775,-0.0835,-0.2831,-0.122,0.0529,-0.5916,0.2904,-0.0812,-0.3709,0.2103,0.2331,-0.5647,0.1936,-0.1555,-0.4111,0.4988,0.4849,-0.8825,0.006,0.026,0.013,0.013,0.026,0.006,0.006,0.033,0.019,0.006,0.013,0.006,0.006,0.019,0.006,0.0,0.006,0.013,-0.046,-0.2102,0.4203,0.0,-0.201,0.2976,0.1503,-0.3421,0.3804,0.0721,-0.1672,0.3083,0.0828,-0.3758,0.3421,0.2961,-0.0844,-0.115,0.0341,-0.1238,0.1584,-0.121,-0.1304,-0.0742,0.0721,-0.1531,0.1527,0.1313,-0.1253,-0.0666,0.0943,-0.1616,0.163,0.114,0.0819,-0.1073,-0.0157,-0.003,-0.0065,0.0005,-0.006,-0.0808,-0.0753,-0.2964,-0.1077,0.0529,-0.5873,0.2729,-0.0541,-0.3943,0.1952,0.2377,-0.5661,0.1832,-0.1356,-0.4425,0.4927,0.4724,-0.8733,0.0,0.0,0.0,0.0,0.0,0.0,0.0,0.0,0.0,
0.84,run,0.25,3.5,-0.04,0.03,-0.25,0.0,0.0,0.0,0.039,-2.64,-14.33,26.89,-2.2,-14.15,15.47,9.4,-22.24,24.87,6.24,-11.07,16.7,6.15,-24.17,22.68,17.23,-2.02,-8.09,-2.59,-20.34,32.63,-4.75,-20.17,14.67,10.78,-27.59,30.85,7.84,-12.32,16.95,7.05,-29.5,27.75,17.7,2.53,-10.69,-0.074,-0.0937,-0.2702,-0.1358,0.058,-0.5921,0.3081,-0.1131,-0.3433,0.2239,0.2305,-0.5653,0.2014,-0.1758,-0.3772,0.5057,0.5005,-0.8904,0.006,0.026,0.013,0.013,0.026,0.006,0.006,0.033,0.019,0.006,0.013,0.006,0.006,0.019,0.006,0.0,0.006,0.013,-0.0522,-0.2332,0.4418,-0.0199,-0.2224,0.2807,0.158,-0.3651,0.4019,0.0905,-0.1841,0.2945,0.0966,-0.4004,0.3666,0.3007,-0.0614,-0.1304,0.0008,-0.1732,0.1916,-0.1596,-0.172,-0.1154,0.0793,-0.1937,0.1876,0.1611,-0.1511,-0.0985,0.1179,-0.2053,0.2063,0.0971,0.1438,-0.1327,-0.0165,-0.0042,-0.0031,-0.0049,0.0043,-0.0775,-0.0835,-0.2831,-0.122,0.0529,-0.5916,0.2904,-0.0812,-0.3709,0.2103,0.2331,-0.5647,0.1936,-0.1555,-0.4111,0.4988,0.4849,-0.8825,0.0,0.0,0.0,0.0,0.0,0.0,0.0,0.0,0.0,
0.88,run,0.29,3.5,0.75,0.31,-0.89,0.0,0.0,0.0,0.039,-2.37,-15.91,28.48,-3.25,-15.73,14.85,9.93,-23.82,26.46,7.12,-11.69,16.7,6.68,-25.75,24.26,17.58,-0.62,-9.14,-2.52,-21.84,34.13,-5.29,-21.36,14.75,11.21,-29.09,32.35,8.32,-12.37,16.78,7.28,-31.0,29.25,17.89,3.24,-11.24,-0.072,-0.1027,-0.2567,-0.1511,0.0663,-0.5912,0.3202,-0.1433,-0.3171,0.2376,0.2297,-0.5673,0.208,-0.1926,-0.3489,0.511,0.5134,-0.897,0.006,0.026,0.013,0.013,0.026,0.006,0.006,0.033,0.019,0.006,0.013,0.006,0.006,0.019,0.006,0.0,0.006,0.013,-0.046,-0.2562,0.4663,-0.0399,-0.247,0.2684,0.1657,-0.3912,0.4264,0.1074,-0.1979,0.2884,0.1074,-0.4249,0.3912,0.3022,-0.0383,-0.1457,0.0236,-0.2075,0.2261,-0.1865,-0.2124,-0.1268,0.0842,-0.2333,0.2233,0.176,-0.1575,-0.092,0.1228,-0.2357,0.2364,0.0737,0.1869,-0.1504,-0.0158,-0.0056,-0.0007,0.0005,-0.0044,-0.074,-0.0937,-0.2702,-0.1358,0.058,-0.5921,0.3081,-0.1131,-0.3433,0.2239,0.2305,-0.5653,0.2014,-0.1758,-0.3772,0.5057,0.5005,-0.8904,0.0,0.0,0.0,0.0,0.0,0.0,0.0,0.0,0.0,
0.92,run,0.24,3.49,-0.95,-0.17,1.12,0.0,0.0,0.0,0.039,-2.46,-17.14,29.62,-4.04,-16.96,14.85,10.46,-25.05,27.69,7.73,-11.95,16.7,7.03,-26.98,25.49,17.67,0.53,-9.93,-2.4,-23.34,35.63,-5.79,-20.75,14.58,11.58,-30.59,33.85,8.73,-12.13,16.22,7.44,-32.5,30.75,18.07,4.03,-11.92,-0.0685,-0.1109,-0.2445,-0.1655,0.0773,-0.5931,0.3308,-0.1757,-0.291,0.2494,0.234,-0.5739,0.2125,-0.2099,-0.325,0.5163,0.5279,-0.905,0.0,0.026,0.013,0.006,0.026,0.006,0.006,0.026,0.026,0.006,0.006,0.0,0.0,0.026,0.013,0.006,0.006,0.013,-0.0414,-0.2838,0.4939,-0.0583,-0.2746,0.2577,0.1749,-0.4188,0.4541,0.1227,-0.2086,0.2884,0.1166,-0.4525,0.4188,0.3083,-0.0138,-0.1641,0.0319,-0.2375,0.2505,-0.192,-0.2409,-0.1246,0.0897,-0.2556,0.2486,0.1745,-0.1462,-0.0644,0.1167,-0.2573,0.2577,0.0721,0.2128,-0.1668,-0.012,-0.0058,0.0131,0.0054,-0.0155,-0.072,-0.1027,-0.2567,-0.1511,0.0663,-0.5912,0.3202,-0.1433,-0.3171,0.2376,0.2297,-0.5673,0.208,-0.1926,-0.3489,0.511,0.5134,-0.897,0.0,0.0,0.0,0.0,0.0,0.0,0.0,0.0,0.0,
0.96,run,0.23,3.48,-0.49,-0.22,-0.09,0.0,0.0,0.0,0.039,-2.55,-18.54,31.11,-4.75,-18.28,14.77,10.9,-26.46,29.09,8.26,-12.04,16.7,7.29,-28.48,26.89,18.02,1.67,-10.63,-2.31,-24.84,37.13,-6.15,-20.01,14.49,11.86,-32.09,35.35,8.96,-11.89,16.1,7.45,-34.0,32.25,18.14,4.54,-12.05,-0.0659,-0.1185,-0.2334,-0.1758,0.0907,-0.5942,0.3387,-0.1983,-0.2712,0.2559,0.2384,-0.5753,0.2128,-0.2187,-0.3052,0.5182,0.5371,-0.9065,0.0,0.026,0.013,0.006,0.026,0.006,0.006,0.026,0.026,0.006,0.006,0.0,0.0,0.026,0.013,0.006,0.006,0.013,-0.043,-0.3053,0.5139,-0.0721,-0.2961,0.2577,0.1841,-0.4403,0.4755,0.1335,-0.2132,0.2884,0.1227,-0.474,0.4403,0.3099,0.0061,-0.1779,0.0158,-0.2581,0.2606,-0.1935,-0.2605,-0.0872,0.1022,-0.2707,0.2658,0.168,-0.122,-0.0451,0.1079,-0.2719,0.2723,0.057,0.2343,-0.1758,-0.0164,-0.0067,-0.0165,-0.003,0.0196,-0.0685,-0.1109,-0.2445,-0.1655,0.0773,-0.5931,0.3308,-0.1757,-0.291,0.2494,0.234,-0.5739,0.2125,-0.2099,-0.325,0.5163,0.5279,-0.905,0.0,0.0,0.0,0.0,0.0,0.0,0.0,0.0,0.0,
1.0,run,0.27,3.48,-0.03,0.08,-0.32,0.0,0.0,0.0,0.039,-2.2,-19.95,32.43,-5.36,-19.34,14.5,11.34,-27.86,30.5,8.7,-11.87,16.26,7.38,-29.79,28.39,18.02,2.72,-11.34,-2.17,-26.34,38.63,-6.54,-19.28,14.14,12.12,-33.59,36.85,9.25,-11.43,15.36,7.49,-35.5,33.75,18.26,5.26,-12.66,-0.062,-0.1249,-0.2243,-0.1869,0.1041,-0.5984,0.3462,-0.2267,-0.2483,0.2644,0.2467,-0.584,0.2139,-0.2324,-0.2899,0.5218,0.5502,-0.9136,0.0,0.026,0.013,0.006,0.026,0.006,0.006,0.026,0.026,0.006,0.006,0.0,0.0,0.026,0.013,0.006,0.006,0.013,-0.0445,-0.3298,0.54,-0.0844,-0.3191,0.2562,0.1917,-0.4648,0.5001,0.1427,-0.2148,0.2884,0.1273,-0.5001,0.4648,0.316,0.0261,-0.1902,0.0052,-0.2733,0.2809,-0.1818,-0.2692,-0.0668,0.1005,-0.2822,0.2788,0.1524,-0.0912,-0.0316,0.0929,-0.2888,0.2833,0.0631,0.2393,-0.1694,-0.0171,-0.0078,-0.0085,-0.0038,-0.0016,-0.0659,-0.1185,-0.2334,-0.1758,0.0907,-0.5942,0.3387,-0.1983,-0.2712,0.2559,0.2384,-0.5753,0.2128,-0.2187,-0.3052,0.5182,0.5371,-0.9065,0.0,0.0,0.0,0.0,0.0,0.0,0.0,0.0,0.0,
1.04,run,0.29,3.48,0.08,0.07,0.37,0.0,0.0,0.0,0.039,-2.02,-21.36,33.93,-5.98,-20.13,14.33,11.69,-29.36,31.9,9.05,-11.87,15.82,7.38,-31.2,29.79,18.02,3.69,-11.87,-2.07,-27.84,40.13,-6.93,-18.25,13.98,12.34,-35.09,38.35,9.52,-10.87,14.7,7.49,-37.0,35.25,18.29,5.79,-12.98,-0.059,-0.1303,-0.2132,-0.1981,0.1228,-0.6002,0.3524,-0.2542,-0.2262,0.272,0.2569,-0.5917,0.2141,-0.2444,-0.2754,0.5227,0.5598,-0.9174,0.0,0.026,0.006,0.006,0.013,0.006,0.006,0.026,0.019,0.006,0.0,0.013,0.0,0.019,0.006,0.0,0.006,0.006,-0.0383,-0.3543,0.563,-0.0951,-0.3375,0.2516,0.1994,-0.4893,0.5246,0.1503,-0.2117,0.2807,0.1289,-0.5231,0.4909,0.316,0.0445,-0.2025,0.0265,-0.2827,0.2823,-0.1672,-0.257,-0.0639,0.0989,-0.2889,0.2865,0.1352,-0.0524,-0.0506,0.0708,-0.2879,0.2954,0.0442,0.236,-0.1643,-0.0144,-0.0076,-0.0005,0.0014,-0.0056,-0.062,-0.1249,-0.2243,-0.1869,0.1041,-0.5984,0.3462,-0.2267,-0.2483,0.2644,0.2467,-0.584,0.2139,-0.2324,-0.2899,0.5218,0.5502,-0.9136,0.0,0.0,0.0,0.0,0.0,0.0,0.0,0.0,0.0,
1.08,run,0.29,3.46,-0.02,-0.07,-0.65,0.0,0.0,0.0,0.039,-2.02,-22.76,35.42,-6.42,-20.65,14.06,11.95,-30.76,33.31,9.4,-11.43,15.12,7.38,-32.61,31.2,18.19,4.48,-12.39,-1.93,-29.34,41.63,-7.3,-17.21,13.78,12.58,-36.59,39.85,9.78,-10.2,14.08,7.5,-38.5,36.75,18.31,6.41,-13.39,-0.0552,-0.1364,-0.2029,-0.2084,0.1416,-0.6026,0.3594,-0.2811,-0.2043,0.2795,0.269,-0.5991,0.2143,-0.2554,-0.2612,0.523,0.571,-0.9222,0.0,0.026,0.006,0.006,0.013,0.006,0.006,0.026,0.019,0.006,0.0,0.013,0.0,0.019,0.006,0.0,0.006,0.006,-0.0353,-0.3789,0.589,-0.1058,-0.3513,0.2485,0.2056,-0.5154,0.5492,0.1565,-0.2117,0.273,0.1289,-0.5476,0.5154,0.316,0.0614,-0.2117,0.0301,-0.29,0.2954,-0.1573,-0.2317,-0.0563,0.0922,-0.3001,0.2926,0.1177,-0.0367,-0.0642,0.0495,-0.2936,0.2988,0.0309,0.2285,-0.1495,-0.0127,-0.008,0.0015,0.0013,0.0064,-0.059,-0.1303,-0.2132,-0.1981,0.1228,-0.6002,0.3524,-0.2542,-0.2262,0.272,0.2569,-0.5917,0.2141,-0.2444,-0.2754,0.5227,0.5598,-0.9174,0.0,0.0,0.0,0.0,0.0,0.0,0.0,0.0,0.0,
1.12,run,0.28,3.47,-0.23,0.1,0.96,0.0,0.0,0.0,0.039,-2.02,-24.26,36.74,-6.77,-20.83,13.8,12.13,-32.17,34.72,9.4,-10.99,14.68,7.38,-34.1,32.7,18.19,5.27,-12.83,-1.76,-30.84,43.13,-7.62,-16.14,13.34,12.78,-38.09,41.35,10.04,-9.4,13.23,7.5,-39.78,38.25,18.26,6.94,-13.86,-0.0503,-0.1414,-0.1925,-0.2177,0.1611,-0.6077,0.3652,-0.3106,-0.1799,0.2869,0.2836,-0.6091,0.2143,-0.2688,-0.2469,0.5217,0.5808,-0.9278,0.0,0.026,0.006,0.006,0.013,0.006,0.006,0.026,0.019,0.006,0.0,0.013,0.0,0.019,0.006,0.0,0.006,0.006,-0.0353,-0.4034,0.6151,-0.1135,-0.3605,0.2439,0.2102,-0.54,0.5737,0.1626,-0.204,0.2608,0.1289,-0.5722,0.54,0.3191,0.0752,-0.2209,0.021,-0.2953,0.3049,-0.139,-0.1968,-0.0567,0.0819,-0.3024,0.2972,0.1055,0.0032,-0.0911,0.0347,-0.2978,0.3015,0.0332,0.2119,-0.1393,-0.0124,-0.0092,-0.0004,-0.0013,-0.0113,-0.0552,-0.1364,-0.2029,-0.2084,0.1416,-0.6026,0.3594,-0.2811,-0.2043,0.2795,0.269,-0.5991,0.2143,-0.2554,-0.2612,0.523,0.571,-0.9222,0.0,0.0,0.0,0.0,0.0,0.0,0.0,0.0,0.0,
1.16,run,0.29,3.48,0.11,0.03,-0.52,0.0,0.0,0.0,0.039,-2.02,-25.66,38.23,-7.21,-20.74,13.62,12.39,-33.57,36.21,9.84,-10.46,13.97,7.38,-35.51,34.1,18.19,5.98,-13.27,-1.6,-32.34,44.63,-7.9,-14.94,13.1,12.98,-39.59,42.85,10.2,-8.54,12.54,7.43,-40.33,39.75,18.18,7.48,-14.05,-0.0458,-0.1483,-0.1811,-0.2256,0.1829,-0.6106,0.3709,-0.3387,-0.157,0.2915,0.2993,-0.6172,0.2124,-0.2787,-0.2316,0.5193,0.5905,-0.93,0.006,0.019,0.006,0.006,0.006,0.006,0.006,0.019,0.019,0.006,0.006,0.006,0.0,0.019,0.006,0.0,0.0,0.006,-0.0353,-0.4295,0.6381,-0.1197,-0.3636,0.2393,0.2132,-0.5645,0.5983,0.1626,-0.1963,0.2531,0.1289,-0.5983,0.566,0.3191,0.089,-0.2286,0.0147,-0.3038,0.2991,-0.1201,-0.1492,-0.0568,0.0687,-0.303,0.2994,0.0738,0.0308,-0.0923,0.0243,-0.3056,0.3082,0.0232,0.1997,-0.1261,-0.0135,-0.0081,-0.004,0.0018,0.0168,-0.0503,-0.1414,-0.1925,-0.2177,0.1611,-0.6077,0.3652,-0.3106,-0.1799,0.2869,0.2836,-0.6091,0.2143,-0.2688,-0.2469,0.5217,0.5808,-0.9278,0.0,0.0,0.0,0.0,0.0,0.0,0.0,0.0,0.0,
1.2,run,0.27,3.48,-0.24,-0.03,0.05,0.0,0.0,0.0,0.039,-1.58,-27.07,39.64,-7.56,-20.21,13.18,12.66,-34.98,37.62,10.11,-9.67,13.27,7.38,-36.91,35.51,18.19,6.59,-13.71,-1.43,-33.36,46.13,-8.15,-13.76,12.69,13.14,-41.09,44.35,10.47,-7.64,11.71,7.42,-41.13,41.25,18.02,7.89,-14.53,-0.041,-0.152,-0.1715,-0.233,0.2044,-0.6155,0.3755,-0.3687,-0.1323,0.2993,0.3157,-0.627,0.2119,-0.2932,-0.2167,0.5149,0.598,-0.9356,0.006,0.019,0.006,0.006,0.006,0.006,0.006,0.019,0.019,0.006,0.006,0.006,0.0,0.019,0.006,0.0,0.0,0.006,-0.0353,-0.4541,0.6642,-0.1273,-0.362,0.2362,0.2178,-0.589,0.6243,0.1703,-0.1871,0.2408,0.1289,-0.6228,0.5906,0.3191,0.1012,-0.2362,0.0103,-0.3049,0.3074,-0.1129,-0.0987,-0.0513,0.0654,-0.3044,0.3076,0.0805,0.0561,-0.1108,0.017,-0.3062,0.308,0.0163,0.1859,-0.1171,-0.0124,-0.0076,0.0019,0.0006,-0.009,-0.0458,-0.1483,-0.1811,-0.2256,0.1829,-0.6106,0.3709,-0.3387,-0.157,0.2915,0.2993,-0.6172,0.2124,-0.2787,-0.2316,0.5193,0.5905,-0.93,0.0,0.0,0.0,0.0,0.0,0.0,0.0,0.0,0.0,
1.24,run,0.29,3.49,0.37,0.27,0.29,0.0,0.0,0.0,0.039,-1.32,-28.48,41.04,-7.82,-19.34,13.01,12.83,-36.39,39.02,10.11,-8.96,12.66,7.38,-38.23,36.91,18.19,7.12,-13.97,-1.24,-33.56,47.63,-8.32,-12.45,12.25,13.28,-42.59,45.85,10.68,-6.61,10.74,7.4,-41.83,42.75,17.84,8.16,-14.77,-0.0355,-0.1557,-0.1632,-0.2377,0.2282,-0.6206,0.3796,-0.3977,-0.1071,0.3051,0.3344,-0.6384,0.2115,-0.3061,-0.1972,0.5097,0.603,-0.9385,0.006,0.019,0.006,0.006,0.006,0.006,0.006,0.019,0.019,0.006,0.006,0.006,0.0,0.019,0.006,0.0,0.0,0.006,-0.0276,-0.4786,0.6888,-0.1335,-0.3528,0.2286,0.2224,-0.6136,0.6489,0.1749,-0.1733,0.2286,0.1289,-0.6473,0.6151,0.3191,0.112,-0.2439,0.0362,-0.306,0.3078,-0.1022,-0.0343,-0.0648,0.0632,-0.3057,0.3079,0.0737,0.0914,-0.1238,0.0119,-0.3069,0.3082,0.0114,0.1707,-0.1109,-0.0141,-0.008,-0.0043,-0.0006,0.0008,-0.041,-0.152,-0.1715,-0.233,0.2044,-0.6155,0.3755,-0.3687,-0.1323,0.2993,0.3157,-0.627,0.2119,-0.2932,-0.2167,0.5149,0.598,-0.9356,0.0,0.0,0.0,0.0,0.0,0.0,0.0,0.0,0.0,
1.28,run,0.29,3.49,-0.04,-0.11,-0.91,0.0,0.0,0.0,0.039,-1.32,-29.88,42.45,-8.09,-18.02,12.48,13.01,-37.79,40.43,10.63,-8.17,11.78,7.38,-39.46,38.32,17.75,7.65,-14.41,-1.05,-33.88,49.13,-8.54,-11.18,11.92,13.4,-44.09,47.35,10.94,-5.57,9.84,7.39,-42.55,44.25,17.61,8.53,-15.11,-0.03,-0.1615,-0.1538,-0.244,0.2512,-0.6244,0.3828,-0.427,-0.0824,0.3126,0.3533,-0.6489,0.2113,-0.3192,-0.1802,0.5031,0.6096,-0.9425,0.0,0.013,0.013,0.0,0.013,0.0,0.006,0.019,0.019,0.0,0.006,0.006,0.0,0.019,0.006,0.006,0.006,0.006,-0.023,-0.5031,0.7133,-0.1381,-0.3375,0.2255,0.2255,-0.6381,0.6734,0.1749,-0.1611,0.2178,0.1289,-0.6703,0.6397,0.3191,0.1212,-0.2485,0.0425,-0.3057,0.3069,-0.0887,0.0331,-0.0568,0.0556,-0.3054,0.307,0.0516,0.1097,-0.1267,0.0083,-0.3006,0.3072,0.008,0.1538,-0.0948,-0.0121,-0.0071,0.0064,0.0047,0.0051,-0.0355,-0.1557,-0.1632,-0.2377,0.2282,-0.6206,0.3796,-0.3977,-0.1071,0.3051,0.3344,-0.6384,0.2115,-0.3061,-0.1972,0.5097,0.603,-0.9385,0.0,0.0,0.0,0.0,0.0,0.0,0.0,0.0,0.0,
1.32,run,0.3,3.51,0.24,0.52,1.71,0.0,0.0,0.0,0.039,-1.32,-31.2,43.86,-8.35,-16.61,12.04,13.1,-39.2,41.84,10.63,-7.29,10.9,7.38,-40.61,39.73,17.58,8.09,-14.77,-0.81,-34.11,50.63,-8.69,-9.75,11.49,13.55,-45.59,48.85,11.22,-4.57,8.99,7.42,-43.57,45.75,17.33,8.8,-15.23,-0.0231,-0.1656,-0.143,-0.2483,0.2772,-0.6295,0.3873,-0.4575,-0.0537,0.3204,0.3715,-0.659,0.212,-0.3377,-0.1587,0.4953,0.6146,-0.9439,0.0,0.013,0.013,0.0,0.013,0.0,0.006,0.019,0.019,0.0,0.006,0.006,0.0,0.019,0.006,0.006,0.006,0.006,-0.023,-0.5277,0.7378,-0.1427,-0.3145,0.2163,0.2286,-0.6627,0.698,0.1841,-0.1473,0.2025,0.1289,-0.6918,0.6642,0.3114,0.1304,-0.2562,0.0297,-0.306,0.3068,-0.0793,0.1094,-0.0743,0.0504,-0.3058,0.3069,0.0706,0.1285,-0.1462,0.0058,-0.2909,0.307,-0.0232,0.1421,-0.0951,-0.0121,-0.007,-0.0007,-0.0019,-0.0158,-0.03,-0.1615,-0.1538,-0.244,0.2512,-0.6244,0.3828,-0.427,-0.0824,0.3126,0.3533,-0.6489,0.2113,-0.3192,-0.1802,0.5031,0.6096,-0.9425,0.0,0.0,0.0,0.0,0.0,0.0,0.0,0.0,0.0,
1.36,run,0.35,3.51,0.45,0.15,-0.9,0.0,0.0,0.0,0.039,-0.88,-32.26,45.35,-8.44,-15.29,12.04,13.18,-40.61,43.24,11.07,-6.42,10.2,7.38,-41.57,41.22,17.49,8.44,-14.94,-0.52,-34.53,52.13,-8.9,-8.25,10.97,13.73,-47.09,50.35,11.52,-3.4,7.87,7.5,-44.52,47.25,17.1,9.15,-15.53,-0.015,-0.1732,-0.1345,-0.2542,0.3047,-0.6356,0.3923,-0.4892,-0.0265,0.3291,0.3928,-0.6722,0.2142,-0.355,-0.1331,0.4886,0.621,-0.9474,0.0,0.013,0.013,0.0,0.013,0.0,0.006,0.019,0.019,0.0,0.006,0.006,0.0,0.019,0.006,0.006,0.006,0.006,-0.023,-0.5507,0.7624,-0.1473,-0.2899,0.2086,0.2301,-0.6872,0.7225,0.1841,-0.1319,0.1871,0.1289,-0.7118,0.6888,0.3083,0.1381,-0.2623,0.0208,-0.3011,0.3075,-0.0729,0.1694,-0.081,0.0411,-0.3068,0.3076,0.0494,0.1479,-0.1603,0.0041,-0.279,0.3077,-0.0278,0.1285,-0.0897,-0.0112,-0.005,0.0041,0.0091,0.0299,-0.0231,-0.1656,-0.143,-0.2483,0.2772,-0.6295,0.3873,-0.4575,-0.0537,0.3204,0.3715,-0.659,0.212,-0.3377,-0.1587,0.4953,0.6146,-0.9439,0.0,0.0,0.0,0.0,0.0,0.0,0.0,0.0,0.0,
1.4,run,0.36,3.52,0.21,0.1,0.18,0.0,0.0,0.0,0.039,-0.62,-33.05,46.67,-8.53,-13.89,11.34,13.36,-41.92,44.74,11.34,-5.36,9.23,7.38,-42.71,42.63,17.05,8.79,-15.29,-0.25,-34.64,53.63,-9.05,-7.05,10.45,13.76,-48.59,51.85,11.89,-2.44,6.72,7.7,-45.66,48.75,16.8,9.22,-15.91,-0.007,-0.1753,-0.1287,-0.2585,0.3263,-0.6418,0.3931,-0.5181,0.0023,0.3396,0.4102,-0.6856,0.2199,-0.3756,-0.1107,0.4801,0.6221,-0.9519,0.006,0.013,0.013,0.0,0.013,0.006,0.006,0.033,0.019,0.006,0.006,0.006,0.006,0.006,0.013,0.0,0.0,0.006,-0.0153,-0.5691,0.7885,-0.1488,-0.2669,0.2086,0.2316,-0.7118,0.747,0.1917,-0.1166,0.1749,0.1289,-0.7286,0.7148,0.3068,0.1442,-0.2654,0.0431,-0.2794,0.3124,-0.0568,0.2043,-0.0567,0.0345,-0.3062,0.3068,0.0632,0.1607,-0.1579,0.0029,-0.2582,0.3125,-0.0252,0.1128,-0.0743,-0.0072,-0.005,0.0079,0.0026,-0.0157,-0.015,-0.1732,-0.1345,-0.2542,0.3047,-0.6356,0.3923,-0.4892,-0.0265,0.3291,0.3928,-0.6722,0.2142,-0.355,-0.1331,0.4886,0.621,-0.9474,0.0,0.0,0.0,0.0,0.0,0.0,0.0,0.0,0.0,
1.44,run,0.36,3.53,0.42,0.55,1.09,0.0,0.0,0.0,0.039,-0.62,-33.75,48.08,-8.88,-12.48,10.81,13.54,-43.33,46.05,11.69,-4.39,8.26,7.38,-43.77,44.03,16.96,9.05,-15.56,0.11,-34.78,54.47,-9.08,-5.58,9.7,13.93,-50.09,53.35,12.11,-1.36,5.34,7.91,-46.89,50.25,16.63,9.44,-16.02,0.0031,-0.1779,-0.1239,-0.2593,0.3531,-0.6506,0.3981,-0.5476,0.0315,0.3459,0.4299,-0.7018,0.2261,-0.3979,-0.081,0.4752,0.6263,-0.9532,0.006,0.013,0.013,0.0,0.013,0.006,0.006,0.033,0.019,0.006,0.006,0.006,0.006,0.006,0.013,0.0,0.0,0.006,-0.0107,-0.5829,0.8115,-0.1503,-0.2424,0.1963,0.2347,-0.7348,0.7731,0.1963,-0.0982,0.158,0.1289,-0.7486,0.7394,0.2991,0.1503,-0.2715,0.0475,-0.2474,0.3051,-0.0455,0.2352,-0.0858,0.0357,-0.3008,0.3127,0.0615,0.1816,-0.1739,0.002,-0.2556,0.311,-0.0464,0.102,-0.075,-0.0058,-0.0043,0.0037,0.0018,0.0031,-0.007,-0.1753,-0.1287,-0.2585,0.3263,-0.6418,0.3931,-0.5181,0.0023,0.3396,0.4102,-0.6856,0.2199,-0.3756,-0.1107,0.4801,0.6221,-0.9519,0.0,0.0,0.0,0.0,0.0,0.0,0.0,0.0,0.0,
1.48,run,0.38,3.53,-0.23,-0.33,-1.16,0.0,0.0,0.0,0.039,-0.09,-34.1,49.57,-8.88,-10.99,10.37,13.71,-44.82,47.46,11.78,-3.43,7.38,7.73,-44.74,45.53,16.61,9.05,-15.82,0.45,-34.92,54.82,-9.17,-4.3,9.0,14.12,-51.59,54.85,12.44,-0.35,4.16,8.2,-48.1,51.75,16.44,9.66,-16.35,0.013,-0.1803,-0.1197,-0.2619,0.3763,-0.6589,0.4034,-0.5747,0.0587,0.3554,0.4481,-0.7158,0.2343,-0.4199,-0.0522,0.4698,0.6301,-0.9571,0.006,0.013,0.013,0.0,0.013,0.006,0.006,0.033,0.019,0.006,0.006,0.006,0.006,0.006,0.013,0.0,0.0,0.006,-0.0107,-0.5952,0.836,-0.1565,-0.2178,0.1871,0.2378,-0.7593,0.7961,0.2025,-0.0813,0.1411,0.1289,-0.767,0.7639,0.2976,0.1549,-0.2761,0.0332,-0.2195,0.3061,-0.055,0.2572,-0.0947,0.0365,-0.3031,0.3056,0.0662,0.1908,-0.1854,0.0014,-0.2483,0.3102,-0.0383,0.0888,-0.0699,-0.0061,-0.0033,0.0073,0.0095,0.019,0.0031,-0.1779,-0.1239,-0.2593,0.3531,-0.6506,0.3981,-0.5476,0.0315,0.3459,0.4299,-0.7018,0.2261,-0.3979,-0.081,0.4752,0.6263,-0.9532,0.0,0.0,0.0,0.0,0.0,0.0,0.0,0.0,0.0,
1.52,run,0.39,3.52,0.41,0.22,0.23,0.0,0.0,0.0,0.039,0.26,-34.37,50.98,-8.88,-9.58,9.67,13.71,-46.23,48.96,12.3,-2.37,6.15,7.82,-45.88,46.93,16.52,9.32,-16.0,0.86,-34.8,54.81,-9.15,-3.22,8.03,14.2,-53.09,56.35,12.68,0.56,2.66,8.63,-49.38,53.25,16.3,9.7,-16.45,0.0246,-0.1783,-0.1199,-0.2614,0.396,-0.6702,0.4056,-0.5994,0.0909,0.3623,0.4648,-0.7335,0.2466,-0.4432,-0.0189,0.4656,0.6309,-0.9582,0.006,0.013,0.0,0.006,0.0,0.013,0.006,0.039,0.013,0.0,0.0,0.006,0.006,0.019,0.013,0.0,0.0,0.006,-0.0015,-0.6013,0.8621,-0.1565,-0.1917,0.1795,0.2408,-0.7854,0.8207,0.204,-0.0644,0.1258,0.135,-0.7839,0.79,0.2915,0.1549,-0.2807,0.0576,-0.1765,0.3116,-0.0385,0.2773,-0.0949,0.037,-0.3094,0.3055,0.0521,0.1965,-0.187,0.0239,-0.2368,0.3144,-0.0497,0.0621,-0.0661,-0.0042,-0.0029,-0.004,-0.0058,-0.0202,0.013,-0.1803,-0.1197,-0.2619,0.3763,-0.6589,0.4034,-0.5747,0.0587,0.3554,0.4481,-0.7158,0.2343,-0.4199,-0.0522,0.4698,0.6301,-0.9571,0.0,0.0,0.0,0.0,0.0,0.0,0.0,0.0,0.0,
1.56,run,0.37,3.53,-0.28,-0.3,0.07,0.0,0.0,0.0,0.039,0.44,-34.37,52.29,-8.88,-8.17,8.96,13.97,-47.64,50.36,12.48,-1.41,5.01,8.26,-47.02,48.34,16.26,9.58,-16.26,1.25,-34.67,54.7,-9.03,-1.9,7.1,14.38,-54.59,57.85,12.87,1.56,1.24,8.98,-50.69,54.75,16.2,9.84,-16.59,0.0357,-0.1758,-0.1211,-0.2581,0.4199,-0.6812,0.4109,-0.6236,0.1179,0.3678,0.4828,-0.7501,0.2566,-0.4672,0.0124,0.4628,0.6334,-0.9598,0.006,0.013,0.0,0.006,0.0,0.013,0.006,0.039,0.013,0.0,0.0,0.006,0.006,0.019,0.013,0.0,0.0,0.006,0.0046,-0.6059,0.8866,-0.1565,-0.1672,0.1672,0.2408,-0.8099,0.8468,0.2132,-0.046,0.1043,0.1365,-0.8038,0.8145,0.2899,0.1595,-0.2838,0.0633,-0.1408,0.3101,-0.0269,0.2861,-0.1124,0.0259,-0.3086,0.3116,0.0709,0.2065,-0.2114,0.0225,-0.2405,0.3121,-0.0405,0.0607,-0.0577,-0.0039,-0.004,0.0071,0.0038,0.004,0.0246,-0.1783,-0.1199,-0.2614,0.396,-0.6702,0.4056,-0.5994,0.0909,0.3623,0.4648,-0.7335,0.2466,-0.4432,-0.0189,0.4656,0.6309,-0.9582,0.0,0.0,0.0,0.0,0.0,0.0,0.0,0.0,0.0,
1.6,run,0.42,3.51,0.19,0.19,0.19,0.0,0.0,0.0,0.039,0.97,-34.37,53.17,-8.88,-6.77,8.17,14.06,-49.04,51.77,12.74,-0.44,3.78,8.61,-48.16,49.83,16.26,9.67,-16.44,1.66,-34.4,54.5,-8.87,-0.82,6.09,14.55,-56.09,59.35,12.94,2.47,-0.14,9.38,-51.9,56.25,16.18,9.98,-16.53,0.0474,-0.1709,-0.1235,-0.2534,0.4397,-0.693,0.4156,-0.6446,0.1455,0.3696,0.4995,-0.7664,0.2679,-0.4891,0.0444,0.4622,0.636,-0.9591,0.006,0.013,0.0,0.006,0.0,0.013,0.006,0.039,0.013,0.0,0.0,0.006,0.006,0.019,0.013,0.0,0.0,0.006,0.0077,-0.6059,0.9097,-0.1565,-0.1427,0.1549,0.2454,-0.8345,0.8713,0.2163,-0.0291,0.0844,0.1442,-0.8237,0.8391,0.2853,0.1641,-0.2884,0.0558,-0.0986,0.3034,-0.0189,0.2923,-0.1247,0.0354,-0.3081,0.3102,0.0612,0.2079,-0.2228,0.0445,-0.2431,0.3105,-0.0456,0.0598,-0.0577,-0.005,-0.0034,-0.0049,-0.0053,0.0012,0.0357,-0.1758,-0.1211,-0.2581,0.4199,-0.6812,0.4109,-0.6236,0.1179,0.3678,0.4828,-0.7501,0.2566,-0.4672,0.0124,0.4628,0.6334,-0.9598,0.0,0.0,0.0,0.0,0.0,0.0,0.0,0.0,0.0,
1.64,run,0.41,3.5,-0.04,-0.16,-0.2,0.0,0.0,0.0,0.039,1.23,-34.37,54.05,-8.88,-5.36,7.29,14.24,-50.54,53.17,12.83,0.62,2.46,9.05,-49.39,51.15,16.26,9.76,-16.35,2.04,-33.95,54.01,-8.61,0.28,5.05,14.71,-57.59,60.85,13.0,3.38,-1.53,9.82,-53.04,57.75,16.16,10.05,-16.45,0.0583,-0.1627,-0.1292,-0.2461,0.4597,-0.7053,0.4202,-0.6626,0.1712,0.3713,0.5161,-0.7828,0.2805,-0.5098,0.0779,0.4618,0.6372,-0.9583,0.006,0.0,0.0,0.0,0.006,0.019,0.0,0.026,0.026,0.0,0.006,0.006,0.006,0.013,0.006,0.0,0.0,0.0,0.0169,-0.6059,0.925,-0.1565,-0.1181,0.1411,0.247,-0.859,0.8958,0.2209,-0.0123,0.0629,0.1503,-0.8437,0.8652,0.2853,0.1657,-0.2915,0.0735,-0.069,0.2697,-0.0132,0.2963,-0.1389,0.0305,-0.3074,0.3088,0.06,0.2086,-0.2362,0.0541,-0.2447,0.3148,-0.0319,0.0476,-0.0518,-0.0013,-0.0052,0.0033,0.0033,0.0034,0.0474,-0.1709,-0.1235,-0.2534,0.4397,-0.693,0.4156,-0.6446,0.1455,0.3696,0.4995,-0.7664,0.2679,-0.4891,0.0444,0.4622,0.636,-0.9591,0.0,0.0,0.0,0.0,0.0,0.0,0.0,0.0,0.0,
1.68,run,0.38,3.51,-0.72,-0.28,1.04,0.0,0.0,0.0,0.039,1.67,-34.19,54.49,-8.88,-3.87,6.42,14.41,-51.94,54.58,12.83,1.49,1.23,9.49,-50.62,52.65,16.26,9.93,-16.35,2.42,-33.44,53.55,-8.33,1.26,4.06,14.87,-59.09,62.35,12.93,4.26,-2.8,10.22,-54.03,59.25,16.21,10.17,-16.22,0.069,-0.1534,-0.1346,-0.2379,0.4775,-0.717,0.425,-0.6781,0.1953,0.3695,0.532,-0.7976,0.2919,-0.5278,0.1087,0.4632,0.6394,-0.9555,0.006,0.0,0.0,0.0,0.006,0.019,0.0,0.026,0.026,0.0,0.006,0.006,0.006,0.013,0.006,0.0,0.0,0.0,0.0215,-0.6059,0.9403,-0.1565,-0.0936,0.1258,0.25,-0.8851,0.9204,0.2224,0.0061,0.0399,0.158,-0.8652,0.8882,0.2853,0.1672,-0.2899,0.0687,-0.0483,0.2464,-0.0092,0.2996,-0.1548,0.0329,-0.3131,0.3084,0.0478,0.2151,-0.2517,0.0667,-0.252,0.3068,-0.0224,0.0391,-0.0305,-0.0014,-0.0059,-0.0007,-0.0029,-0.0036,0.0583,-0.1627,-0.1292,-0.2461,0.4597,-0.7053,0.4202,-0.6626,0.1712,0.3713,0.5161,-0.7828,0.2805,-0.5098,0.0779,0.4618,0.6372,-0.9583,0.0,0.0,0.0,0.0,0.0,0.0,0.0,0.0,0.0,
1.72,run,0.41,3.54,0.04,-0.09,-0.2,0.0,0.0,0.0,0.039,2.11,-34.01,54.49,-8.88,-2.55,5.54,14.5,-53.44,55.99,12.92,2.46,-0.09,9.76,-51.68,54.05,16.26,9.93,-16.35,2.78,-32.8,52.91,-7.95,2.28,3.05,15.04,-60.59,63.85,12.8,5.11,-4.01,10.61,-54.9,60.75,16.27,10.22,-15.84,0.0793,-0.1418,-0.1422,-0.2272,0.496,-0.7288,0.4297,-0.6898,0.2176,0.3656,0.5475,-0.8119,0.3031,-0.5436,0.14,0.4648,0.6404,-0.9511,0.006,0.0,0.0,0.0,0.006,0.019,0.0,0.026,0.026,0.0,0.006,0.006,0.006,0.013,0.006,0.0,0.0,0.0,0.0291,-0.6029,0.948,-0.1565,-0.0675,0.1104,0.2531,-0.9097,0.9449,0.2224,0.0215,0.0184,0.1657,-0.8866,0.9143,0.2853,0.1703,-0.2899,0.077,-0.0222,0.2014,-0.0065,0.3082,-0.1663,0.0346,-0.3118,0.3085,0.0334,0.2085,-0.2573,0.0756,-0.2574,0.3132,-0.0157,0.0389,-0.0214,-0.0041,-0.0051,-0.0125,-0.0049,0.0182,0.069,-0.1534,-0.1346,-0.2379,0.4775,-0.717,0.425,-0.6781,0.1953,0.3695,0.532,-0.7976,0.2919,-0.5278,0.1087,0.4632,0.6394,-0.9555,0.0,0.0,0.0,0.0,0.0,0.0,0.0,0.0,0.0,
1.76,run,0.42,3.53,0.19,0.05,0.4,0.0,0.0,0.0,0.039,2.29,-33.49,54.32,-8.79,-1.14,4.48,14.77,-54.84,57.39,12.92,3.43,-1.41,10.28,-52.82,55.46,16.26,10.02,-16.35,3.08,-32.09,52.25,-7.56,3.26,1.93,15.19,-62.09,65.35,12.65,5.88,-5.13,11.04,-55.83,62.25,16.35,10.28,-15.53,0.088,-0.1289,-0.15,-0.2159,0.5138,-0.742,0.4339,-0.7014,0.2398,0.3616,0.5614,-0.8251,0.3155,-0.5605,0.1689,0.4671,0.6415,-0.9474,0.013,0.0,0.006,0.006,0.006,0.013,0.0,0.013,0.019,0.013,0.006,0.006,0.006,0.019,0.013,0.0,0.006,0.006,0.0368,-0.5998,0.948,-0.1565,-0.0445,0.0951,0.2546,-0.9357,0.9695,0.224,0.0383,-0.0046,0.1703,-0.905,0.9388,0.2853,0.1703,-0.2899,0.0825,-0.0041,0.141,-0.0045,0.3014,-0.1736,0.0299,-0.3154,0.3074,0.0291,0.2088,-0.2658,0.0701,-0.2488,0.3107,-0.011,0.0272,-0.015,-0.0016,-0.0025,0.0007,-0.0015,-0.0036,0.0793,-0.1418,-0.1422,-0.2272,0.496,-0.7288,0.4297,-0.6898,0.2176,0.3656,0.5475,-0.8119,0.3031,-0.5436,0.14,0.4648,0.6404,-0.9511,0.0,0.0,0.0,0.0,0.0,0.0,0.0,0.0,0.0,
1.8,run,0.44,3.55,0.44,0.26,-0.25,0.0,0.0,0.0,0.039,2.9,-32.96,53.53,-8.0,0.18,3.52,14.85,-56.25,58.8,12.83,4.31,-2.64,10.72,-53.88,56.87,16.26,10.11,-15.91,3.39,-31.28,51.38,-7.04,4.24,0.72,15.35,-63.59,66.85,12.35,6.69,-6.34,11.45,-56.67,63.75,16.48,10.37,-15.15,0.097,-0.1142,-0.1602,-0.2011,0.5316,-0.7563,0.4386,-0.7107,0.2589,0.353,0.5762,-0.8393,0.327,-0.5758,0.1964,0.471,0.6431,-0.9429,0.013,0.0,0.006,0.006,0.006,0.013,0.0,0.013,0.019,0.013,0.006,0.006,0.006,0.019,0.013,0.0,0.006,0.006,0.0399,-0.5906,0.9449,-0.1549,-0.0199,0.0767,0.2592,-0.9603,0.994,0.224,0.0552,-0.0276,0.1795,-0.925,0.9633,0.2853,0.1718,-0.2899,0.0693,0.0316,0.0872,0.0026,0.303,-0.1905,0.0382,-0.3128,0.3071,0.0204,0.2094,-0.2723,0.0835,-0.2489,0.3094,-0.0077,0.0248,-0.0105,-0.0008,-0.0029,0.0033,0.0009,0.007,0.088,-0.1289,-0.15,-0.2159,0.5138,-0.742,0.4339,-0.7014,0.2398,0.3616,0.5614,-0.8251,0.3155,-0.5605,0.1689,0.4671,0.6415,-0.9474,0.0,0.0,0.0,0.0,0.0,0.0,0.0,0.0,0.0,
1.84,run,0.42,3.54,-0.24,-0.19,-0.11,0.0,0.0,0.0,0.039,3.08,-32.34,52.82,-7.38,1.41,2.55,15.12,-57.74,60.21,12.39,5.19,-3.87,11.07,-54.76,58.27,16.26,10.11,-15.64,3.68,-30.36,50.26,-6.46,5.17,-0.51,15.42,-64.49,68.35,11.95,7.41,-7.53,11.83,-57.35,65.25,16.66,10.37,-14.67,0.1051,-0.0975,-0.1734,-0.1846,0.5485,-0.7707,0.4407,-0.718,0.278,0.3415,0.5892,-0.8533,0.338,-0.5882,0.2211,0.476,0.643,-0.9373,0.013,0.0,0.006,0.006,0.006,0.013,0.0,0.013,0.019,0.013,0.006,0.006,0.006,0.019,0.013,0.0,0.006,0.006,0.0506,-0.5814,0.9311,-0.1411,0.0031,0.0598,0.2608,-0.9848,1.0186,0.2224,0.0706,-0.0491,0.1871,-0.9434,0.9879,0.2853,0.1733,-0.2823,0.0891,0.0569,0.0089,0.054,0.2991,-0.1971,0.0325,-0.3117,0.3078,0.0085,0.2046,-0.2718,0.0875,-0.2438,0.3094,-0.0054,0.0232,0.0217,0.0009,-0.0014,0.0077,0.0045,-0.0044,0.097,-0.1142,-0.1602,-0.2011,0.5316,-0.7563,0.4386,-0.7107,0.2589,0.353,0.5762,-0.8393,0.327,-0.5758,0.1964,0.471,0.6431,-0.9429,0.0,0.0,0.0,0.0,0.0,0.0,0.0,0.0,0.0,
1.88,run,0.4,3.55,-0.02,-0.13,1.72,0.0,0.0,0.0,0.039,3.6,-31.64,52.03,-7.38,2.55,1.41,15.12,-59.15,61.61,12.22,6.06,-5.1,11.51,-55.63,59.77,16.61,10.11,-15.21,3.96,-29.49,49.18,-5.89,6.0,-1.74,15.56,-64.76,69.85,11.49,8.13,-8.66,12.23,-57.88,66.75,16.84,10.4,-14.13,0.113,-0.0816,-0.1861,-0.1682,0.5636,-0.7851,0.4447,-0.7228,0.2958,0.3284,0.6023,-0.8666,0.3494,-0.5978,0.2447,0.4813,0.6436,-0.9309,0.006,0.006,0.013,0.013,0.006,0.013,0.013,0.026,0.026,0.019,0.0,0.013,0.006,0.033,0.006,0.006,0.006,0.0,0.0537,-0.5706,0.9189,-0.1304,0.0245,0.043,0.2654,-1.0109,1.0431,0.2148,0.0859,-0.0706,0.1933,-0.9587,1.0124,0.2853,0.1733,-0.2777,0.0738,0.0798,-0.0395,0.0778,0.2893,-0.2008,0.0399,-0.3153,0.3068,-0.0226,0.2003,-0.2702,0.0841,-0.2278,0.3079,-0.0038,0.0162,0.0323,-0.0008,-0.0026,-0.0041,-0.0034,-0.002,0.1051,-0.0975,-0.1734,-0.1846,0.5485,-0.7707,0.4407,-0.718,0.278,0.3415,0.5892,-0.8533,0.338,-0.5882,0.2211,0.476,0.643,-0.9373,0.0,0.0,0.0,0.0,0.0,0.0,0.0,0.0,0.0,
1.92,run,0.42,3.56,0.5,0.33,-1.32,0.0,0.0,0.0,0.039,3.78,-30.85,51.06,-7.12,3.69,0.35,15.21,-60.56,63.02,11.78,6.86,-6.33,11.95,-56.51,61.17,16.79,10.11,-14.77,4.18,-28.45,47.92,-5.25,6.79,-2.77,15.68,-64.84,71.35,11.05,8.83,-9.63,12.57,-58.24,68.25,16.98,10.39,-13.55,0.1195,-0.0627,-0.2009,-0.1499,0.5781,-0.7973,0.4479,-0.7244,0.3092,0.3156,0.615,-0.8781,0.3593,-0.6043,0.2678,0.4852,0.6435,-0.9241,0.006,0.006,0.013,0.013,0.006,0.013,0.013,0.026,0.026,0.019,0.0,0.013,0.006,0.033,0.006,0.006,0.006,0.0,0.0629,-0.5584,0.905,-0.1304,0.0445,0.023,0.2654,-1.0354,1.0677,0.2117,0.1012,-0.092,0.201,-0.9741,1.0385,0.2915,0.1733,-0.27,0.0862,0.102,-0.0795,0.0544,0.2774,-0.2155,0.0279,-0.3129,0.307,-0.0274,0.1978,-0.2698,0.0877,-0.2171,0.3135,0.0204,0.0114,0.0514,-0.0025,-0.0018,-0.0004,-0.0022,0.03,0.113,-0.0816,-0.1861,-0.1682,0.5636,-0.7851,0.4447,-0.7228,0.2958,0.3284,0.6023,-0.8666,0.3494,-0.5978,0.2447,0.4813,0.6436,-0.9309,0.0,0.0,0.0,0.0,0.0,0.0,0.0,0.0,0.0,
1.96,run,0.37,3.55,-0.63,-0.14,1.48,0.0,0.0,0.0,0.039,4.13,-30.06,50.19,-6.06,4.75,-0.79,15.47,-61.96,64.42,11.34,7.56,-7.47,12.22,-57.22,62.67,16.79,10.11,-14.33,4.4,-27.41,46.88,-4.65,7.48,-3.98,15.74,-65.14,72.85,10.58,9.42,-10.48,12.96,-58.88,69.75,17.19,10.46,-13.12,0.1256,-0.0438,-0.2132,-0.1328,0.5905,-0.8116,0.4498,-0.7298,0.3246,0.3024,0.6258,-0.888,0.3703,-0.616,0.2866,0.4912,0.6446,-0.919,0.006,0.006,0.013,0.013,0.006,0.013,0.013,0.026,0.026,0.019,0.0,0.013,0.006,0.033,0.006,0.006,0.006,0.0,0.066,-0.5446,0.8882,-0.1258,0.0644,0.0046,0.2669,-1.06,1.0922,0.204,0.115,-0.1135,0.2086,-0.9894,1.063,0.2945,0.1733,-0.2623,0.0719,0.1235,-0.1193,0.0555,0.2694,-0.2203,0.0253,-0.3116,0.3075,-0.0481,0.1906,-0.2699,0.0903,-0.2098,0.312,0.0259,0.0079,0.0649,-0.0006,-0.0006,0.0088,0.0058,-0.023,0.1195,-0.0627,-0.2009,-0.1499,0.5781,-0.7973,0.4479,-0.7244,0.3092,0.3156,0.615,-0.8781,0.3593,-0.6043,0.2678,0.4852,0.6435,-0.9241,0.0,0.0,0.0,0.0,0.0,0.0,0.0,0.0,0.0,
2.0,run,0.35,3.56,-0.19,0.02,-1.3,0.0,0.0,0.0,0.039,4.31,-29.27,49.13,-5.45,5.71,-1.93,15.47,-63.19,65.83,11.16,8.35,-8.61,12.57,-57.74,64.07,17.14,10.2,-13.8,4.61,-26.45,45.47,-3.99,8.3,-5.14,15.84,-65.05,74.35,9.99,10.06,-11.45,13.26,-59.02,71.25,17.36,10.42,-12.36,0.1318,-0.0264,-0.2297,-0.1141,0.6054,-0.8251,0.4525,-0.7281,0.3384,0.2854,0.6375,-0.8994,0.3787,-0.6186,0.306,0.4961,0.6441,-0.9101,0.006,0.0,0.013,0.013,0.0,0.013,0.006,0.013,0.019,0.013,0.0,0.006,0.006,0.033,0.006,0.0,0.006,0.006,0.0721,-0.5308,0.8728,-0.1074,0.0828,-0.0153,0.2715,-1.0845,1.1167,0.1963,0.1273,-0.1335,0.2132,-1.0017,1.0891,0.2945,0.1733,-0.2546,0.0732,0.1379,-0.1407,0.1075,0.2573,-0.2286,0.0349,-0.3097,0.3068,-0.0623,0.1792,-0.2633,0.0804,-0.1926,0.3157,0.0181,0.0056,0.0741,-0.0054,-0.0019,-0.0109,-0.0025,0.0258,0.1256,-0.0438,-0.2132,-0.1328,0.5905,-0.8116,0.4498,-0.7298,0.3246,0.3024,0.6258,-0.888,0.3703,-0.616,0.2866,0.4912,0.6446,-0.919,0.0,0.0,0.0,0.0,0.0,0.0,0.0,0.0,0.0,
2.04,run,0.39,3.56,-0.09,0.18,1.68,0.0,0.0,0.0,0.039,4.66,-28.3,47.99,-5.36,6.68,-3.08,15.47,-64.07,67.24,10.2,8.96,-9.76,13.01,-58.27,65.48,17.23,10.2,-13.27,4.8,-25.36,44.31,-3.36,8.95,-6.29,15.86,-65.23,75.85,9.45,10.6,-12.21,13.61,-59.56,72.75,17.57,10.43,-11.96,0.1372,-0.0065,-0.2434,-0.0961,0.6173,-0.8387,0.4531,-0.7315,0.3523,0.2699,0.6473,-0.9083,0.3889,-0.6283,0.3227,0.502,0.6441,-0.9054,0.006,0.0,0.013,0.013,0.0,0.013,0.006,0.013,0.019,0.013,0.0,0.006,0.006,0.033,0.006,0.0,0.006,0.006,0.0752,-0.517,0.8544,-0.0966,0.0997,-0.0353,0.2715,-1.106,1.1413,0.1933,0.1411,-0.1534,0.2194,-1.0109,1.1137,0.3007,0.1749,-0.2454,0.0628,0.1486,-0.1679,0.1157,0.2437,-0.2352,0.0244,-0.2977,0.3072,-0.0552,0.1775,-0.2595,0.0794,-0.1695,0.3135,0.0358,0.0097,0.0865,-0.0069,-0.0006,-0.0033,0.0003,-0.0227,0.1318,-0.0264,-0.2297,-0.1141,0.6054,-0.8251,0.4525,-0.7281,0.3384,0.2854,0.6375,-0.8994,0.3787,-0.6186,0.306,0.4961,0.6441,-0.9101,0.0,0.0,0.0,0.0,0.0,0.0,0.0,0.0,0.0,
2.08,run,0.38,3.53,-0.47,-0.11,-0.64,0.0,0.0,0.0,0.039,4.57,-27.42,46.93,-4.48,7.47,-4.13,15.47,-64.69,68.73,10.02,9.67,-10.63,13.27,-58.71,66.88,17.31,10.37,-12.74,4.95,-24.27,42.9,-2.66,9.58,-7.06,15.89,-64.99,77.35,8.84,11.16,-12.81,13.86,-59.58,74.25,17.71,10.55,-11.13,0.1415,0.0133,-0.26,-0.076,0.6287,-0.8478,0.4539,-0.7271,0.3592,0.2525,0.6574,-0.9154,0.3959,-0.6288,0.3379,0.5059,0.6463,-0.8957,0.006,0.0,0.013,0.013,0.0,0.013,0.006,0.013,0.019,0.013,0.0,0.006,0.006,0.033,0.006,0.0,0.006,0.006,0.0813,-0.5001,0.8345,-0.0951,0.1166,-0.0552,0.2715,-1.1213,1.1658,0.1764,0.1519,-0.1733,0.227,-1.0201,1.1382,0.3022,0.1749,-0.2362,0.067,0.1672,-0.1922,0.0867,0.2338,-0.2393,0.0171,-0.2659,0.307,-0.1018,0.1644,-0.2563,0.0843,-0.1531,0.3114,0.0308,0.0068,0.095,-0.004,-0.0004,-0.0016,0.0031,0.0294,0.1372,-0.0065,-0.2434,-0.0961,0.6173,-0.8387,0.4531,-0.7315,0.3523,0.2699,0.6473,-0.9083,0.3889,-0.6283,0.3227,0.502,0.6441,-0.9054,0.0,0.0,0.0,0.0,0.0,0.0,0.0,0.0,0.0,
2.12,run,0.38,3.51,0.31,-0.26,-2.31,0.0,0.0,0.0,0.052,4.92,-26.37,45.7,-3.78,8.35,-5.36,15.47,-65.04,70.14,9.32,10.37,-11.69,13.62,-58.97,68.38,17.67,10.46,-12.13,5.13,-23.21,41.7,-2.01,10.11,-8.04,15.87,-65.01,78.85,8.23,11.56,-13.41,14.14,-60.01,75.75,17.89,10.54,-10.67,0.1464,0.0326,-0.2741,-0.0573,0.6384,-0.8593,0.4536,-0.7275,0.3709,0.2353,0.6647,-0.9225,0.404,-0.6365,0.3501,0.5111,0.6461,-0.8902,0.0,0.0,0.013,0.006,0.0,0.013,0.0,0.0,0.019,0.0,0.006,0.006,0.006,0.052,0.0,0.006,0.0,0.013,0.0798,-0.4847,0.8161,-0.0798,0.1304,-0.0736,0.2715,-1.1321,1.1919,0.1733,0.1641,-0.1887,0.2316,-1.0278,1.1628,0.3037,0.1779,-0.227,0.0412,0.1742,-0.2032,0.1179,0.2151,-0.2361,0.012,-0.2261,0.3121,-0.0827,0.1608,-0.2366,0.0762,-0.1358,0.3094,0.0273,0.0162,0.1008,-0.0044,-0.0031,-0.0082,-0.0019,-0.0111,0.1415,0.0133,-0.26,-0.076,0.6287,-0.8478,0.4539,-0.7271,0.3592,0.2525,0.6574,-0.9154,0.3959,-0.6288,0.3379,0.5059,0.6463,-0.8957,0.0,0.0,0.0,0.0,0.0,0.0,0.0,0.0,0.0,
2.16,run,0.37,3.53,-0.37,0.26,3.17,0.0,0.0,0.0,0.052,5.01,-25.31,44.56,-3.16,9.14,-6.33,15.64,-64.78,71.46,8.7,10.9,-12.48,13.89,-59.06,69.79,17.67,10.46,-11.51,5.27,-21.9,40.2,-1.22,10.7,-9.01,15.78,-64.89,80.35,7.56,12.03,-14.02,14.41,-60.27,77.25,18.07,10.54,-9.96,0.1506,0.0564,-0.2935,-0.035,0.649,-0.8707,0.4508,-0.7252,0.3799,0.216,0.6733,-0.9297,0.4119,-0.6412,0.3633,0.5164,0.6462,-0.8819,0.0,0.0,0.013,0.006,0.0,0.013,0.0,0.0,0.019,0.0,0.006,0.006,0.006,0.052,0.0,0.006,0.0,0.013,0.0859,-0.4663,0.7946,-0.0675,0.1457,-0.0951,0.2715,-1.1382,1.2164,0.1611,0.1764,-0.2071,0.2378,-1.0324,1.1888,0.3099,0.1795,-0.2163,0.0518,0.1911,-0.2228,0.1286,0.2082,-0.2459,0.0084,-0.1813,0.3106,-0.104,0.1587,-0.2347,0.0763,-0.1123,0.3145,0.0421,0.0171,0.1109,-0.004,-0.005,0.0055,-0.0046,-0.0403,0.1464,0.0326,-0.2741,-0.0573,0.6384,-0.8593,0.4536,-0.7275,0.3709,0.2353,0.6647,-0.9225,0.404,-0.6365,0.3501,0.5111,0.6461,-0.8902,0.0,0.0,0.0,0.0,0.0,0.0,0.0,0.0,0.0,
2.2,run,0.36,3.53,0.12,-0.28,-2.45,0.0,0.0,0.0,0.052,5.1,-24.35,43.42,-2.46,9.67,-7.29,15.73,-64.86,72.95,8.26,11.43,-13.18,14.15,-59.41,71.19,18.02,10.46,-10.9,5.4,-20.64,38.7,-0.41,11.28,-9.63,15.7,-64.22,81.85,6.73,12.49,-14.32,14.55,-59.87,78.75,18.12,10.61,-8.94,0.1542,0.0793,-0.3151,-0.0117,0.6596,-0.8781,0.4486,-0.7131,0.382,0.1922,0.6816,-0.9332,0.4158,-0.634,0.3723,0.5178,0.6474,-0.8698,0.0,0.0,0.013,0.006,0.0,0.013,0.0,0.0,0.019,0.0,0.006,0.006,0.006,0.052,0.0,0.006,0.0,0.013,0.0874,-0.4479,0.7747,-0.0568,0.1595,-0.112,0.2746,-1.1336,1.2395,0.1503,0.1856,-0.2209,0.2424,-1.0339,1.2134,0.3099,0.1795,-0.2056,0.0421,0.2032,-0.2312,0.1305,0.1978,-0.2358,0.0174,-0.1096,0.3043,-0.1133,0.1458,-0.2164,0.0708,-0.0844,0.3128,0.0295,0.012,0.1182,-0.0053,-0.0031,-0.0064,0.0046,0.0553,0.1506,0.0564,-0.2935,-0.035,0.649,-0.8707,0.4508,-0.7252,0.3799,0.216,0.6733,-0.9297,0.4119,-0.6412,0.3633,0.5164,0.6462,-0.8819,0.0,0.0,0.0,0.0,0.0,0.0,0.0,0.0,0.0,
2.24,run,0.39,3.54,0.35,0.68,1.72,0.0,0.0,0.0,0.052,5.27,-23.29,42.19,-1.76,10.37,-8.26,15.73,-64.6,74.36,7.47,11.95,-13.89,14.41,-59.68,72.6,18.02,10.46,-10.28,5.53,-19.43,37.2,0.24,11.59,-10.61,15.61,-64.17,83.35,6.18,12.78,-14.81,14.81,-60.27,80.25,18.32,10.6,-8.53,0.158,0.1013,-0.3306,0.0069,0.6653,-0.8895,0.4459,-0.7122,0.3912,0.1767,0.6869,-0.9389,0.4231,-0.6412,0.3807,0.5235,0.6472,-0.8651,0.0,0.006,0.013,0.006,0.006,0.013,0.0,0.0,0.019,0.006,0.006,0.006,0.006,0.013,0.006,0.006,0.0,0.006,0.089,-0.431,0.7547,-0.0445,0.1687,-0.1289,0.2761,-1.1351,1.2655,0.1427,0.1948,-0.2332,0.247,-1.04,1.2379,0.316,0.1795,-0.1948,0.0351,0.2048,-0.2358,0.1369,0.1726,-0.2276,0.0179,-0.0824,0.3096,-0.1077,0.1362,-0.197,0.0666,-0.0818,0.3099,0.0434,0.0084,0.1225,-0.006,-0.0029,0.002,-0.0049,-0.0427,0.1542,0.0793,-0.3151,-0.0117,0.6596,-0.8781,0.4486,-0.7131,0.382,0.1922,0.6816,-0.9332,0.4158,-0.634,0.3723,0.5178,0.6474,-0.8698,0.0,0.0,0.0,0.0,0.0,0.0,0.0,0.0,0.0,
2.28,run,0.37,3.54,-0.17,-0.29,-0.49,0.0,0.0,0.0,0.052,5.36,-22.06,40.78,-1.05,10.99,-9.23,15.73,-64.25,75.76,6.86,12.39,-14.41,14.59,-59.68,74.09,18.11,10.46,-9.58,5.63,-18.14,35.7,1.04,12.14,-11.2,15.47,-63.45,84.85,5.43,13.19,-15.13,14.9,-59.89,81.75,18.35,10.65,-7.44,0.1607,0.1248,-0.353,0.0298,0.6752,-0.8965,0.4421,-0.699,0.3928,0.1551,0.6944,-0.9427,0.4258,-0.6343,0.3884,0.5243,0.6482,-0.8522,0.0,0.006,0.013,0.006,0.006,0.013,0.0,0.0,0.019,0.006,0.006,0.006,0.006,0.013,0.006,0.006,0.0,0.006,0.092,-0.4126,0.7332,-0.0322,0.181,-0.1457,0.2761,-1.1305,1.2901,0.1289,0.204,-0.2454,0.2516,-1.0446,1.2625,0.316,0.1795,-0.1841,0.0362,0.213,-0.2464,0.1423,0.1673,-0.2232,0.0125,-0.0402,0.3097,-0.1277,0.1302,-0.1843,0.0641,-0.0747,0.3099,0.0304,0.0059,0.1264,-0.0034,-0.0022,0.0061,0.0119,0.03,0.158,0.1013,-0.3306,0.0069,0.6653,-0.8895,0.4459,-0.7122,0.3912,0.1767,0.6869,-0.9389,0.4231,-0.6412,0.3807,0.5235,0.6472,-0.8651,0.0,0.0,0.0,0.0,0.0,0.0,0.0,0.0,0.0,
2.32,run,0.38,3.53,-0.29,-0.28,-0.49,0.0,0.0,0.0,0.052,5.54,-21.01,39.46,-0.35,11.43,-10.11,15.73,-64.16,77.17,6.15,12.74,-14.85,14.77,-59.68,75.5,18.28,10.46,-8.96,5.76,-16.77,34.2,1.82,12.47,-11.91,15.32,-62.98,86.35,4.76,13.45,-15.52,15.09,-59.92,83.25,18.45,10.58,-6.63,0.1646,0.1496,-0.3736,0.0519,0.6813,-0.9048,0.4378,-0.6905,0.3988,0.1361,0.6991,-0.9473,0.4311,-0.6349,0.3953,0.5271,0.6469,-0.8427,0.0,0.006,0.013,0.006,0.006,0.013,0.0,0.0,0.019,0.006,0.006,0.006,0.006,0.013,0.006,0.006,0.0,0.006,0.0936,-0.3912,0.7087,-0.0199,0.1917,-0.1626,0.2761,-1.1244,1.3146,0.1181,0.2117,-0.2546,0.2546,-1.0446,1.2885,0.3175,0.1795,-0.1718,0.0311,0.2299,-0.2647,0.1457,0.1575,-0.2197,0.0088,-0.0051,0.309,-0.1297,0.1199,-0.1636,0.0564,-0.0523,0.3149,0.027,0.0041,0.1346,-0.0053,-0.0023,-0.0029,-0.0051,-0.0086,0.1607,0.1248,-0.353,0.0298,0.6752,-0.8965,0.4421,-0.699,0.3928,0.1551,0.6944,-0.9427,0.4258,-0.6343,0.3884,0.5243,0.6482,-0.8522,0.0,0.0,0.0,0.0,0.0,0.0,0.0,0.0,0.0,
2.36,run,0.39,3.5,-0.06,-0.14,0.32,0.0,0.0,0.0,0.052,5.62,-19.78,38.06,0.35,11.95,-10.9,15.73,-63.54,78.57,5.45,13.1,-15.29,14.85,-59.68,76.9,18.37,10.46,-8.09,5.86,-15.53,32.7,2.53,12.82,-12.5,15.2,-62.36,87.85,4.13,13.77,-15.87,15.23,-59.7,84.75,18.5,10.53,-5.73,0.1675,0.1722,-0.3938,0.0724,0.6877,-0.9118,0.4343,-0.6792,0.4024,0.118,0.7049,-0.9514,0.4352,-0.6309,0.4015,0.5287,0.646,-0.8321,0.006,0.006,0.013,0.019,0.006,0.013,0.006,0.006,0.019,0.006,0.006,0.006,0.006,0.0,0.013,0.006,0.0,0.006,0.0966,-0.3728,0.6857,-0.0077,0.1994,-0.1779,0.2761,-1.1229,1.3392,0.1058,0.2178,-0.2623,0.2577,-1.0446,1.3131,0.3206,0.1795,-0.1611,0.0332,0.2295,-0.271,0.1477,0.1388,-0.2109,0.0061,0.0021,0.3077,-0.1365,0.1068,-0.1431,0.0509,-0.0366,0.3119,0.0303,0.0029,0.1342,-0.0048,-0.0036,-0.0051,-0.0049,-0.0086,0.1646,0.1496,-0.3736,0.0519,0.6813,-0.9048,0.4378,-0.6905,0.3988,0.1361,0.6991,-0.9473,0.4311,-0.6349,0.3953,0.5271,0.6469,-0.8427,0.0,0.0,0.0,0.0,0.0,0.0,0.0,0.0,0.0,
2.4,run,0.43,3.52,0.6,0.34,-0.11,0.0,0.0,0.0,0.052,5.89,-18.37,36.39,1.32,12.48,-11.87,15.38,-62.84,80.24,4.66,13.45,-15.82,15.12,-59.5,78.66,18.46,10.46,-7.12,5.99,-14.1,31.2,3.33,13.2,-12.91,14.99,-61.54,89.35,3.44,14.07,-16.12,15.31,-59.41,86.25,18.51,10.46,-4.69,0.1711,0.1982,-0.4172,0.0951,0.6946,-0.9166,0.4282,-0.6644,0.4039,0.0984,0.7104,-0.9544,0.4374,-0.6256,0.406,0.5289,0.6448,-0.8198,0.006,0.006,0.013,0.019,0.006,0.013,0.006,0.006,0.019,0.006,0.006,0.006,0.006,0.0,0.013,0.006,0.0,0.006,0.0982,-0.3513,0.6611,0.0046,0.2086,-0.1917,0.2761,-1.1121,1.3637,0.0936,0.224,-0.27,0.2592,-1.0446,1.3376,0.3221,0.1795,-0.1457,0.029,0.2413,-0.2818,0.1495,0.1317,-0.1995,0.0043,0.0418,0.3076,-0.1416,0.0978,-0.129,0.0414,-0.0256,0.3105,0.027,0.002,0.1515,-0.004,-0.0059,-0.0011,-0.0025,0.0055,0.1675,0.1722,-0.3938,0.0724,0.6877,-0.9118,0.4343,-0.6792,0.4024,0.118,0.7049,-0.9514,0.4352,-0.6309,0.4015,0.5287,0.646,-0.8321,0.0,0.0,0.0,0.0,0.0,0.0,0.0,0.0,0.0,
2.44,run,0.45,3.53,0.14,-0.1,0.46,0.0,0.0,0.0,0.052,5.71,-17.14,35.07,1.93,12.74,-12.3,15.38,-62.31,81.65,4.22,13.8,-15.91,15.03,-59.33,80.07,18.46,10.46,-6.42,6.1,-12.6,29.7,4.21,13.64,-13.51,14.7,-60.7,90.85,2.74,14.34,-16.46,15.42,-59.23,87.75,18.55,10.39,-3.62,0.1744,0.2284,-0.4436,0.1204,0.7026,-0.9237,0.4201,-0.649,0.4062,0.0782,0.7152,-0.9583,0.4405,-0.6224,0.411,0.5299,0.6434,-0.8073,0.006,0.006,0.013,0.019,0.006,0.013,0.006,0.006,0.019,0.006,0.006,0.006,0.006,0.0,0.013,0.006,0.0,0.006,0.1028,-0.3267,0.632,0.0215,0.2178,-0.2086,0.27,-1.0999,1.3929,0.0798,0.2301,-0.2792,0.2638,-1.0416,1.3683,0.3237,0.1795,-0.1289,0.0348,0.2461,-0.289,0.1577,0.1211,-0.1927,-0.0163,0.0679,0.307,-0.1426,0.0878,-0.1192,0.0434,-0.0083,0.3138,0.0237,0.0014,0.1592,-0.0001,-0.0039,0.0105,0.0059,-0.002,0.1711,0.1982,-0.4172,0.0951,0.6946,-0.9166,0.4282,-0.6644,0.4039,0.0984,0.7104,-0.9544,0.4374,-0.6256,0.406,0.5289,0.6448,-0.8198,0.0,0.0,0.0,0.0,0.0,0.0,0.0,0.0,0.0,
2.48,run,0.42,3.51,-0.3,-0.06,-0.72,0.0,0.0,0.0,0.052,6.06,-16.0,33.84,2.64,13.1,-13.01,15.03,-61.7,83.14,3.6,13.97,-16.26,15.29,-59.06,81.47,18.46,10.46,-5.62,6.21,-11.21,28.2,4.91,13.85,-13.81,14.51,-59.78,92.35,2.16,14.53,-16.66,15.48,-58.85,89.25,18.51,10.21,-2.62,0.1775,0.2507,-0.4657,0.1403,0.7065,-0.9271,0.4147,-0.6324,0.4075,0.0617,0.7188,-0.9607,0.4424,-0.6154,0.4144,0.5288,0.6401,-0.7955,0.013,0.006,0.013,0.013,0.0,0.0,0.0,0.013,0.019,0.013,0.0,0.0,0.013,0.0,0.013,0.0,0.006,0.006,0.0997,-0.3053,0.609,0.0322,0.2224,-0.2163,0.27,-1.0907,1.4174,0.0721,0.2362,-0.2807,0.2623,-1.0385,1.3929,0.3237,0.1795,-0.1166,0.013,0.252,-0.2877,0.1503,0.1019,-0.1634,-0.0114,0.0817,0.306,-0.1283,0.0842,-0.0892,0.0247,0.0056,0.3108,0.0166,0.001,0.157,0.0014,-0.0035,0.0024,-0.0018,0.008,0.1744,0.2284,-0.4436,0.1204,0.7026,-0.9237,0.4201,-0.649,0.4062,0.0782,0.7152,-0.9583,0.4405,-0.6224,0.411,0.5299,0.6434,-0.8073,0.0,0.0,0.0,0.0,0.0,0.0,0.0,0.0,0.0,
2.52,run,0.44,3.49,0.3,0.03,-0.26,0.0,0.0,0.0,0.052,6.24,-14.68,32.34,3.43,13.54,-13.54,14.68,-60.82,84.46,2.81,14.33,-16.61,15.29,-58.97,82.88,18.46,10.46,-4.66,6.33,-9.85,26.7,5.57,14.11,-14.12,14.27,-59.02,93.85,1.68,14.68,-16.87,15.55,-58.71,90.75,18.52,10.06,-1.69,0.1809,0.2755,-0.4853,0.1592,0.7111,-0.9309,0.4077,-0.6185,0.4101,0.0479,0.7214,-0.9632,0.4442,-0.6129,0.4175,0.5292,0.6374,-0.7845,0.013,0.006,0.013,0.013,0.0,0.0,0.0,0.013,0.019,0.013,0.0,0.0,0.013,0.0,0.013,0.0,0.006,0.006,0.1058,-0.2853,0.5875,0.0445,0.2286,-0.2286,0.2638,-1.0799,1.4435,0.0614,0.2393,-0.2869,0.2669,-1.0339,1.4174,0.3237,0.1795,-0.1028,0.0321,0.2513,-0.282,0.1513,0.0944,-0.1604,-0.031,0.0975,0.3121,-0.1301,0.0705,-0.0854,0.0346,0.0212,0.3097,0.0116,0.0007,0.1617,-0.0009,-0.0049,-0.0053,-0.0011,-0.0126,0.1775,0.2507,-0.4657,0.1403,0.7065,-0.9271,0.4147,-0.6324,0.4075,0.0617,0.7188,-0.9607,0.4424,-0.6154,0.4144,0.5288,0.6401,-0.7955,0.0,0.0,0.0,0.0,0.0,0.0,0.0,0.0,0.0,
2.56,run,0.41,3.46,-0.74,-0.38,-0.31,0.0,0.0,0.0,0.052,6.33,-13.36,30.94,4.13,13.8,-13.89,14.5,-60.03,85.87,2.29,14.5,-16.7,15.29,-58.71,84.29,18.46,10.28,-3.69,6.43,-8.44,25.2,6.29,14.43,-14.22,13.95,-58.01,95.35,1.18,14.85,-17.01,15.54,-58.34,92.25,18.47,9.84,-0.54,0.1838,0.3011,-0.5091,0.1797,0.7169,-0.932,0.3985,-0.6002,0.4102,0.0336,0.7246,-0.9649,0.4441,-0.6062,0.4199,0.5277,0.6335,-0.7711,0.013,0.006,0.013,0.013,0.0,0.0,0.0,0.013,0.019,0.013,0.0,0.0,0.013,0.0,0.013,0.0,0.006,0.006,0.1089,-0.2623,0.5614,0.0583,0.2362,-0.2378,0.2577,-1.0646,1.4665,0.0476,0.2454,-0.293,0.2669,-1.0324,1.4419,0.3237,0.1795,-0.0859,0.034,0.2626,-0.2957,0.1579,0.095,-0.147,-0.0448,0.1261,0.3052,-0.1431,0.0725,-0.0829,0.0242,0.0206,0.3093,0.0081,0.0005,0.1768,0.0011,-0.0067,0.0052,0.0005,-0.0046,0.1809,0.2755,-0.4853,0.1592,0.7111,-0.9309,0.4077,-0.6185,0.4101,0.0479,0.7214,-0.9632,0.4442,-0.6129,0.4175,0.5292,0.6374,-0.7845,0.0,0.0,0.0,0.0,0.0,0.0,0.0,0.0,0.0,
2.6,run,0.41,3.43,0.05,0.19,-0.78,0.0,0.0,0.0,0.052,6.24,-12.04,29.44,4.92,14.15,-14.15,14.24,-59.15,87.36,1.58,14.68,-16.96,15.47,-58.54,85.78,18.46,10.11,-2.72,6.54,-7.13,23.7,6.94,14.61,-14.36,13.68,-56.99,96.85,0.71,14.97,-17.09,15.56,-57.97,93.75,18.39,9.55,0.51,0.1868,0.3249,-0.5304,0.1983,0.7202,-0.9337,0.391,-0.5816,0.4108,0.0204,0.7267,-0.9658,0.4446,-0.5994,0.4217,0.5254,0.6283,-0.7587,0.006,0.006,0.013,0.013,0.0,0.013,0.006,0.006,0.019,0.006,0.006,0.0,0.006,0.0,0.013,0.0,0.006,0.006,0.1104,-0.2393,0.5369,0.0706,0.2408,-0.2439,0.2546,-1.0508,1.491,0.0383,0.2485,-0.2945,0.2669,-1.0278,1.4665,0.3237,0.1764,-0.069,0.0296,0.2697,-0.2986,0.1564,0.0837,-0.1258,-0.0428,0.1398,0.3053,-0.1345,0.0622,-0.0638,0.0169,0.0316,0.3081,0.0057,-0.0111,0.1868,-0.0019,-0.0094,-0.0129,-0.0066,-0.0054,0.1838,0.3011,-0.5091,0.1797,0.7169,-0.932,0.3985,-0.6002,0.4102,0.0336,0.7246,-0.9649,0.4441,-0.6062,0.4199,0.5277,0.6335,-0.7711,0.0,0.0,0.0,0.0,0.0,0.0,0.0,0.0,0.0,
2.64,run,0.39,3.4,-0.65,-0.56,-0.09,0.0,0.0,0.0,0.052,6.24,-10.63,28.12,5.62,14.41,-14.15,13.97,-58.27,88.68,1.05,14.85,-16.96,15.38,-58.1,87.19,18.46,9.93,-1.67,6.63,-5.82,22.2,7.56,14.85,-14.55,13.36,-56.06,98.35,0.3,15.07,-17.18,15.56,-57.78,95.25,18.31,9.32,1.35,0.1895,0.3487,-0.5514,0.2159,0.7245,-0.9359,0.3819,-0.5646,0.4093,0.0085,0.7285,-0.9669,0.4445,-0.5959,0.4219,0.5231,0.6239,-0.7488,0.006,0.006,0.013,0.013,0.0,0.013,0.006,0.006,0.019,0.006,0.006,0.0,0.006,0.0,0.013,0.0,0.006,0.006,0.1089,-0.2163,0.5108,0.0844,0.247,-0.2485,0.25,-1.0354,1.5171,0.0261,0.2516,-0.2991,0.27,-1.0247,1.4926,0.3237,0.1733,-0.0522,0.015,0.2745,-0.3062,0.1609,0.0814,-0.1052,-0.0471,0.155,0.3108,-0.1399,0.055,-0.0618,0.0233,0.0336,0.3128,0.004,-0.0192,0.1936,-0.0018,-0.0116,0.0009,0.0033,-0.0135,0.1868,0.3249,-0.5304,0.1983,0.7202,-0.9337,0.391,-0.5816,0.4108,0.0204,0.7267,-0.9658,0.4446,-0.5994,0.4217,0.5254,0.6283,-0.7587,0.0,0.0,0.0,0.0,0.0,0.0,0.0,0.0,0.0,
2.68,run,0.42,3.42,0.76,0.63,-0.5,0.0,0.0,0.0,0.052,6.59,-9.32,26.54,6.33,14.59,-14.33,13.71,-57.3,90.18,0.62,14.94,-17.14,15.47,-57.92,88.68,18.46,9.76,-0.7,6.69,-4.73,20.7,8.15,14.89,-14.41,13.08,-54.99,99.64,-0.05,15.05,-17.13,15.55,-57.36,96.75,18.17,8.91,2.28,0.191,0.3685,-0.5721,0.2327,0.7253,-0.9342,0.3737,-0.5454,0.4075,-0.0015,0.7283,-0.9662,0.4443,-0.5883,0.4222,0.5192,0.6165,-0.7378,0.006,0.006,0.013,0.013,0.0,0.013,0.006,0.006,0.019,0.006,0.006,0.0,0.006,0.0,0.013,0.0,0.006,0.006,0.1089,-0.1917,0.4878,0.0966,0.2516,-0.2485,0.2454,-1.0201,1.5401,0.0169,0.2546,-0.2991,0.2684,-1.017,1.5171,0.3237,0.1703,-0.0337,0.0105,0.2847,-0.3011,0.1589,0.0743,-0.0736,-0.0503,0.1663,0.3043,-0.1326,0.05,-0.0433,0.0105,0.0524,0.3115,0.0028,-0.025,0.2049,-0.0035,-0.0144,-0.0113,-0.0098,-0.0016,0.1895,0.3487,-0.5514,0.2159,0.7245,-0.9359,0.3819,-0.5646,0.4093,0.0085,0.7285,-0.9669,0.4445,-0.5959,0.4219,0.5231,0.6239,-0.7488,0.0,0.0,0.0,0.0,0.0,0.0,0.0,0.0,0.0,
2.72,run,0.39,3.41,-0.87,-0.45,1.01,0.0,0.0,0.0,0.052,6.59,-8.0,25.22,6.94,14.68,-14.5,13.36,-56.43,91.58,0.09,14.94,-17.14,15.38,-57.48,90.09,18.19,9.49,0.0,6.7,-3.62,19.2,8.66,14.95,-14.45,12.73,-54.04,99.37,-0.29,14.95,-17.01,15.52,-57.12,98.25,18.05,8.52,2.89,0.1915,0.3887,-0.5908,0.2474,0.7264,-0.9347,0.3638,-0.5281,0.4043,-0.0084,0.7264,-0.9648,0.4433,-0.5839,0.4213,0.5156,0.6094,-0.7308,0.0,0.006,0.006,0.013,0.0,0.0,0.006,0.006,0.019,0.0,0.0,0.0,0.006,0.006,0.006,0.006,0.019,0.013,0.115,-0.1687,0.4602,0.1089,0.2546,-0.2516,0.2408,-1.0032,1.5662,0.0092,0.2562,-0.3022,0.27,-1.014,1.5432,0.3237,0.1672,-0.0169,0.0288,0.2799,-0.3075,0.1542,0.0628,-0.0623,-0.0514,0.1756,0.3044,-0.1197,0.0404,-0.041,0.0127,0.0474,0.3095,0.002,-0.0283,0.2026,-0.001,-0.013,0.0133,0.011,-0.0087,0.191,0.3685,-0.5721,0.2327,0.7253,-0.9342,0.3737,-0.5454,0.4075,-0.0015,0.7283,-0.9662,0.4443,-0.5883,0.4222,0.5192,0.6165,-0.7378,0.0,0.0,0.0,0.0,0.0,0.0,0.0,0.0,0.0,
2.76,run,0.42,3.42,0.37,-0.03,-1.17,0.0,0.0,0.0,0.052,6.68,-6.77,23.82,7.56,14.85,-14.33,13.1,-55.46,92.99,-0.18,14.94,-17.14,15.47,-57.3,91.41,18.11,9.23,1.14,6.74,-2.68,17.7,9.13,14.95,-14.39,12.51,-53.07,99.41,-0.54,14.83,-16.86,15.49,-56.81,99.75,17.89,8.1,3.75,0.1926,0.4058,-0.6073,0.2609,0.7265,-0.9339,0.3574,-0.5104,0.4048,-0.0154,0.7243,-0.963,0.4427,-0.5783,0.4216,0.5111,0.6017,-0.7205,0.0,0.006,0.006,0.013,0.0,0.0,0.006,0.006,0.019,0.0,0.0,0.0,0.006,0.006,0.006,0.006,0.019,0.013,0.115,-0.1457,0.4372,0.1197,0.2562,-0.2546,0.2347,-0.9879,1.5907,0.0,0.2562,-0.3022,0.2684,-1.0063,1.5677,0.3191,0.1626,-0.0046,0.0202,0.289,-0.3083,0.1514,0.0502,-0.056,-0.0608,0.1849,0.3123,-0.121,0.0283,-0.0287,0.0027,0.0642,0.3158,-0.0172,-0.0384,0.1914,-0.0039,-0.0133,-0.0152,-0.0078,0.0176,0.1915,0.3887,-0.5908,0.2474,0.7264,-0.9347,0.3638,-0.5281,0.4043,-0.0084,0.7264,-0.9648,0.4433,-0.5839,0.4213,0.5156,0.6094,-0.7308,0.0,0.0,0.0,0.0,0.0,0.0,0.0,0.0,0.0,
2.8,run,0.39,3.4,-0.45,-0.28,0.48,0.0,0.0,0.0,0.052,6.68,-5.54,22.5,8.17,14.85,-14.33,12.74,-54.58,94.39,-0.26,14.94,-17.05,15.38,-56.95,92.9,17.93,8.88,2.02,6.72,-1.89,16.2,9.52,14.82,-14.34,12.19,-52.39,98.91,-0.68,14.59,-16.63,15.49,-56.77,100.57,17.75,7.66,3.99,0.1919,0.4202,-0.6216,0.2721,0.7241,-0.9335,0.3483,-0.498,0.399,-0.0196,0.7198,-0.9603,0.4425,-0.5776,0.4185,0.507,0.5939,-0.7178,0.0,0.006,0.006,0.013,0.0,0.0,0.006,0.006,0.019,0.0,0.0,0.0,0.006,0.006,0.006,0.006,0.019,0.013,0.1166,-0.1243,0.4126,0.1304,0.2592,-0.2516,0.2301,-0.971,1.6153,-0.0046,0.2562,-0.3022,0.27,-1.0032,1.5907,0.3175,0.158,0.0153,0.0199,0.2829,-0.308,0.1463,0.0466,-0.0277,-0.0598,0.1928,0.3108,-0.102,0.0198,-0.0201,0.0077,0.0565,0.3075,-0.0178,-0.0442,0.2089,-0.0007,-0.0132,0.0065,-0.0006,-0.0205,0.1926,0.4058,-0.6073,0.2609,0.7265,-0.9339,0.3574,-0.5104,0.4048,-0.0154,0.7243,-0.963,0.4427,-0.5783,0.4216,0.5111,0.6017,-0.7205,0.0,0.0,0.0,0.0,0.0,0.0,0.0,0.0,0.0,
2.84,run,0.39,3.4,0.15,0.15,-0.59,0.0,0.0,0.0,0.052,6.68,-4.31,21.01,8.61,14.85,-14.33,12.48,-53.61,95.71,-0.62,14.94,-16.88,15.38,-56.87,94.31,17.84,8.53,2.9,6.69,-1.2,14.7,9.91,14.68,-14.17,11.97,-51.51,98.71,-0.83,14.32,-16.26,15.45,-56.52,100.42,17.5,7.09,4.5,0.191,0.4327,-0.6353,0.283,0.7215,-0.9314,0.3419,-0.4819,0.3965,-0.0236,0.7148,-0.956,0.4414,-0.5731,0.4168,0.5,0.5834,-0.7118,0.0,0.006,0.013,0.006,0.0,0.0,0.006,0.006,0.006,0.006,0.013,0.0,0.0,0.0,0.019,0.013,0.013,0.006,0.1166,-0.1028,0.3896,0.1411,0.2592,-0.2516,0.224,-0.9557,1.6398,-0.0061,0.2562,-0.3007,0.2684,-0.9971,1.6168,0.3145,0.1519,0.0307,0.0139,0.2785,-0.3018,0.1426,0.0326,-0.0194,-0.0649,0.1925,0.3095,-0.0771,0.0139,-0.0083,-0.0004,0.0625,0.313,-0.024,-0.0539,0.2037,-0.0033,-0.0149,-0.0078,-0.0049,0.0084,0.1919,0.4202,-0.6216,0.2721,0.7241,-0.9335,0.3483,-0.498,0.399,-0.0196,0.7198,-0.9603,0.4425,-0.5776,0.4185,0.507,0.5939,-0.7178,0.0,0.0,0.0,0.0,0.0,0.0,0.0,0.0,0.0,
2.88,run,0.38,3.39,-0.36,-0.26,0.4,0.0,0.0,0.0,0.052,6.68,-3.25,19.6,9.14,14.85,-14.33,12.22,-52.73,96.77,-0.79,14.85,-16.35,15.38,-56.69,95.8,17.49,8.0,3.52,6.63,-0.52,13.2,10.22,14.5,-14.09,11.69,-50.82,98.3,-0.93,14.0,-15.9,15.42,-56.45,100.08,17.29,6.58,4.76,0.1893,0.445,-0.6471,0.2921,0.7182,-0.9305,0.3341,-0.4695,0.3917,-0.0265,0.7091,-0.9518,0.4405,-0.5719,0.4127,0.494,0.5742,-0.7087,0.0,0.006,0.013,0.006,0.0,0.0,0.006,0.006,0.006,0.006,0.013,0.0,0.0,0.0,0.019,0.013,0.013,0.006,0.1166,-0.0813,0.3636,0.1488,0.2592,-0.2516,0.2194,-0.9388,1.6628,-0.0123,0.2562,-0.2976,0.2684,-0.9956,1.6414,0.3129,0.1457,0.046,0.0097,0.2757,-0.3093,0.1287,0.0229,-0.0136,-0.0627,0.1982,0.3032,-0.0771,0.0097,0.0057,-0.0003,0.0495,0.3114,-0.0225,-0.0608,0.2003,-0.004,-0.0144,0.0027,0.0026,-0.0102,0.191,0.4327,-0.6353,0.283,0.7215,-0.9314,0.3419,-0.4819,0.3965,-0.0236,0.7148,-0.956,0.4414,-0.5731,0.4168,0.5,0.5834,-0.7118,0.0,0.0,0.0,0.0,0.0,0.0,0.0,0.0,0.0,
2.92,run,0.4,3.39,0.21,0.01,-0.64,0.0,0.0,0.0,0.052,6.68,-2.29,18.11,9.49,14.85,-14.15,11.95,-51.94,97.56,-0.7,14.68,-16.26,15.38,-56.51,97.21,17.4,7.56,4.13,6.56,-0.01,11.7,10.52,14.25,-14.02,11.49,-50.06,97.95,-0.99,13.65,-15.56,15.4,-56.3,99.84,17.05,5.94,5.05,0.1874,0.4544,-0.6587,0.3006,0.7136,-0.9297,0.3282,-0.4556,0.3876,-0.0284,0.7027,-0.9478,0.44,-0.5691,0.4099,0.4872,0.5626,-0.7053,0.0,0.006,0.013,0.006,0.0,0.0,0.006,0.006,0.006,0.006,0.013,0.0,0.0,0.0,0.019,0.013,0.013,0.006,0.1166,-0.0629,0.339,0.158,0.2592,-0.2516,0.2148,-0.9235,1.6812,-0.0153,0.2546,-0.2884,0.2684,-0.9925,1.6674,0.3068,0.1365,0.0568,0.0068,0.262,-0.3086,0.1246,0.016,-0.0095,-0.0612,0.1962,0.2813,-0.0655,0.001,0.0385,-0.0002,0.0462,0.3157,-0.0388,-0.0771,0.1805,-0.0043,-0.0156,-0.0063,-0.0045,0.007,0.1893,0.445,-0.6471,0.2921,0.7182,-0.9305,0.3341,-0.4695,0.3917,-0.0265,0.7091,-0.9518,0.4405,-0.5719,0.4127,0.494,0.5742,-0.7087,0.0,0.0,0.0,0.0,0.0,0.0,0.0,0.0,0.0,
2.96,run,0.4,3.39,-0.28,-0.09,1.05,0.0,0.0,0.0,0.052,6.68,-1.41,16.79,9.84,14.85,-14.15,11.69,-51.06,98.17,-0.88,14.24,-15.73,15.38,-56.34,98.35,17.05,7.03,4.83,6.45,0.43,10.2,10.74,13.93,-14.0,11.29,-49.52,97.36,-1.01,13.25,-15.16,15.42,-56.31,99.51,16.83,5.31,5.01,0.1842,0.4624,-0.668,0.3069,0.7078,-0.9295,0.3225,-0.4458,0.3807,-0.0288,0.6955,-0.9431,0.4405,-0.5693,0.406,0.4808,0.5511,-0.7058,0.006,0.0,0.013,0.013,0.013,0.006,0.006,0.006,0.0,0.0,0.013,0.013,0.0,0.0,0.013,0.006,0.019,0.0,0.1166,-0.046,0.3129,0.1641,0.2592,-0.2485,0.2102,-0.9097,1.695,-0.0138,0.2516,-0.2869,0.2684,-0.9894,1.692,0.3053,0.1289,0.0675,0.0048,0.2463,-0.3132,0.1101,0.0112,0.0048,-0.06,0.1888,0.2483,-0.0401,-0.0107,0.0327,-0.0001,0.0438,0.3125,-0.0329,-0.0825,0.1663,-0.0029,-0.0154,0.0037,0.0002,-0.0111,0.1874,0.4544,-0.6587,0.3006,0.7136,-0.9297,0.3282,-0.4556,0.3876,-0.0284,0.7027,-0.9478,0.44,-0.5691,0.4099,0.4872,0.5626,-0.7053,0.0,0.0,0.0,0.0,0.0,0.0,0.0,0.0,0.0,
3.0,run,0.4,3.4,0.23,0.07,-0.88,0.0,0.0,0.0,0.052,6.42,-0.62,15.38,10.2,14.5,-14.06,11.43,-50.27,98.35,-0.88,13.89,-15.47,15.38,-56.25,99.23,16.96,6.5,4.92,6.38,0.83,8.7,10.97,13.61,-13.77,11.11,-48.76,96.85,-1.02,12.86,-14.67,15.4,-56.1,99.18,16.58,4.7,5.26,0.1821,0.4696,-0.6769,0.3133,0.702,-0.9267,0.3174,-0.432,0.3748,-0.0292,0.6884,-0.9373,0.44,-0.5655,0.4021,0.4736,0.5399,-0.7028,0.006,0.0,0.013,0.013,0.013,0.006,0.006,0.006,0.0,0.0,0.013,0.013,0.0,0.0,0.013,0.006,0.019,0.0,0.1166,-0.0307,0.2899,0.1703,0.2592,-0.2485,0.2056,-0.8943,1.7058,-0.0169,0.2439,-0.2777,0.2684,-0.9863,1.7119,0.2991,0.1197,0.0798,0.0033,0.23,-0.3056,0.1001,0.0078,0.0034,-0.0592,0.1897,0.2141,-0.0396,-0.0363,0.0574,-0.0001,0.0421,0.2936,-0.046,-0.0923,0.1625,-0.0026,-0.0151,-0.0049,-0.0015,0.0183,0.1842,0.4624,-0.668,0.3069,0.7078,-0.9295,0.3225,-0.4458,0.3807,-0.0288,0.6955,-0.9431,0.4405,-0.5693,0.406,0.4808,0.5511,-0.7058,0.0,0.0,0.0,0.0,0.0,0.0,0.0,0.0,0.0,
3.04,run,0.37,3.38,-0.5,-0.24,0.63,0.0,0.0,0.0,0.052,6.42,0.0,13.89,10.46,14.24,-13.97,11.25,-49.66,98.26,-0.97,13.54,-14.94,15.38,-56.16,99.76,16.61,5.89,4.92,6.25,1.11,7.2,11.07,13.32,-14.01,10.98,-48.43,96.31,-1.03,12.55,-14.37,15.44,-56.22,98.65,16.43,4.23,5.23,0.1785,0.4747,-0.6817,0.3161,0.6966,-0.9295,0.3136,-0.426,0.3684,-0.0293,0.6827,-0.9338,0.4411,-0.5676,0.3959,0.4694,0.5315,-0.7032,0.006,0.0,0.013,0.013,0.013,0.006,0.006,0.006,0.0,0.0,0.013,0.013,0.0,0.0,0.013,0.006,0.019,0.0,0.112,-0.0169,0.2654,0.1764,0.2531,-0.247,0.201,-0.8805,1.7089,-0.0169,0.2378,-0.273,0.2684,-0.9848,1.7273,0.2976,0.1104,0.0813,-0.0149,0.2128,-0.3061,0.0931,-0.0176,0.0081,-0.0587,0.1847,0.1614,-0.0277,-0.0484,0.0575,-0.0001,0.0353,0.2631,-0.038,-0.0992,0.1195,-0.0024,-0.0149,0.004,0.0013,-0.0154,0.1821,0.4696,-0.6769,0.3133,0.702,-0.9267,0.3174,-0.432,0.3748,-0.0292,0.6884,-0.9373,0.44,-0.5655,0.4021,0.4736,0.5399,-0.7028,0.0,0.0,0.0,0.0,0.0,0.0,0.0,0.0,0.0,
3.08,run,0.37,3.38,-0.09,-0.1,-0.59,0.0,0.0,0.0,0.052,6.33,0.62,12.48,10.63,13.97,-13.97,11.16,-48.96,97.73,-0.97,13.18,-14.59,15.38,-56.16,99.93,16.52,5.36,5.19,6.15,1.25,6.66,11.16,13.0,-13.99,10.89,-47.86,95.9,-1.01,12.28,-14.07,15.45,-56.01,98.37,16.25,3.67,5.52,0.1756,0.4773,-0.6864,0.319,0.6909,-0.9293,0.3113,-0.4156,0.3635,-0.0289,0.6778,-0.9302,0.4414,-0.5638,0.3926,0.4642,0.5212,-0.6998,0.0,0.0,0.013,0.013,0.013,0.0,0.006,0.006,0.013,0.0,0.013,0.006,0.0,0.006,0.006,0.006,0.013,0.0,0.112,-0.0061,0.2393,0.181,0.2485,-0.2454,0.1979,-0.8698,1.7073,-0.0184,0.2316,-0.2638,0.2684,-0.9833,1.7365,0.2915,0.0997,0.0813,-0.0105,0.1892,-0.3119,0.0824,-0.0295,0.0114,-0.0526,0.1695,0.1072,-0.0251,-0.0569,0.0747,-0.0,0.0304,0.2187,-0.0496,-0.1097,0.0837,-0.0057,-0.0164,-0.0086,-0.0042,0.011,0.1785,0.4747,-0.6817,0.3161,0.6966,-0.9295,0.3136,-0.426,0.3684,-0.0293,0.6827,-0.9338,0.4411,-0.5676,0.3959,0.4694,0.5315,-0.7032,0.0,0.0,0.0,0.0,0.0,0.0,0.0,0.0,0.0,
3.12,run,0.39,3.37,-0.28,-0.16,0.63,0.0,0.0,0.0,0.052,5.98,0.97,11.07,10.81,13.62,-13.97,11.07,-48.34,97.47,-0.97,12.83,-14.24,15.38,-56.25,99.93,16.26,4.75,5.19,6.04,1.36,6.38,11.19,12.67,-13.91,10.76,-47.52,95.24,-0.98,11.99,-13.76,15.47,-55.93,97.83,16.1,3.23,5.5,0.1725,0.4793,-0.6896,0.3198,0.6848,-0.9284,0.3075,-0.4095,0.3558,-0.028,0.6725,-0.9265,0.4421,-0.5623,0.3863,0.46,0.5134,-0.7,0.0,0.0,0.013,0.013,0.013,0.0,0.006,0.006,0.013,0.0,0.013,0.006,0.0,0.006,0.006,0.006,0.013,0.0,0.1104,0.0046,0.2148,0.1841,0.2439,-0.2454,0.1963,-0.8575,1.6981,-0.0184,0.2255,-0.2577,0.2684,-0.9833,1.7395,0.2899,0.0905,0.0859,-0.0131,0.1729,-0.3108,0.0692,-0.038,0.008,-0.0426,0.1648,0.0404,-0.0176,-0.0629,0.0754,-0.0,0.0213,0.1646,-0.0405,-0.1114,0.0759,-0.0052,-0.0161,-0.0016,-0.0018,-0.0103,0.1756,0.4773,-0.6864,0.319,0.6909,-0.9293,0.3113,-0.4156,0.3635,-0.0289,0.6778,-0.9302,0.4414,-0.5638,0.3926,0.4642,0.5212,-0.6998,0.0,0.0,0.0,0.0,0.0,0.0,0.0,0.0,0.0,
3.16,run,0.43,3.37,0.5,0.26,-0.39,0.0,0.0,0.0,0.052,5.98,1.23,9.67,10.81,13.36,-13.97,10.99,-47.81,96.68,-0.97,12.74,-13.97,15.38,-55.9,99.05,16.17,4.22,5.36,5.98,1.4,6.12,11.22,12.42,-13.93,10.71,-47.11,94.71,-0.97,11.79,-13.53,15.46,-55.81,97.38,15.94,2.84,5.63,0.1709,0.48,-0.6927,0.3206,0.6803,-0.9286,0.3059,-0.4021,0.3496,-0.0276,0.6689,-0.9239,0.4416,-0.5602,0.381,0.4555,0.5062,-0.6985,0.0,0.0,0.013,0.013,0.013,0.0,0.006,0.006,0.013,0.0,0.013,0.006,0.0,0.006,0.006,0.006,0.013,0.0,0.1043,0.0107,0.1902,0.1871,0.2378,-0.2454,0.1948,-0.8468,1.6935,-0.0184,0.2194,-0.2516,0.2684,-0.9848,1.7395,0.2853,0.0798,0.0859,-0.0322,0.1441,-0.3097,0.06,-0.0496,0.0056,-0.0356,0.1557,0.011,-0.0123,-0.0671,0.0758,-0.0,0.0091,0.1152,-0.0456,-0.1183,0.0531,-0.0033,-0.0172,-0.0049,-0.0027,0.011,0.1725,0.4793,-0.6896,0.3198,0.6848,-0.9284,0.3075,-0.4095,0.3558,-0.028,0.6725,-0.9265,0.4421,-0.5623,0.3863,0.46,0.5134,-0.7,0.0,0.0,0.0,0.0,0.0,0.0,0.0,0.0,0.0,
3.2,run,0.42,3.37,-0.36,0.03,1.06,0.0,0.0,0.0,0.052,5.98,1.32,8.53,10.81,13.01,-13.97,10.9,-47.37,95.89,-0.97,12.3,-13.71,15.38,-55.81,98.17,15.91,3.78,5.36,5.88,1.21,6.07,11.15,12.1,-13.67,10.63,-46.94,94.02,-0.91,11.61,-13.43,15.5,-55.62,96.92,15.88,2.58,5.48,0.1679,0.4766,-0.6933,0.3185,0.6746,-0.9255,0.3037,-0.399,0.3415,-0.0259,0.6656,-0.9227,0.4428,-0.5567,0.3756,0.4536,0.5014,-0.7002,0.0,0.0,0.013,0.006,0.006,0.013,0.0,0.006,0.013,0.0,0.006,0.006,0.0,0.006,0.006,0.0,0.019,0.0,0.1043,0.0153,0.1657,0.1871,0.2332,-0.2454,0.1933,-0.8376,1.6797,-0.0184,0.2178,-0.247,0.2684,-0.9787,1.7242,0.2838,0.0706,0.089,-0.0225,0.118,-0.3084,0.042,-0.0519,0.0039,-0.0306,0.1433,-0.0438,-0.0086,-0.0527,0.0702,-0.0,0.0293,0.0234,-0.0377,-0.1172,0.0486,0.0001,-0.0173,0.0087,0.0045,-0.0069,0.1709,0.48,-0.6927,0.3206,0.6803,-0.9286,0.3059,-0.4021,0.3496,-0.0276,0.6689,-0.9239,0.4416,-0.5602,0.381,0.4555,0.5062,-0.6985,0.0,0.0,0.0,0.0,0.0,0.0,0.0,0.0,0.0,
3.24,run,0.45,3.39,0.41,0.26,-0.07,0.0,0.0,0.0,0.052,5.98,1.32,7.47,10.81,12.66,-13.89,10.72,-47.11,95.27,-0.97,12.04,-13.62,15.38,-55.81,97.47,15.91,3.25,5.36,5.82,1.15,6.1,11.1,11.89,-13.54,10.63,-46.63,93.59,-0.87,11.54,-13.24,15.51,-55.33,96.6,15.82,2.39,5.71,0.1663,0.4754,-0.6929,0.3173,0.6707,-0.924,0.3037,-0.3932,0.3364,-0.0248,0.6644,-0.9204,0.4431,-0.5514,0.3717,0.4519,0.498,-0.6975,0.0,0.0,0.013,0.006,0.006,0.013,0.0,0.006,0.013,0.0,0.006,0.006,0.0,0.006,0.006,0.0,0.019,0.0,0.1043,0.0169,0.1457,0.1871,0.227,-0.2454,0.1917,-0.8299,1.6659,-0.0184,0.2102,-0.2424,0.2684,-0.9771,1.7089,0.2792,0.0629,0.089,-0.0158,0.0884,-0.2906,0.0294,-0.0593,0.0027,-0.0272,0.1291,-0.0824,-0.006,-0.0656,0.0664,-0.0,0.0263,-0.0411,-0.0436,-0.1107,0.034,-0.0007,-0.017,-0.0063,0.0005,0.0186,0.1679,0.4766,-0.6933,0.3185,0.6746,-0.9255,0.3037,-0.399,0.3415,-0.0259,0.6656,-0.9227,0.4428,-0.5567,0.3756,0.4536,0.5014,-0.7002,0.0,0.0,0.0,0.0,0.0,0.0,0.0,0.0,0.0,
3.28,run,0.45,3.39,-0.05,-0.05,0.32,0.0,0.0,0.0,0.052,5.98,1.32,6.77,10.81,12.39,-13.62,10.72,-46.85,94.66,-0.97,12.04,-13.45,15.38,-55.63,96.94,15.91,2.99,5.36,5.74,1.01,6.17,11.0,11.71,-13.68,10.62,-46.64,93.06,-0.81,11.48,-13.29,15.55,-55.28,96.15,15.84,2.31,5.6,0.1641,0.4729,-0.6922,0.3143,0.6675,-0.9257,0.3035,-0.3935,0.3302,-0.0232,0.6633,-0.921,0.4444,-0.5506,0.3664,0.4526,0.4965,-0.6989,0.0,0.0,0.013,0.006,0.006,0.013,0.0,0.006,0.013,0.0,0.006,0.006,0.0,0.006,0.006,0.0,0.019,0.0,0.1043,0.0169,0.1273,0.1871,0.2209,-0.2439,0.1887,-0.8253,1.6552,-0.0184,0.2056,-0.2408,0.2684,-0.9771,1.6966,0.2792,0.0537,0.089,-0.011,0.0618,-0.2724,0.0206,-0.0645,0.0077,-0.0305,0.1076,-0.0979,-0.0042,-0.0632,0.0522,-0.0,0.0184,-0.0748,-0.0305,-0.112,0.0238,0.0018,-0.0151,0.0072,0.0046,-0.0013,0.1663,0.4754,-0.6929,0.3173,0.6707,-0.924,0.3037,-0.3932,0.3364,-0.0248,0.6644,-0.9204,0.4431,-0.5514,0.3717,0.4519,0.498,-0.6975,0.0,0.0,0.0,0.0,0.0,0.0,0.0,0.0,0.0,
3.32,run,0.44,3.4,-0.28,-0.05,0.17,0.0,0.0,0.0,0.052,5.54,1.32,6.42,10.81,12.22,-13.71,10.72,-46.76,94.04,-0.97,12.04,-13.36,15.38,-55.2,96.42,15.91,2.9,5.36,5.7,0.91,6.11,10.99,11.55,-13.5,10.6,-46.56,92.72,-0.82,11.43,-13.23,15.57,-55.13,95.81,15.78,2.15,5.62,0.1629,0.471,-0.6928,0.3141,0.6646,-0.9235,0.3027,-0.3921,0.3261,-0.0234,0.6623,-0.9203,0.4448,-0.5479,0.3625,0.4509,0.4936,-0.6986,0.006,0.013,0.0,0.006,0.013,0.0,0.0,0.006,0.013,0.006,0.013,0.0,0.0,0.0,0.0,0.0,0.019,0.006,0.1043,0.0169,0.115,0.1871,0.2163,-0.2393,0.1887,-0.8207,1.6444,-0.0184,0.2056,-0.2378,0.2684,-0.9741,1.6874,0.2792,0.0491,0.089,-0.0077,0.0433,-0.2367,0.0144,-0.0624,0.0226,-0.0214,0.0926,-0.1088,-0.003,-0.0442,0.0481,-0.0,0.0244,-0.0869,-0.0214,-0.0957,0.0167,0.0014,-0.0151,-0.0008,-0.0009,0.0055,0.1641,0.4729,-0.6922,0.3143,0.6675,-0.9257,0.3035,-0.3935,0.3302,-0.0232,0.6633,-0.921,0.4444,-0.5506,0.3664,0.4526,0.4965,-0.6989,0.0,0.0,0.0,0.0,0.0,0.0,0.0,0.0,0.0,
3.36,run,0.46,3.42,0.3,0.32,0.4,0.0,0.0,0.0,0.052,5.71,1.32,6.42,10.81,11.95,-13.71,10.72,-46.67,93.6,-0.88,11.95,-13.36,15.38,-55.2,95.98,15.91,2.72,5.36,5.69,0.84,6.11,10.98,11.54,-13.34,10.6,-46.63,92.54,-0.87,11.44,-13.2,15.59,-55.14,95.5,15.74,2.18,5.52,0.1627,0.4698,-0.6928,0.3138,0.6643,-0.9217,0.3029,-0.3933,0.324,-0.025,0.6626,-0.9201,0.4455,-0.548,0.3588,0.4496,0.4941,-0.6997,0.006,0.013,0.0,0.006,0.013,0.0,0.0,0.006,0.013,0.006,0.013,0.0,0.0,0.0,0.0,0.0,0.019,0.006,0.0966,0.0169,0.1089,0.1871,0.2132,-0.2408,0.1887,-0.8191,1.6337,-0.0184,0.2056,-0.2362,0.2684,-0.9664,1.6782,0.2792,0.0476,0.089,-0.0346,0.0303,-0.189,0.0101,-0.0554,0.01,-0.015,0.0706,-0.117,-0.0021,-0.031,0.0395,-0.0,0.0462,-0.0958,-0.015,-0.0728,0.0117,0.0007,-0.0145,-0.0049,-0.0009,0.003,0.1629,0.471,-0.6928,0.3141,0.6646,-0.9235,0.3027,-0.3921,0.3261,-0.0234,0.6623,-0.9203,0.4448,-0.5479,0.3625,0.4509,0.4936,-0.6986,0.0,0.0,0.0,0.0,0.0,0.0,0.0,0.0,0.0,
3.4,run,0.45,3.43,0.16,0.06,-0.52,0.0,0.0,0.0,0.052,5.8,1.32,6.42,10.81,11.95,-13.45,10.72,-46.67,93.16,-0.88,11.87,-13.36,15.47,-55.2,95.62,15.82,2.72,5.36,5.69,0.76,6.12,10.93,11.47,-13.33,10.59,-46.64,92.31,-0.83,11.42,-13.22,15.59,-55.04,95.27,15.76,2.2,5.51,0.1625,0.4683,-0.6927,0.3124,0.6631,-0.9215,0.3025,-0.3934,0.3213,-0.0239,0.6622,-0.9203,0.4455,-0.5462,0.3561,0.4504,0.4945,-0.6999,0.006,0.013,0.0,0.006,0.013,0.0,0.0,0.006,0.013,0.006,0.013,0.0,0.0,0.0,0.0,0.0,0.019,0.006,0.0997,0.0169,0.1089,0.1871,0.2086,-0.2408,0.1887,-0.8176,1.626,-0.0169,0.204,-0.2362,0.2684,-0.9664,1.6705,0.2792,0.0445,0.089,-0.0128,0.0212,-0.1323,0.0071,-0.0559,0.007,-0.0105,0.0552,-0.1105,0.0043,-0.0274,0.0276,-0.0,0.0324,-0.0956,-0.0105,-0.0624,0.0082,0.0021,-0.0132,0.0052,0.0055,0.007,0.1627,0.4698,-0.6928,0.3138,0.6643,-0.9217,0.3029,-0.3933,0.324,-0.025,0.6626,-0.9201,0.4455,-0.548,0.3588,0.4496,0.4941,-0.6997,0.0,0.0,0.0,0.0,0.0,0.0,0.0,0.0,0.0,
3.44,run,0.44,3.4,-0.37,-0.23,0.32,0.0,0.0,0.0,0.052,5.8,1.32,6.42,10.81,11.95,-13.36,10.72,-46.76,92.9,-0.79,11.87,-13.18,15.38,-55.11,95.36,15.82,2.72,5.36,5.66,0.73,6.18,10.92,11.35,-13.33,10.58,-46.72,92.04,-0.84,11.38,-13.21,15.61,-55.01,95.09,15.81,2.18,5.49,0.1619,0.4679,-0.6921,0.3119,0.6608,-0.9216,0.3023,-0.3948,0.3181,-0.0239,0.6614,-0.9202,0.446,-0.5457,0.354,0.4516,0.4941,-0.7001,0.006,0.013,0.0,0.0,0.019,0.0,0.0,0.0,0.013,0.0,0.013,0.0,0.013,0.0,0.006,0.0,0.013,0.0,0.1012,0.0169,0.1089,0.1871,0.2086,-0.2362,0.1887,-0.8176,1.6183,-0.0169,0.2025,-0.2362,0.27,-0.9664,1.6644,0.2777,0.0445,0.089,-0.0033,0.0148,-0.0926,0.0049,-0.0391,0.022,-0.0073,0.0386,-0.1058,0.003,-0.0249,0.0193,0.0057,0.0226,-0.0897,-0.013,-0.0437,0.0057,0.0019,-0.0124,0.0028,0.001,-0.009,0.1625,0.4683,-0.6927,0.3124,0.6631,-0.9215,0.3025,-0.3934,0.3213,-0.0239,0.6622,-0.9203,0.4455,-0.5462,0.3561,0.4504,0.4945,-0.6999,0.0,0.0,0.0,0.0,0.0,0.0,0.0,0.0,0.0,
3.48,run,0.47,3.42,0.59,0.31,-0.37,0.0,0.0,0.0,0.052,5.62,1.23,6.42,10.81,11.95,-13.36,10.72,-46.76,92.55,-0.79,11.78,-13.27,15.56,-55.02,95.27,15.82,2.72,5.36,5.66,0.66,6.12,10.95,11.3,-13.16,10.59,-46.67,91.94,-0.86,11.35,-13.19,15.59,-54.9,94.93,15.76,2.1,5.52,0.1618,0.4666,-0.6927,0.3128,0.6599,-0.9195,0.3025,-0.394,0.3169,-0.0247,0.661,-0.9199,0.4454,-0.5437,0.3521,0.4502,0.4928,-0.6998,0.006,0.013,0.0,0.0,0.019,0.0,0.0,0.0,0.013,0.0,0.013,0.0,0.013,0.0,0.006,0.0,0.013,0.0,0.1012,0.0169,0.1089,0.1871,0.2086,-0.2347,0.1887,-0.8191,1.6137,-0.0153,0.2025,-0.2332,0.2684,-0.9649,1.6598,0.2777,0.0445,0.089,-0.0023,0.0104,-0.0648,0.0035,-0.0274,0.0212,-0.0051,0.0212,-0.0915,0.0079,-0.0174,0.0252,-0.0018,0.0217,-0.0802,-0.0091,-0.0306,0.004,0.0008,-0.0143,-0.0064,-0.0041,0.0056,0.1619,0.4679,-0.6921,0.3119,0.6608,-0.9216,0.3023,-0.3948,0.3181,-0.0239,0.6614,-0.9202,0.446,-0.5457,0.354,0.4516,0.4941,-0.7001,0.0,0.0,0.0,0.0,0.0,0.0,0.0,0.0,0.0,
3.52,run,0.45,3.42,-0.22,-0.08,0.17,0.0,0.0,0.0,0.052,5.62,1.14,6.42,10.81,11.95,-13.36,10.72,-46.76,92.37,-0.79,11.69,-13.27,15.56,-55.02,95.27,15.82,2.64,5.36,5.67,0.63,6.15,10.91,11.29,-13.22,10.57,-46.78,91.74,-0.85,11.34,-13.22,15.58,-55.02,94.73,15.77,2.17,5.3,0.1619,0.4659,-0.6924,0.3116,0.6599,-0.9202,0.3021,-0.396,0.3146,-0.0244,0.6607,-0.9203,0.4452,-0.5457,0.3498,0.4507,0.494,-0.7023,0.006,0.013,0.0,0.0,0.019,0.0,0.0,0.0,0.013,0.0,0.013,0.0,0.013,0.0,0.006,0.0,0.013,0.0,0.0982,0.0153,0.1089,0.1871,0.2086,-0.2347,0.1887,-0.8191,1.6076,-0.0153,0.201,-0.2347,0.2715,-0.9633,1.6582,0.2777,0.0445,0.089,-0.0112,0.0025,-0.0454,0.0024,-0.0192,0.0148,-0.0036,0.0149,-0.0833,0.0055,-0.017,0.0128,0.0084,0.02,-0.061,-0.0064,-0.0214,0.0028,0.0035,-0.0127,0.0103,0.0054,-0.0065,0.1618,0.4666,-0.6927,0.3128,0.6599,-0.9195,0.3025,-0.394,0.3169,-0.0247,0.661,-0.9199,0.4454,-0.5437,0.3521,0.4502,0.4928,-0.6998,0.0,0.0,0.0,0.0,0.0,0.0,0.0,0.0,0.0,
3.56,run,0.45,3.42,-0.05,-0.05,0.3,0.0,0.0,0.0,0.052,5.62,1.14,6.42,10.81,11.95,-13.27,10.72,-46.76,92.2,-0.79,11.69,-13.27,15.47,-55.02,94.75,15.82,2.64,5.36,5.68,0.65,6.14,10.92,11.32,-13.27,10.6,-46.76,91.81,-0.86,11.37,-13.25,15.58,-54.99,94.71,15.77,2.17,5.43,0.1623,0.4663,-0.6925,0.312,0.6603,-0.9209,0.3027,-0.3957,0.3154,-0.0246,0.6612,-0.9205,0.445,-0.5454,0.3495,0.4506,0.4939,-0.7009,0.0,0.013,0.006,0.0,0.013,0.006,0.0,0.0,0.006,0.0,0.0,0.0,0.0,0.0,0.0,0.0,0.006,0.0,0.0982,0.0138,0.1089,0.1871,0.2086,-0.2347,0.1887,-0.8191,1.6045,-0.0153,0.1994,-0.2347,0.2715,-0.9633,1.6582,0.2777,0.043,0.089,-0.0079,-0.004,-0.0318,0.0017,-0.0134,0.0104,-0.0025,0.0104,-0.0698,0.0039,-0.0176,0.009,0.0059,0.014,-0.0427,-0.0045,-0.0207,0.002,0.002,-0.0126,-0.0039,-0.0014,0.003,0.1619,0.4659,-0.6924,0.3116,0.6599,-0.9202,0.3021,-0.396,0.3146,-0.0244,0.6607,-0.9203,0.4452,-0.5457,0.3498,0.4507,0.494,-0.7023,0.0,0.0,0.0,0.0,0.0,0.0,0.0,0.0,0.0,
3.6,run,0.45,3.44,0.12,0.1,0.06,0.0,0.0,0.0,0.052,5.62,1.14,6.42,10.81,11.95,-13.27,10.72,-46.76,92.2,-0.79,11.69,-13.27,15.47,-55.02,94.92,15.82,2.64,5.36,5.68,0.54,6.24,10.88,11.3,-13.17,10.59,-46.78,91.71,-0.85,11.39,-13.23,15.56,-54.91,94.59,15.78,2.22,5.45,0.1623,0.4643,-0.6913,0.311,0.6599,-0.9196,0.3025,-0.3961,0.3142,-0.0244,0.6616,-0.9203,0.4445,-0.5439,0.3481,0.451,0.495,-0.7006,0.0,0.013,0.006,0.0,0.013,0.006,0.0,0.0,0.006,0.0,0.0,0.0,0.0,0.0,0.0,0.0,0.006,0.0,0.0982,0.0138,0.1089,0.1871,0.2086,-0.2332,0.1887,-0.8191,1.6015,-0.0153,0.1994,-0.2347,0.27,-0.9633,1.649,0.2777,0.043,0.089,-0.0055,-0.0028,-0.0222,0.0012,-0.0094,0.013,-0.0018,0.0073,-0.0603,0.0027,-0.0123,0.0063,-0.0017,0.0098,-0.0644,-0.0031,-0.0145,0.0014,0.0017,-0.0126,-0.0009,-0.0009,0.0052,0.1623,0.4663,-0.6925,0.312,0.6603,-0.9209,0.3027,-0.3957,0.3154,-0.0246,0.6612,-0.9205,0.445,-0.5454,0.3495,0.4506,0.4939,-0.7009,0.0,0.0,0.0,0.0,0.0,0.0,0.0,0.0,0.0,
3.64,run,0.45,3.45,-0.09,0.03,0.25,0.0,0.0,0.0,0.052,5.62,1.14,6.42,10.81,11.95,-13.27,10.72,-46.76,92.2,-0.79,11.69,-13.27,15.47,-55.02,94.66,15.82,2.64,5.36,5.69,0.56,6.22,10.89,11.32,-13.24,10.58,-46.84,91.75,-0.85,11.35,-13.26,15.54,-54.99,94.56,15.78,2.21,5.37,0.1624,0.4647,-0.6915,0.3112,0.6603,-0.9205,0.3023,-0.3972,0.3147,-0.0243,0.661,-0.9207,0.444,-0.5454,0.3477,0.4507,0.4947,-0.7015,0.0,0.013,0.006,0.0,0.013,0.006,0.0,0.0,0.006,0.0,0.0,0.0,0.0,0.0,0.0,0.0,0.006,0.0,0.0982,0.0138,0.1089,0.1871,0.2086,-0.2332,0.1887,-0.8191,1.6015,-0.0153,0.1994,-0.2347,0.27,-0.9633,1.6521,0.2777,0.043,0.089,-0.0039,-0.002,-0.0156,0.0008,-0.0066,0.0091,-0.0012,0.0051,-0.0422,0.0019,-0.0086,0.0044,-0.0012,0.0069,-0.0355,-0.0022,-0.0101,0.001,0.0013,-0.0113,0.0021,0.0018,0.0011,0.1623,0.4643,-0.6913,0.311,0.6599,-0.9196,0.3025,-0.3961,0.3142,-0.0244,0.6616,-0.9203,0.4445,-0.5439,0.3481,0.451,0.495,-0.7006,0.0,0.0,0.0,0.0,0.0,0.0,0.0,0.0,0.0,
3.68,run,0.46,3.45,0.17,0.15,0.02,0.0,0.0,0.0,0.052,5.62,1.05,6.42,10.81,11.95,-13.27,10.72,-46.76,92.2,-0.79,11.69,-13.27,15.47,-55.02,94.57,15.82,2.64,5.36,5.7,0.52,6.28,10.88,11.32,-13.22,10.58,-46.86,91.75,-0.86,11.38,-13.26,15.53,-54.97,94.51,15.78,2.25,5.43,0.1628,0.4641,-0.6908,0.3109,0.6604,-0.9202,0.3023,-0.3975,0.3147,-0.0247,0.6614,-0.9208,0.4437,-0.5449,0.3472,0.4509,0.4955,-0.7008,0.0,0.006,0.0,0.0,0.013,0.0,0.006,0.0,0.006,0.0,0.006,0.0,0.0,0.0,0.0,0.0,0.006,0.0,0.0982,0.0138,0.1089,0.1871,0.2086,-0.2332,0.1887,-0.8191,1.6015,-0.0153,0.1994,-0.2347,0.27,-0.9633,1.6475,0.2777,0.043,0.089,-0.0027,-0.0014,-0.0109,0.0006,-0.0046,0.0064,-0.0009,0.0036,-0.0296,0.0013,-0.006,0.0031,-0.0008,0.0048,-0.042,-0.0015,-0.0071,0.0007,0.0013,-0.0106,-0.0016,0.0005,0.0043,0.1624,0.4647,-0.6915,0.3112,0.6603,-0.9205,0.3023,-0.3972,0.3147,-0.0243,0.661,-0.9207,0.444,-0.5454,0.3477,0.4507,0.4947,-0.7015,0.0,0.0,0.0,0.0,0.0,0.0,0.0,0.0,0.0,
3.72,run,0.45,3.45,-0.07,0.05,0.19,0.0,0.0,0.0,0.052,5.62,0.97,6.42,10.81,11.95,-13.27,10.72,-46.76,92.2,-0.79,11.69,-13.27,15.47,-55.02,94.57,15.82,2.64,5.36,5.7,0.5,6.3,10.87,11.34,-13.24,10.58,-46.91,91.73,-0.86,11.39,-13.3,15.52,-54.99,94.48,15.79,2.28,5.38,0.1629,0.4637,-0.6905,0.3106,0.6607,-0.9204,0.3024,-0.3983,0.3145,-0.0246,0.6617,-0.9212,0.4435,-0.5453,0.3469,0.4512,0.4961,-0.7014,0.0,0.006,0.0,0.0,0.013,0.0,0.006,0.0,0.006,0.0,0.006,0.0,0.0,0.0,0.0,0.0,0.006,0.0,0.0982,0.0123,0.1089,0.1871,0.2086,-0.2332,0.1887,-0.8191,1.6015,-0.0153,0.1994,-0.2347,0.27,-0.9633,1.646,0.2777,0.043,0.089,-0.0019,-0.0068,-0.0076,0.0004,-0.0032,0.0045,-0.0006,0.0025,-0.0207,0.0009,-0.0042,0.0021,-0.0006,0.0034,-0.0352,-0.0011,-0.005,0.0005,0.0023,-0.0106,0.0029,0.0026,0.0003,0.1628,0.4641,-0.6908,0.3109,0.6604,-0.9202,0.3023,-0.3975,0.3147,-0.0247,0.6614,-0.9208,0.4437,-0.5449,0.3472,0.4509,0.4955,-0.7008,0.0,0.0,0.0,0.0,0.0,0.0,0.0,0.0,0.0,
3.76,run,0.46,3.46,0.21,0.15,0.12,0.0,0.0,0.0,0.052,5.62,0.97,6.42,10.81,11.95,-13.27,10.72,-46.85,92.2,-0.79,11.69,-13.27,15.47,-55.02,94.57,15.82,2.64,5.36,5.71,0.51,6.31,10.88,11.36,-13.25,10.59,-46.91,91.79,-0.86,11.41,-13.31,15.52,-55.0,94.5,15.79,2.29,5.4,0.1631,0.4638,-0.6904,0.3107,0.6611,-0.9206,0.3027,-0.3984,0.3152,-0.0247,0.662,-0.9213,0.4434,-0.5454,0.3471,0.4511,0.4963,-0.7011,0.0,0.006,0.0,0.0,0.013,0.0,0.006,0.0,0.006,0.0,0.006,0.0,0.0,0.0,0.0,0.0,0.006,0.0,0.0982,0.0107,0.1089,0.1871,0.2086,-0.2332,0.1887,-0.8191,1.6015,-0.0153,0.1994,-0.2347,0.27,-0.9633,1.646,0.2777,0.043,0.089,-0.0013,-0.0105,-0.0053,0.0003,-0.0023,0.0031,-0.0004,0.0017,-0.0145,0.0007,-0.003,0.0015,-0.0004,0.0024,-0.0246,-0.0008,-0.0035,0.0003,0.0015,-0.0104,-0.0012,0.0009,0.0034,0.1629,0.4637,-0.6905,0.3106,0.6607,-0.9204,0.3024,-0.3983,0.3145,-0.0246,0.6617,-0.9212,0.4435,-0.5453,0.3469,0.4512,0.4961,-0.7014,0.0,0.0,0.0,0.0,0.0,0.0,0.0,0.0,0.0,
3.8,run,0.45,3.45,-0.21,-0.1,0.03,0.0,0.0,0.0,0.052,5.62,0.97,6.42,10.81,11.95,-13.27,10.72,-46.76,92.2,-0.79,11.69,-13.27,15.47,-55.02,94.57,15.82,2.64,5.36,5.71,0.48,6.31,10.87,11.37,-13.27,10.6,-46.95,91.78,-0.86,11.41,-13.35,15.52,-55.01,94.49,15.8,2.32,5.37,0.1631,0.4633,-0.6904,0.3104,0.6613,-0.9208,0.3028,-0.399,0.3151,-0.0245,0.6621,-0.9217,0.4435,-0.5456,0.3469,0.4514,0.4967,-0.7016,0.0,0.013,0.0,0.0,0.013,0.0,0.0,0.006,0.006,0.0,0.0,0.0,0.0,0.0,0.0,0.0,0.006,0.0,0.0982,0.0107,0.1089,0.1871,0.2086,-0.2332,0.1887,-0.8207,1.6015,-0.0153,0.1994,-0.2347,0.27,-0.9633,1.646,0.2777,0.043,0.089,-0.0009,-0.0073,-0.0037,0.0002,-0.0016,0.0022,-0.0003,-0.0045,-0.0101,0.0005,-0.0021,0.0011,-0.0003,0.0016,-0.0172,-0.0005,-0.0024,0.0002,0.0024,-0.0098,0.0037,0.0026,0.002,0.1631,0.4638,-0.6904,0.3107,0.6611,-0.9206,0.3027,-0.3984,0.3152,-0.0247,0.662,-0.9213,0.4434,-0.5454,0.3471,0.4511,0.4963,-0.7011,0.0,0.0,0.0,0.0,0.0,0.0,0.0,0.0,0.0,
3.84,run,0.46,3.46,0.18,0.18,0.21,0.0,0.0,0.0,0.052,5.62,0.97,6.42,10.81,11.95,-13.27,10.72,-46.85,92.2,-0.79,11.69,-13.27,15.47,-55.02,94.57,15.82,2.64,5.36,5.72,0.51,6.31,10.87,11.38,-13.28,10.6,-46.96,91.84,-0.87,11.42,-13.35,15.52,-55.02,94.51,15.8,2.32,5.42,0.1635,0.4638,-0.6904,0.3107,0.6614,-0.9209,0.3027,-0.3992,0.3157,-0.0248,0.6623,-0.9217,0.4434,-0.5459,0.3471,0.4514,0.4966,-0.7009,0.0,0.013,0.0,0.0,0.013,0.0,0.0,0.006,0.006,0.0,0.0,0.0,0.0,0.0,0.0,0.0,0.006,0.0,0.0982,0.0107,0.1089,0.1871,0.2086,-0.2332,0.1887,-0.8191,1.6015,-0.0153,0.1994,-0.2347,0.27,-0.9633,1.646,0.2777,0.043,0.089,-0.0006,-0.0051,-0.0026,0.0001,-0.0011,0.0015,-0.0002,0.0027,-0.0071,0.0003,-0.0015,0.0007,-0.0002,0.0012,-0.0121,-0.0004,-0.0017,0.0002,0.002,-0.01,-0.0036,-0.0017,0.0006,0.1631,0.4633,-0.6904,0.3104,0.6613,-0.9208,0.3028,-0.399,0.3151,-0.0245,0.6621,-0.9217,0.4435,-0.5456,0.3469,0.4514,0.4967,-0.7016,0.0,0.0,0.0,0.0,0.0,0.0,0.0,0.0,0.0,
3.88,run,0.46,3.46,-0.11,-0.06,-0.01,0.0,0.0,0.0,0.052,5.62,0.97,6.42,10.81,11.95,-13.27,10.72,-46.85,92.2,-0.79,11.69,-13.27,15.47,-55.02,94.57,15.82,2.64,5.36,5.72,0.47,6.31,10.86,11.38,-13.27,10.6,-46.96,91.8,-0.86,11.42,-13.36,15.52,-55.02,94.49,15.8,2.33,5.37,0.1634,0.4631,-0.6904,0.3104,0.6615,-0.9208,0.3028,-0.3993,0.3153,-0.0245,0.6622,-0.9219,0.4434,-0.5458,0.347,0.4515,0.4969,-0.7016,0.0,0.013,0.0,0.0,0.013,0.0,0.0,0.006,0.006,0.0,0.0,0.0,0.0,0.0,0.0,0.0,0.006,0.0,0.0982,0.0107,0.1089,0.1871,0.2086,-0.2332,0.1887,-0.8207,1.6015,-0.0153,0.1994,-0.2347,0.27,-0.9633,1.646,0.2777,0.043,0.089,-0.0005,-0.0036,-0.0018,0.0001,-0.0008,0.0011,-0.0001,-0.0038,-0.005,0.0002,-0.001,0.0005,-0.0001,0.0008,-0.0084,-0.0003,-0.0012,0.0001,0.003,-0.0094,0.0031,0.0031,0.0036,0.1635,0.4638,-0.6904,0.3107,0.6614,-0.9209,0.3027,-0.3992,0.3157,-0.0248,0.6623,-0.9217,0.4434,-0.5459,0.3471,0.4514,0.4966,-0.7009,0.0,0.0,0.0,0.0,0.0,0.0,0.0,0.0,0.0,
3.92,run,0.46,3.46,0.04,0.03,0.14,0.0,0.0,0.0,0.052,5.62,0.97,6.42,10.81,11.95,-13.27,10.72,-46.93,92.2,-0.79,11.69,-13.27,15.47,-55.02,94.57,15.82,2.64,5.36,5.72,0.49,6.32,10.87,11.39,-13.3,10.6,-46.98,91.84,-0.87,11.43,-13.38,15.52,-55.03,94.5,15.81,2.34,5.4,0.1635,0.4635,-0.6904,0.3106,0.6616,-0.9212,0.3029,-0.3997,0.3158,-0.0248,0.6624,-0.9221,0.4435,-0.546,0.3471,0.4517,0.497,-0.7011,0.0,0.006,0.0,0.0,0.013,0.0,0.0,0.006,0.006,0.0,0.0,0.0,0.0,0.0,0.0,0.0,0.006,0.0,0.0982,0.0107,0.1089,0.1871,0.2086,-0.2332,0.1887,-0.8207,1.6015,-0.0153,0.1994,-0.2347,0.27,-0.9633,1.646,0.2777,0.043,0.089,-0.0003,-0.0025,-0.0013,0.0001,-0.0005,0.0008,-0.0001,-0.0027,-0.0035,0.0002,-0.0007,0.0004,-0.0001,0.0006,-0.0059,-0.0002,-0.0008,0.0001,0.0026,-0.0096,-0.002,-0.0011,-0.0002,0.1634,0.4631,-0.6904,0.3104,0.6615,-0.9208,0.3028,-0.3993,0.3153,-0.0245,0.6622,-0.9219,0.4434,-0.5458,0.347,0.4515,0.4969,-0.7016,0.0,0.0,0.0,0.0,0.0,0.0,0.0,0.0,0.0,
3.96,run,0.46,3.45,-0.14,-0.03,-0.01,0.0,0.0,0.0,0.052,5.62,0.97,6.42,10.81,11.95,-13.27,10.72,-46.93,92.2,-0.79,11.69,-13.27,15.47,-55.02,94.57,15.82,2.64,5.36,5.72,0.47,6.31,10.87,11.4,-13.29,10.61,-46.98,91.84,-0.87,11.44,-13.4,15.52,-55.02,94.5,15.81,2.35,5.39,0.1635,0.4631,-0.6905,0.3105,0.6617,-0.9211,0.3031,-0.3996,0.3157,-0.0248,0.6626,-0.9223,0.4435,-0.5458,0.3471,0.4518,0.4972,-0.7013,0.0,0.006,0.0,0.0,0.013,0.0,0.0,0.006,0.006,0.0,0.0,0.0,0.0,0.0,0.0,0.0,0.006,0.0,0.0982,0.0107,0.1089,0.1871,0.2086,-0.2332,0.1887,-0.8222,1.6015,-0.0153,0.1994,-0.2347,0.27,-0.9633,1.646,0.2777,0.043,0.089,-0.0002,-0.0018,-0.0009,0.0,-0.0004,0.0005,-0.0001,-0.0076,-0.0024,0.0001,-0.0005,0.0003,-0.0001,0.0004,-0.0041,-0.0001,-0.0006,0.0001,0.0029,-0.0098,0.0007,0.0006,0.0024,0.1635,0.4635,-0.6904,0.3106,0.6616,-0.9212,0.3029,-0.3997,0.3158,-0.0248,0.6624,-0.9221,0.4435,-0.546,0.3471,0.4517,0.497,-0.7011,0.0,0.0,0.0,0.0,0.0,0.0,0.0,0.0,0.0,
4.0,run,0.47,3.46,0.08,0.03,0.22,0.0,0.0,0.0,0.052,5.62,0.97,6.42,10.81,11.95,-13.27,10.72,-46.93,92.2,-0.79,11.69,-13.27,15.47,-55.02,94.57,15.82,2.64,5.36,5.73,0.48,6.32,10.87,11.4,-13.31,10.61,-46.99,91.86,-0.87,11.45,-13.4,15.53,-55.03,94.51,15.82,2.35,5.41,0.1636,0.4634,-0.6903,0.3105,0.6618,-0.9213,0.3032,-0.3999,0.3161,-0.0249,0.6627,-0.9224,0.4436,-0.546,0.3472,0.4519,0.4973,-0.7011,0.0,0.006,0.0,0.0,0.013,0.0,0.0,0.006,0.006,0.0,0.0,0.0,0.0,0.0,0.0,0.0,0.006,0.0,0.0982,0.0107,0.1089,0.1871,0.2086,-0.2332,0.1887,-0.8222,1.6015,-0.0153,0.1994,-0.2347,0.27,-0.9633,1.646,0.2777,0.043,0.089,-0.0002,-0.0012,-0.0006,0.0,-0.0003,0.0004,-0.0,-0.0053,-0.0017,0.0001,-0.0003,0.0002,-0.0,0.0003,-0.0029,-0.0001,-0.0004,0.0,0.0025,-0.0099,-0.0024,-0.0006,-0.0001,0.1635,0.4631,-0.6905,0.3105,0.6617,-0.9211,0.3031,-0.3996,0.3157,-0.0248,0.6626,-0.9223,0.4435,-0.5458,0.3471,0.4518,0.4972,-0.7013,0.0,0.0,0.0,0.0,0.0,0.0,0.0,0.0,0.0,
4.04,run,0.46,3.45,-0.06,-0.0,0.05,0.0,0.0,0.0,0.052,5.62,0.97,6.42,10.81,11.95,-13.27,10.72,-46.93,92.2,-0.79,11.69,-13.36,15.47,-55.02,94.57,15.82,2.64,5.36,5.73,0.47,6.3,10.87,11.41,-13.29,10.61,-46.98,91.85,-0.87,11.45,-13.4,15.52,-55.02,94.52,15.81,2.35,5.39,0.1637,0.4631,-0.6906,0.3105,0.6619,-0.921,0.303,-0.3996,0.3159,-0.0248,0.6627,-0.9224,0.4434,-0.5459,0.3472,0.4518,0.4973,-0.7013,0.0,0.006,0.0,0.0,0.013,0.0,0.0,0.0,0.006,0.0,0.006,0.006,0.0,0.0,0.0,0.0,0.0,0.0,0.0982,0.0107,0.1089,0.1871,0.2086,-0.2332,0.1887,-0.8222,1.6015,-0.0153,0.1994,-0.2347,0.27,-0.9633,1.646,0.2777,0.043,0.089,-0.0001,-0.0009,-0.0004,0.0,-0.0002,0.0003,-0.0,-0.0037,-0.0012,0.0001,-0.0002,0.0001,-0.0,0.0002,-0.002,-0.0001,-0.0003,0.0,0.0032,-0.0098,0.0015,0.0005,0.0039,0.1636,0.4634,-0.6903,0.3105,0.6618,-0.9213,0.3032,-0.3999,0.3161,-0.0249,0.6627,-0.9224,0.4436,-0.546,0.3472,0.4519,0.4973,-0.7011,0.0,0.0,0.0,0.0,0.0,0.0,0.0,0.0,0.0,
4.08,run,0.47,3.46,0.04,0.08,0.16,0.0,0.0,0.0,0.052,5.62,0.97,6.42,10.81,11.95,-13.27,10.72,-46.93,92.2,-0.79,11.69,-13.36,15.47,-55.02,94.57,15.82,2.64,5.36,5.73,0.49,6.32,10.86,11.42,-13.33,10.61,-47.0,91.88,-0.87,11.46,-13.41,15.52,-55.04,94.53,15.82,2.36,5.4,0.1637,0.4634,-0.6904,0.3104,0.6621,-0.9215,0.3031,-0.4,0.3162,-0.0247,0.6629,-0.9225,0.4436,-0.5462,0.3474,0.4521,0.4975,-0.7011,0.0,0.006,0.0,0.0,0.013,0.0,0.0,0.0,0.006,0.0,0.006,0.006,0.0,0.0,0.0,0.0,0.0,0.0,0.0982,0.0107,0.1089,0.1871,0.2086,-0.2332,0.1887,-0.8222,1.6015,-0.0153,0.1994,-0.2362,0.27,-0.9633,1.646,0.2777,0.043,0.089,-0.0001,-0.0006,-0.0003,0.0,-0.0001,0.0002,-0.0,-0.0026,-0.0008,0.0,-0.0002,-0.0057,-0.0,0.0001,-0.0014,-0.0,-0.0002,0.0,0.0028,-0.0099,-0.0011,-0.0001,0.0008,0.1637,0.4631,-0.6906,0.3105,0.6619,-0.921,0.303,-0.3996,0.3159,-0.0248,0.6627,-0.9224,0.4434,-0.5459,0.3472,0.4518,0.4973,-0.7013,0.0,0.0,0.0,0.0,0.0,0.0,0.0,0.0,0.0,
4.12,run,0.47,3.46,-0.01,0.07,0.03,0.0,0.0,0.0,0.052,5.62,0.97,6.42,10.81,11.95,-13.27,10.72,-46.93,92.2,-0.79,11.69,-13.36,15.47,-55.02,94.57,15.82,2.64,5.36,5.73,0.48,6.32,10.86,11.42,-13.32,10.61,-47.0,91.88,-0.86,11.46,-13.41,15.52,-55.04,94.54,15.82,2.37,5.39,0.1638,0.4632,-0.6904,0.3103,0.6622,-0.9214,0.3031,-0.4,0.3162,-0.0247,0.6628,-0.9225,0.4435,-0.5462,0.3475,0.452,0.4976,-0.7013,0.0,0.006,0.0,0.0,0.013,0.0,0.0,0.0,0.006,0.0,0.006,0.006,0.0,0.0,0.0,0.0,0.0,0.0,0.0982,0.0107,0.1089,0.1871,0.2086,-0.2332,0.1887,-0.8222,1.6015,-0.0153,0.1994,-0.2362,0.27,-0.9633,1.646,0.2777,0.043,0.089,-0.0001,-0.0004,-0.0002,0.0,-0.0001,0.0001,-0.0,-0.0018,-0.0006,0.0,-0.0001,-0.004,-0.0,0.0001,-0.001,-0.0,-0.0001,0.0,0.0031,-0.0093,0.0007,0.0014,0.0028,0.1637,0.4634,-0.6904,0.3104,0.6621,-0.9215,0.3031,-0.4,0.3162,-0.0247,0.6629,-0.9225,0.4436,-0.5462,0.3474,0.4521,0.4975,-0.7011,0.0,0.0,0.0,0.0,0.0,0.0,0.0,0.0,0.0,
4.16,run,0.46,3.46,-0.08,-0.03,0.02,0.0,0.0,0.0,0.052,5.62,0.97,6.42,10.81,11.95,-13.27,10.72,-46.93,92.2,-0.79,11.69,-13.36,15.47,-55.02,94.57,15.82,2.64,5.36,5.73,0.48,6.33,10.86,11.42,-13.33,10.61,-47.01,91.88,-0.86,11.46,-13.42,15.52,-55.05,94.54,15.82,2.37,5.39,0.1638,0.4633,-0.6903,0.3103,0.6622,-0.9215,0.3031,-0.4002,0.3163,-0.0247,0.6629,-0.9225,0.4436,-0.5463,0.3475,0.4521,0.4976,-0.7013,0.0,0.013,0.0,0.0,0.006,0.0,0.0,0.0,0.006,0.0,0.006,0.0,0.0,0.0,0.0,0.0,0.0,0.0,0.0982,0.0107,0.1089,0.1871,0.2086,-0.2332,0.1887,-0.8222,1.6015,-0.0153,0.1994,-0.2362,0.27,-0.9633,1.646,0.2777,0.043,0.089,-0.0,-0.0003,-0.0002,0.0,-0.0001,0.0001,-0.0,-0.0013,-0.0004,0.0,-0.0001,-0.0028,-0.0,0.0001,-0.0007,-0.0,-0.0001,0.0,0.0031,-0.0095,-0.0003,0.0013,0.0004,0.1638,0.4632,-0.6904,0.3103,0.6622,-0.9214,0.3031,-0.4,0.3162,-0.0247,0.6628,-0.9225,0.4435,-0.5462,0.3475,0.452,0.4976,-0.7013,0.0,0.0,0.0,0.0,0.0,0.0,0.0,0.0,0.0,
4.2,run,0.47,3.46,0.02,0.05,0.12,0.0,0.0,0.0,0.052,5.62,0.97,6.42,10.81,11.95,-13.27,10.72,-46.93,92.2,-0.79,11.69,-13.36,15.47,-55.02,94.57,15.82,2.64,5.36,5.74,0.49,6.32,10.86,11.42,-13.33,10.61,-47.01,91.89,-0.87,11.46,-13.42,15.53,-55.05,94.55,15.83,2.37,5.4,0.1639,0.4634,-0.6904,0.3104,0.6622,-0.9215,0.3031,-0.4002,0.3164,-0.0248,0.663,-0.9226,0.4436,-0.5463,0.3476,0.4522,0.4976,-0.7011,0.0,0.013,0.0,0.0,0.006,0.0,0.0,0.0,0.006,0.0,0.006,0.0,0.0,0.0,0.0,0.0,0.0,0.0,0.0982,0.0107,0.1089,0.1871,0.2086,-0.2332,0.1887,-0.8222,1.6015,-0.0153,0.1994,-0.2362,0.27,-0.9633,1.646,0.2777,0.043,0.089,-0.0,-0.0002,-0.0001,0.0,-0.0,0.0001,-0.0,-0.0009,-0.0003,0.0,-0.0001,-0.002,-0.0,0.0,-0.0005,-0.0,-0.0001,0.0,0.003,-0.0097,-0.0015,-0.0006,0.0003,0.1638,0.4633,-0.6903,0.3103,0.6622,-0.9215,0.3031,-0.4002,0.3163,-0.0247,0.6629,-0.9225,0.4436,-0.5463,0.3475,0.4521,0.4976,-0.7013,0.0,0.0,0.0,0.0,0.0,0.0,0.0,0.0,0.0,
4.24,run,0.46,3.45,-0.09,-0.09,0.04,0.0,0.0,0.0,0.052,5.62,0.97,6.42,10.81,11.95,-13.27,10.72,-46.93,92.2,-0.79,11.69,-13.36,15.47,-55.02,94.57,15.82,2.64,5.36,5.74,0.48,6.31,10.86,11.42,-13.31,10.61,-47.0,91.88,-0.87,11.46,-13.42,15.52,-55.04,94.55,15.82,2.37,5.39,0.1639,0.4632,-0.6904,0.3103,0.6622,-0.9213,0.3031,-0.4,0.3163,-0.0247,0.6629,-0.9226,0.4435,-0.5462,0.3476,0.4521,0.4976,-0.7013,0.0,0.013,0.0,0.0,0.006,0.0,0.0,0.0,0.006,0.0,0.006,0.0,0.0,0.0,0.0,0.0,0.0,0.0,0.0982,0.0107,0.1089,0.1871,0.2086,-0.2332,0.1887,-0.8222,1.6015,-0.0153,0.1994,-0.2362,0.27,-0.9633,1.646,0.2777,0.043,0.089,-0.0,-0.0001,-0.0001,0.0,-0.0,0.0,-0.0,-0.0006,-0.0002,0.0,-0.0,-0.0014,-0.0,0.0,-0.0003,-0.0,-0.0,0.0,0.0033,-0.0096,0.0003,0.0009,0.0022,0.1639,0.4634,-0.6904,0.3104,0.6622,-0.9215,0.3031,-0.4002,0.3164,-0.0248,0.663,-0.9226,0.4436,-0.5463,0.3476,0.4522,0.4976,-0.7011,0.0,0.0,0.0,0.0,0.0,0.0,0.0,0.0,0.0,
4.28,run,0.46,3.45,0.02,0.07,0.1,0.0,0.0,0.0,0.052,5.62,0.97,6.42,10.81,11.95,-13.27,10.72,-46.93,92.2,-0.7,11.69,-13.36,15.47,-55.02,94.57,15.82,2.64,5.36,5.74,0.49,6.31,10.87,11.42,-13.32,10.61,-47.0,91.9,-0.87,11.47,-13.43,15.52,-55.04,94.55,15.82,2.37,5.41,0.1639,0.4634,-0.6905,0.3105,0.6623,-0.9214,0.3031,-0.4001,0.3164,-0.0249,0.663,-0.9226,0.4435,-0.5463,0.3476,0.4521,0.4976,-0.7011,0.0,0.013,0.0,0.0,0.013,0.0,0.0,0.0,0.0,0.0,0.006,0.0,0.0,0.0,0.0,0.0,0.0,0.0,0.0982,0.0107,0.1089,0.1871,0.2086,-0.2332,0.1887,-0.8222,1.6015,-0.0153,0.1994,-0.2362,0.27,-0.9633,1.646,0.2777,0.043,0.089,-0.0,-0.0001,-0.0001,0.0,-0.0,0.0,-0.0,-0.0004,-0.0001,0.0,-0.0,-0.001,-0.0,0.0,-0.0002,-0.0,-0.0,0.0,0.0029,-0.0101,-0.0016,-0.0015,0.0007,0.1639,0.4632,-0.6904,0.3103,0.6622,-0.9213,0.3031,-0.4,0.3163,-0.0247,0.6629,-0.9226,0.4435,-0.5462,0.3476,0.4521,0.4976,-0.7013,0.0,0.0,0.0,0.0,0.0,0.0,0.0,0.0,0.0,
4.32,run,0.47,3.45,-0.01,0.08,0.29,0.0,0.0,0.0,0.052,5.62,0.97,6.42,10.81,11.95,-13.27,10.72,-46.93,92.2,-0.79,11.69,-13.36,15.47,-55.02,94.57,15.82,2.64,5.36,5.74,0.47,6.32,10.86,11.42,-13.31,10.61,-47.0,91.87,-0.86,11.45,-13.41,15.51,-55.04,94.53,15.81,2.35,5.37,0.1639,0.463,-0.6903,0.3103,0.6621,-0.9212,0.303,-0.4,0.3161,-0.0247,0.6627,-0.9225,0.4433,-0.5463,0.3475,0.4518,0.4972,-0.7016,0.0,0.013,0.0,0.0,0.013,0.0,0.0,0.0,0.0,0.0,0.006,0.0,0.0,0.0,0.0,0.0,0.0,0.0,0.0982,0.0107,0.1089,0.1871,0.2086,-0.2332,0.1887,-0.8222,1.6015,-0.0138,0.1994,-0.2362,0.27,-0.9633,1.646,0.2777,0.043,0.089,-0.0,-0.0001,-0.0,0.0,-0.0,0.0,-0.0,-0.0003,-0.0001,0.0058,-0.0,-0.0007,-0.0,0.0,-0.0002,-0.0,-0.0,0.0,0.003,-0.0101,0.0003,0.0011,0.0018,0.1639,0.4634,-0.6905,0.3105,0.6623,-0.9214,0.3031,-0.4001,0.3164,-0.0249,0.663,-0.9226,0.4435,-0.5463,0.3476,0.4521,0.4976,-0.7011,0.0,0.0,0.0,0.0,0.0,0.0,0.0,0.0,0.0,
4.36,run,0.47,3.45,0.0,0.04,-0.01,0.0,0.0,0.0,0.052,5.62,0.97,6.42,10.81,11.95,-13.27,10.72,-46.93,92.2,-0.79,11.69,-13.36,15.47,-55.02,94.57,15.82,2.64,5.36,5.74,0.48,6.31,10.86,11.42,-13.3,10.61,-46.99,91.88,-0.87,11.46,-13.42,15.52,-55.03,94.54,15.82,2.37,5.39,0.1639,0.4632,-0.6905,0.3104,0.6622,-0.9212,0.3031,-0.3998,0.3162,-0.0247,0.6629,-0.9226,0.4434,-0.546,0.3476,0.452,0.4976,-0.7012,0.0,0.013,0.0,0.0,0.013,0.0,0.0,0.0,0.0,0.0,0.006,0.0,0.0,0.0,0.0,0.0,0.0,0.0,0.0982,0.0107,0.1089,0.1871,0.2086,-0.2332,0.1887,-0.8222,1.6015,-0.0153,0.1994,-0.2362,0.27,-0.9633,1.646,0.2777,0.043,0.089,-0.0,-0.0,-0.0,0.0,-0.0,0.0,-0.0,-0.0002,-0.0001,-0.0014,-0.0,-0.0005,-0.0,0.0,-0.0001,-0.0,-0.0,0.0,0.0033,-0.0099,-0.0003,0.0014,0.005,0.1639,0.463,-0.6903,0.3103,0.6621,-0.9212,0.303,-0.4,0.3161,-0.0247,0.6627,-0.9225,0.4433,-0.5463,0.3475,0.4518,0.4972,-0.7016,0.0,0.0,0.0,0.0,0.0,0.0,0.0,0.0,0.0,
4.4,run,0.47,3.46,-0.11,0.02,0.09,0.0,0.0,0.0,0.052,5.62,0.88,6.42,10.81,11.95,-13.27,10.72,-46.93,92.2,-0.79,11.69,-13.36,15.47,-55.02,94.57,15.82,2.64,5.36,5.73,0.48,6.31,10.86,11.42,-13.32,10.61,-47.01,91.88,-0.87,11.46,-13.43,15.52,-55.05,94.54,15.83,2.37,5.39,0.1639,0.4633,-0.6904,0.3103,0.6622,-0.9214,0.3031,-0.4002,0.3163,-0.0248,0.6629,-0.9227,0.4435,-0.5463,0.3475,0.4522,0.4977,-0.7013,0.0,0.006,0.0,0.0,0.006,0.0,0.0,0.0,0.006,0.0,0.0,0.0,0.0,0.0,0.0,0.0,0.006,0.0,0.0982,0.0107,0.1089,0.1871,0.2086,-0.2332,0.1887,-0.8222,1.6015,-0.0153,0.1994,-0.2362,0.27,-0.9633,1.646,0.2777,0.043,0.089,-0.0,-0.0,-0.0,0.0,-0.0,0.0,-0.0,-0.0002,-0.0,-0.001,-0.0,-0.0003,-0.0,0.0,-0.0001,-0.0,-0.0,0.0,0.0033,-0.0098,0.0,0.0007,-0.0001,0.1639,0.4632,-0.6905,0.3104,0.6622,-0.9212,0.3031,-0.3998,0.3162,-0.0247,0.6629,-0.9226,0.4434,-0.546,0.3476,0.452,0.4976,-0.7012,0.0,0.0,0.0,0.0,0.0,0.0,0.0,0.0,0.0,
4.44,run,0.46,3.46,-0.08,0.07,0.05,0.0,0.0,0.0,0.052,5.62,0.79,6.42,10.81,11.95,-13.27,10.72,-46.93,92.2,-0.79,11.69,-13.36,15.47,-55.02,94.57,15.82,2.64,5.36,5.73,0.49,6.32,10.86,11.43,-13.33,10.62,-47.01,91.9,-0.87,11.47,-13.42,15.53,-55.04,94.56,15.83,2.38,5.39,0.1639,0.4634,-0.6903,0.3104,0.6624,-0.9215,0.3033,-0.4001,0.3165,-0.0248,0.6631,-0.9226,0.4436,-0.5462,0.3478,0.4522,0.4977,-0.7012,0.0,0.006,0.0,0.0,0.006,0.0,0.0,0.0,0.006,0.0,0.0,0.0,0.0,0.0,0.0,0.0,0.006,0.0,0.0982,0.0092,0.1089,0.1871,0.2086,-0.2332,0.1887,-0.8222,1.6015,-0.0153,0.1994,-0.2362,0.27,-0.9633,1.646,0.2777,0.043,0.089,-0.0,-0.0058,-0.0,0.0,-0.0,0.0,-0.0,-0.0001,-0.0,-0.0007,-0.0,-0.0002,-0.0,0.0,-0.0001,-0.0,-0.0,0.0,0.0031,-0.0096,-0.0019,0.0003,0.0016,0.1639,0.4633,-0.6904,0.3103,0.6622,-0.9214,0.3031,-0.4002,0.3163,-0.0248,0.6629,-0.9227,0.4435,-0.5463,0.3475,0.4522,0.4977,-0.7013,0.0,0.0,0.0,0.0,0.0,0.0,0.0,0.0,0.0,
4.48,run,0.46,3.46,-0.08,-0.06,0.07,0.0,0.0,0.0,0.052,5.62,0.79,6.42,10.81,11.95,-13.27,10.72,-46.93,92.2,-0.79,11.69,-13.36,15.47,-55.02,94.57,15.82,2.64,5.36,5.73,0.49,6.35,10.86,11.44,-13.35,10.62,-47.02,91.92,-0.87,11.48,-13.43,15.53,-55.05,94.58,15.83,2.39,5.38,0.1638,0.4634,-0.69,0.3102,0.6626,-0.9217,0.3034,-0.4004,0.3167,-0.0247,0.6633,-0.9227,0.4437,-0.5464,0.348,0.4524,0.498,-0.7014,0.0,0.006,0.0,0.0,0.006,0.0,0.0,0.0,0.006,0.0,0.0,0.0,0.0,0.0,0.0,0.0,0.006,0.0,0.0982,0.0077,0.1089,0.1871,0.2086,-0.2332,0.1887,-0.8222,1.6015,-0.0153,0.1994,-0.2362,0.27,-0.9633,1.646,0.2777,0.043,0.089,-0.0,-0.0098,-0.0,0.0,-0.0,0.0,-0.0,-0.0001,-0.0,-0.0005,-0.0,-0.0002,-0.0,0.0,-0.0,-0.0,-0.0,0.0,0.0029,-0.009,-0.0013,0.0013,0.0008,0.1639,0.4634,-0.6903,0.3104,0.6624,-0.9215,0.3033,-0.4001,0.3165,-0.0248,0.6631,-0.9226,0.4436,-0.5462,0.3478,0.4522,0.4977,-0.7012,0.0,0.0,0.0,0.0,0.0,0.0,0.0,0.0,0.0,
4.52,run,0.46,3.46,0.01,-0.06,0.04,0.0,0.0,0.0,0.052,5.62,0.79,6.42,10.81,11.95,-13.27,10.72,-46.93,92.2,-0.79,11.69,-13.36,15.47,-55.02,94.57,15.82,2.64,5.36,5.74,0.49,6.34,10.86,11.45,-13.34,10.62,-47.03,91.93,-0.87,11.49,-13.44,15.53,-55.05,94.59,15.84,2.4,5.4,0.1639,0.4634,-0.6901,0.3103,0.6627,-0.9217,0.3035,-0.4005,0.3169,-0.0248,0.6635,-0.9228,0.4437,-0.5464,0.3482,0.4525,0.4981,-0.7012,0.0,0.0,0.0,0.0,0.013,0.0,0.0,0.0,0.006,0.0,0.0,0.0,0.0,0.0,0.0,0.0,0.0,0.0,0.0982,0.0077,0.1089,0.1871,0.2086,-0.2332,0.1887,-0.8222,1.6015,-0.0153,0.1994,-0.2362,0.27,-0.9633,1.646,0.2777,0.043,0.089,-0.0,-0.0069,-0.0,0.0,-0.0,0.0,-0.0,-0.0001,-0.0,-0.0003,-0.0,-0.0001,-0.0,0.0,-0.0,-0.0,-0.0,0.0,0.0027,-0.0091,-0.0013,-0.0011,0.0012,0.1638,0.4634,-0.69,0.3102,0.6626,-0.9217,0.3034,-0.4004,0.3167,-0.0247,0.6633,-0.9227,0.4437,-0.5464,0.348,0.4524,0.498,-0.7014,0.0,0.0,0.0,0.0,0.0,0.0,0.0,0.0,0.0,
4.56,run,0.47,3.46,0.05,0.11,0.1,0.0,0.0,0.0,0.052,5.62,0.79,6.42,10.81,11.95,-13.27,10.72,-46.93,92.2,-0.79,11.69,-13.36,15.47,-55.02,94.57,15.82,2.64,5.36,5.74,0.48,6.33,10.86,11.45,-13.34,10.62,-47.03,91.93,-0.87,11.49,-13.44,15.53,-55.05,94.59,15.84,2.4,5.4,0.164,0.4633,-0.6902,0.3102,0.6627,-0.9216,0.3035,-0.4006,0.3168,-0.0248,0.6635,-0.9229,0.4437,-0.5464,0.3481,0.4525,0.4981,-0.7012,0.0,0.0,0.0,0.0,0.013,0.0,0.0,0.0,0.006,0.0,0.0,0.0,0.0,0.0,0.0,0.0,0.0,0.0,0.0982,0.0077,0.1089,0.1871,0.2086,-0.2332,0.1887,-0.8222,1.6015,-0.0153,0.1994,-0.2362,0.27,-0.9633,1.646,0.2777,0.043,0.089,-0.0,-0.0048,-0.0,0.0,-0.0,0.0,-0.0,-0.0,-0.0,-0.0002,-0.0,-0.0001,-0.0,0.0,-0.0,-0.0,-0.0,0.0,0.0029,-0.0095,0.0001,-0.0011,0.0007,0.1639,0.4634,-0.6901,0.3103,0.6627,-0.9217,0.3035,-0.4005,0.3169,-0.0248,0.6635,-0.9228,0.4437,-0.5464,0.3482,0.4525,0.4981,-0.7012,0.0,0.0,0.0,0.0,0.0,0.0,0.0,0.0,0.0,
4.6,run,0.47,3.46,-0.01,-0.03,0.06,0.0,0.0,0.0,0.052,5.62,0.79,6.42,10.81,11.95,-13.27,10.72,-46.93,92.2,-0.79,11.69,-13.36,15.47,-55.02,94.57,15.82,2.64,5.36,5.74,0.47,6.34,10.85,11.45,-13.34,10.62,-47.03,91.92,-0.86,11.48,-13.44,15.53,-55.05,94.59,15.84,2.4,5.38,0.164,0.4631,-0.6901,0.3101,0.6627,-0.9216,0.3034,-0.4006,0.3167,-0.0246,0.6634,-0.9228,0.4437,-0.5463,0.3481,0.4525,0.4982,-0.7015,0.0,0.0,0.0,0.0,0.013,0.0,0.0,0.0,0.006,0.0,0.0,0.0,0.0,0.0,0.0,0.0,0.0,0.0,0.0982,0.0077,0.1089,0.1871,0.2086,-0.2332,0.1887,-0.8222,1.6015,-0.0153,0.1994,-0.2362,0.27,-0.9633,1.646,0.2777,0.043,0.089,-0.0,-0.0034,-0.0,0.0,-0.0,0.0,-0.0,-0.0,-0.0,-0.0002,-0.0,-0.0001,-0.0,0.0,-0.0,-0.0,-0.0,0.0,0.0034,-0.0091,0.0009,0.0019,0.0018,0.164,0.4633,-0.6902,0.3102,0.6627,-0.9216,0.3035,-0.4006,0.3168,-0.0248,0.6635,-0.9229,0.4437,-0.5464,0.3481,0.4525,0.4981,-0.7012,0.0,0.0,0.0,0.0,0.0,0.0,0.0,0.0,0.0,
4.64,run,0.47,3.47,-0.01,0.11,0.17,0.0,0.0,0.0,0.052,5.62,0.79,6.42,10.81,11.95,-13.27,10.72,-46.93,92.2,-0.79,11.69,-13.36,15.47,-55.02,94.57,15.82,2.64,5.36,5.74,0.48,6.34,10.86,11.45,-13.34,10.62,-47.04,91.93,-0.87,11.49,-13.45,15.53,-55.05,94.59,15.84,2.4,5.39,0.164,0.4632,-0.6902,0.3102,0.6627,-0.9216,0.3035,-0.4007,0.3168,-0.0248,0.6635,-0.9229,0.4437,-0.5464,0.3481,0.4526,0.4982,-0.7012,0.0,0.006,0.0,0.0,0.006,0.0,0.0,0.0,0.006,0.0,0.0,0.0,0.0,0.0,0.0,0.0,0.006,0.0,0.0982,0.0077,0.1089,0.1871,0.2086,-0.2332,0.1887,-0.8222,1.6015,-0.0153,0.1994,-0.2362,0.27,-0.9633,1.646,0.2777,0.043,0.089,-0.0,-0.0024,-0.0,0.0,-0.0,0.0,-0.0,-0.0,-0.0,-0.0001,-0.0,-0.0,-0.0,0.0,-0.0,-0.0,-0.0,0.0,0.0033,-0.0092,-0.0003,-0.0006,0.0011,0.164,0.4631,-0.6901,0.3101,0.6627,-0.9216,0.3034,-0.4006,0.3167,-0.0246,0.6634,-0.9228,0.4437,-0.5463,0.3481,0.4525,0.4982,-0.7015,0.0,0.0,0.0,0.0,0.0,0.0,0.0,0.0,0.0,
4.68,run,0.47,3.46,-0.03,0.01,0.09,0.0,0.0,0.0,0.052,5.62,0.79,6.42,10.81,11.95,-13.27,10.72,-46.93,92.2,-0.79,11.69,-13.36,15.47,-55.02,94.57,15.82,2.64,5.36,5.74,0.47,6.34,10.85,11.45,-13.33,10.62,-47.03,91.92,-0.86,11.49,-13.44,15.53,-55.04,94.59,15.84,2.4,5.38,0.164,0.4631,-0.6901,0.3101,0.6627,-0.9216,0.3035,-0.4006,0.3167,-0.0247,0.6634,-0.9228,0.4437,-0.5462,0.3482,0.4526,0.4983,-0.7014,0.0,0.006,0.0,0.0,0.006,0.0,0.0,0.0,0.006,0.0,0.0,0.0,0.0,0.0,0.0,0.0,0.006,0.0,0.0982,0.0077,0.1089,0.1871,0.2086,-0.2332,0.1887,-0.8222,1.6015,-0.0153,0.1994,-0.2362,0.27,-0.9633,1.646,0.2777,0.043,0.089,-0.0,-0.0017,-0.0,0.0,-0.0,0.0,-0.0,-0.0,-0.0,-0.0001,-0.0,-0.0,-0.0,0.0,-0.0,-0.0,-0.0,0.0,0.0038,-0.0089,-0.0003,0.0019,0.003,0.164,0.4632,-0.6902,0.3102,0.6627,-0.9216,0.3035,-0.4007,0.3168,-0.0248,0.6635,-0.9229,0.4437,-0.5464,0.3481,0.4526,0.4982,-0.7012,0.0,0.0,0.0,0.0,0.0,0.0,0.0,0.0,0.0,
4.72,run,0.47,3.47,-0.05,0.04,0.09,0.0,0.0,0.0,0.052,5.62,0.79,6.42,10.81,11.95,-13.27,10.72,-46.93,92.2,-0.79,11.69,-13.36,15.47,-55.02,94.57,15.82,2.64,5.36,5.74,0.48,6.34,10.85,11.45,-13.34,10.62,-47.04,91.93,-0.87,11.49,-13.45,15.53,-55.05,94.59,15.84,2.4,5.39,0.164,0.4632,-0.6901,0.3101,0.6627,-0.9217,0.3035,-0.4007,0.3168,-0.0247,0.6635,-0.9229,0.4438,-0.5463,0.3482,0.4527,0.4983,-0.7013,0.0,0.006,0.0,0.0,0.006,0.0,0.0,0.0,0.006,0.0,0.0,0.0,0.0,0.0,0.0,0.0,0.006,0.0,0.0982,0.0077,0.1089,0.1871,0.2086,-0.2332,0.1887,-0.8222,1.6015,-0.0153,0.1994,-0.2362,0.27,-0.9633,1.646,0.2777,0.043,0.089,-0.0,-0.0012,-0.0,0.0,-0.0,0.0,-0.0,-0.0,-0.0,-0.0001,-0.0,-0.0,-0.0,0.0,-0.0,-0.0,-0.0,0.0,0.0036,-0.009,-0.0005,0.0002,0.0015,0.164,0.4631,-0.6901,0.3101,0.6627,-0.9216,0.3035,-0.4006,0.3167,-0.0247,0.6634,-0.9228,0.4437,-0.5462,0.3482,0.4526,0.4983,-0.7014,0.0,0.0,0.0,0.0,0.0,0.0,0.0,0.0,0.0,
4.76,run,0.47,3.47,-0.05,-0.0,0.1,0.0,0.0,0.0,0.052,5.62,0.79,6.42,10.81,11.95,-13.27,10.72,-46.93,92.2,-0.79,11.69,-13.36,15.47,-55.02,94.57,15.82,2.64,5.36,5.74,0.47,6.34,10.85,11.45,-13.34,10.62,-47.04,91.93,-0.87,11.49,-13.45,15.53,-55.05,94.6,15.85,2.41,5.39,0.164,0.4632,-0.6901,0.3101,0.6627,-0.9217,0.3035,-0.4008,0.3168,-0.0247,0.6634,-0.9229,0.4438,-0.5463,0.3482,0.4527,0.4983,-0.7013,0.0,0.006,0.0,0.0,0.013,0.0,0.0,0.0,0.006,0.0,0.006,0.0,0.0,0.0,0.0,0.0,0.006,0.0,0.0982,0.0077,0.1089,0.1871,0.2086,-0.2332,0.1887,-0.8222,1.6015,-0.0153,0.1994,-0.2362,0.27,-0.9633,1.646,0.2777,0.043,0.089,-0.0,-0.0008,-0.0,0.0,-0.0,0.0,-0.0,-0.0,-0.0,-0.0,-0.0,-0.0,-0.0,0.0,-0.0,-0.0,-0.0,0.0,0.0037,-0.0087,-0.0008,0.0007,0.0016,0.164,0.4632,-0.6901,0.3101,0.6627,-0.9217,0.3035,-0.4007,0.3168,-0.0247,0.6635,-0.9229,0.4438,-0.5463,0.3482,0.4527,0.4983,-0.7013,0.0,0.0,0.0,0.0,0.0,0.0,0.0,0.0,0.0,
4.8,run,0.48,3.47,0.02,0.01,0.06,0.0,0.0,0.0,0.052,5.62,0.79,6.42,10.81,11.95,-13.27,10.72,-46.93,92.2,-0.79,11.69,-13.36,15.47,-55.02,94.57,15.82,2.64,5.36,5.74,0.48,6.34,10.85,11.45,-13.34,10.62,-47.04,91.93,-0.87,11.49,-13.45,15.53,-55.05,94.6,15.85,2.41,5.4,0.164,0.4632,-0.6901,0.3101,0.6627,-0.9217,0.3035,-0.4008,0.3169,-0.0248,0.6635,-0.9229,0.4438,-0.5464,0.3482,0.4527,0.4983,-0.7012,0.0,0.006,0.0,0.0,0.013,0.0,0.0,0.0,0.006,0.0,0.006,0.0,0.0,0.0,0.0,0.0,0.006,0.0,0.0982,0.0077,0.1089,0.1871,0.2086,-0.2332,0.1887,-0.8222,1.6015,-0.0153,0.1994,-0.2362,0.27,-0.9633,1.646,0.2777,0.043,0.089,-0.0,-0.0006,-0.0,0.0,-0.0,0.0,-0.0,-0.0,-0.0,-0.0,-0.0,-0.0,-0.0,0.0,-0.0,-0.0,-0.0,0.0,0.0035,-0.0087,-0.0008,-0.0001,0.0018,0.164,0.4632,-0.6901,0.3101,0.6627,-0.9217,0.3035,-0.4008,0.3168,-0.0247,0.6634,-0.9229,0.4438,-0.5463,0.3482,0.4527,0.4983,-0.7013,0.0,0.0,0.0,0.0,0.0,0.0,0.0,0.0,0.0,
4.84,run,0.47,3.47,-0.01,0.07,0.11,0.0,0.0,0.0,0.052,5.62,0.79,6.42,10.81,11.95,-13.27,10.72,-46.93,92.2,-0.79,11.69,-13.36,15.47,-55.02,94.57,15.82,2.64,5.36,5.74,0.47,6.34,10.85,11.45,-13.34,10.62,-47.05,91.93,-0.87,11.49,-13.45,15.53,-55.05,94.6,15.85,2.41,5.39,0.164,0.4631,-0.6901,0.31,0.6627,-0.9217,0.3035,-0.4009,0.3168,-0.0247,0.6634,-0.9229,0.4438,-0.5464,0.3482,0.4528,0.4984,-0.7013,0.0,0.006,0.0,0.0,0.013,0.0,0.0,0.0,0.006,0.0,0.006,0.0,0.0,0.0,0.0,0.0,0.006,0.0,0.0982,0.0077,0.1089,0.1871,0.2086,-0.2332,0.1887,-0.8222,1.6015,-0.0153,0.1994,-0.2362,0.27,-0.9633,1.646,0.2777,0.043,0.089,-0.0,-0.0004,-0.0,0.0,-0.0,0.0,-0.0,-0.0,-0.0,-0.0,-0.0,-0.0,-0.0,0.0,-0.0,-0.0,-0.0,0.0,0.0039,-0.0085,0.0003,0.0002,0.0011,0.164,0.4632,-0.6901,0.3101,0.6627,-0.9217,0.3035,-0.4008,0.3169,-0.0248,0.6635,-0.9229,0.4438,-0.5464,0.3482,0.4527,0.4983,-0.7012,0.0,0.0,0.0,0.0,0.0,0.0,0.0,0.0,0.0,
4.88,run,0.47,3.47,-0.07,0.02,0.12,0.0,0.0,0.0,0.052,5.62,0.79,6.42,10.81,11.95,-13.27,10.72,-46.93,92.2,-0.79,11.69,-13.36,15.47,-55.02,94.57,15.82,2.64,5.36,5.74,0.47,6.35,10.85,11.45,-13.34,10.62,-47.04,91.93,-0.86,11.49,-13.45,15.53,-55.05,94.6,15.85,2.41,5.39,0.164,0.4631,-0.6901,0.31,0.6627,-0.9217,0.3035,-0.4008,0.3168,-0.0247,0.6634,-0.9229,0.4438,-0.5463,0.3482,0.4527,0.4983,-0.7014,0.0,0.006,0.0,0.0,0.006,0.0,0.0,0.0,0.006,0.0,0.0,0.0,0.0,0.0,0.0,0.0,0.0,0.0,0.0982,0.0077,0.1089,0.1871,0.2086,-0.2332,0.1887,-0.8222,1.6015,-0.0153,0.1994,-0.2362,0.27,-0.9633,1.646,0.2777,0.043,0.089,-0.0,-0.0003,-0.0,0.0,-0.0,0.0,-0.0,-0.0,-0.0,-0.0,-0.0,-0.0,-0.0,0.0,-0.0,-0.0,-0.0,0.0,0.0038,-0.0085,-0.0001,0.0011,0.0019,0.164,0.4631,-0.6901,0.31,0.6627,-0.9217,0.3035,-0.4009,0.3168,-0.0247,0.6634,-0.9229,0.4438,-0.5464,0.3482,0.4528,0.4984,-0.7013,0.0,0.0,0.0,0.0,0.0,0.0,0.0,0.0,0.0,
4.92,run,0.47,3.48,0.02,0.06,0.12,0.0,0.0,0.0,0.052,5.62,0.79,6.42,10.81,11.95,-13.27,10.72,-46.93,92.2,-0.79,11.69,-13.36,15.47,-55.02,94.57,15.82,2.64,5.36,5.74,0.47,6.35,10.85,11.45,-13.35,10.62,-47.05,91.94,-0.87,11.49,-13.45,15.53,-55.05,94.6,15.85,2.41,5.39,0.164,0.4632,-0.69,0.3101,0.6627,-0.9217,0.3035,-0.4008,0.3169,-0.0248,0.6634,-0.9229,0.4438,-0.5464,0.3483,0.4528,0.4984,-0.7013,0.0,0.006,0.0,0.0,0.006,0.0,0.0,0.0,0.006,0.0,0.0,0.0,0.0,0.0,0.0,0.0,0.0,0.0,0.0982,0.0077,0.1089,0.1871,0.2086,-0.2332,0.1887,-0.8222,1.6015,-0.0153,0.1994,-0.2362,0.27,-0.9633,1.646,0.2777,0.043,0.089,-0.0,-0.0002,-0.0,0.0,-0.0,0.0,-0.0,-0.0,-0.0,-0.0,-0.0,-0.0,-0.0,0.0,-0.0,-0.0,-0.0,0.0,0.0037,-0.0083,-0.0012,0.0003,0.0022,0.164,0.4631,-0.6901,0.31,0.6627,-0.9217,0.3035,-0.4008,0.3168,-0.0247,0.6634,-0.9229,0.4438,-0.5463,0.3482,0.4527,0.4983,-0.7014,0.0,0.0,0.0,0.0,0.0,0.0,0.0,0.0,0.0,
4.96,run,0.47,3.48,0.01,-0.0,0.11,0.0,0.0,0.0,0.052,5.62,0.79,6.42,10.81,11.95,-13.27,10.72,-46.93,92.2,-0.79,11.69,-13.36,15.47,-55.02,94.57,15.82,2.64,5.36,5.74,0.47,6.35,10.85,11.45,-13.35,10.62,-47.05,91.93,-0.86,11.49,-13.44,15.53,-55.05,94.6,15.85,2.41,5.38,0.164,0.4631,-0.69,0.31,0.6627,-0.9217,0.3035,-0.4009,0.3169,-0.0247,0.6634,-0.9229,0.4438,-0.5464,0.3482,0.4528,0.4984,-0.7014,0.0,0.006,0.0,0.0,0.006,0.0,0.0,0.0,0.006,0.0,0.0,0.0,0.0,0.0,0.0,0.0,0.0,0.0,0.0982,0.0077,0.1089,0.1871,0.2086,-0.2332,0.1887,-0.8222,1.6015,-0.0153,0.1994,-0.2362,0.27,-0.9633,1.646,0.2777,0.043,0.089,-0.0,-0.0001,-0.0,0.0,-0.0,0.0,-0.0,-0.0,-0.0,-0.0,-0.0,-0.0,-0.0,0.0,-0.0,-0.0,-0.0,0.0,0.0036,-0.008,0.0003,0.001,0.0022,0.164,0.4632,-0.69,0.3101,0.6627,-0.9217,0.3035,-0.4008,0.3169,-0.0248,0.6634,-0.9229,0.4438,-0.5464,0.3483,0.4528,0.4984,-0.7013,0.0,0.0,0.0,0.0,0.0,0.0,0.0,0.0,0.0,
