t_s,phase,roll_deg,pitch_deg,gyro_x_dps,gyro_y_dps,gyro_z_dps,height_ref_mm,vx_ref_mps,vy_ref_mps,max_cur_a,q0_deg,q1_deg,q2_deg,q3_deg,q4_deg,q5_deg,q6_deg,q7_deg,q8_deg,q9_deg,q10_deg,q11_deg,q12_deg,q13_deg,q14_deg,q15_deg,q16_deg,q17_deg,cmd0_deg,cmd1_deg,cmd2_deg,cmd3_deg,cmd4_deg,cmd5_deg,cmd6_deg,cmd7_deg,cmd8_deg,cmd9_deg,cmd10_deg,cmd11_deg,cmd12_deg,cmd13_deg,cmd14_deg,cmd15_deg,cmd16_deg,cmd17_deg,act0,act1,act2,act3,act4,act5,act6,act7,act8,act9,act10,act11,act12,act13,act14,act15,act16,act17,cur0_a,cur1_a,cur2_a,cur3_a,cur4_a,cur5_a,cur6_a,cur7_a,cur8_a,cur9_a,cur10_a,cur11_a,cur12_a,cur13_a,cur14_a,cur15_a,cur16_a,cur17_a,obs0,obs1,obs2,obs3,obs4,obs5,obs6,obs7,obs8,obs9,obs10,obs11,obs12,obs13,obs14,obs15,obs16,obs17,obs18,obs19,obs20,obs21,obs22,obs23,obs24,obs25,obs26,obs27,obs28,obs29,obs30,obs31,obs32,obs33,obs34,obs35,obs36,obs37,obs38,obs39,obs40,obs41,obs42,obs43,obs44,obs45,obs46,obs47,obs48,obs49,obs50,obs51,obs52,obs53,obs54,obs55,obs56,obs57,obs58,obs59,obs60,obs61,obs62,obs63,obs64,obs65,obs66,obs67,rot60_k
0.0,run,8.01,5.44,-1.28,3.22,1.06,0.0,0.0,0.0,0.019,-0.09,17.58,64.95,1.67,16.52,72.16,3.16,20.04,83.06,1.14,19.16,74.18,0.26,19.25,82.44,0.7,16.44,76.9,-0.04,16.43,63.71,3.08,15.55,71.1,4.58,19.51,81.91,-0.45,17.66,72.86,1.76,18.45,81.21,2.2,15.55,75.84,-0.0011,0.5862,-0.2626,0.2405,0.6926,-0.4371,0.1913,0.3701,0.0982,-0.1106,0.6446,-0.329,0.1083,0.2845,0.0649,0.2954,0.6522,-0.3699,0.0,0.0,0.0,0.0,0.0,0.006,0.0,0.019,0.0,0.013,0.013,0.006,0.013,0.006,0.0,0.013,0.013,0.0,0.0015,-0.0061,-0.0015,0.0015,0.0,-0.0061,0.0,-0.0169,-0.0046,0.0,0.0,-0.0015,0.0,0.0,-0.0046,0.0,0.0,0.0,0.0037,-0.015,-0.0037,0.0037,0.0,-0.015,0.0,-0.0412,-0.0096,0.0,0.0,-0.0027,0.0,0.0,-0.0101,0.0,0.0,0.0,0.0,0.0,-0.0044,-0.0328,0.0262,0.0,0.0,0.0,0.0,0.0,0.0,0.0,0.0,0.0,0.0,0.0,0.0,0.0,0.0,0.0,0.0,0.0,0.0,0.0,0.0,0.0,0.0,0.0,0.0,0.0,0.0,0.0,
0.04,run,8.12,5.44,2.01,1.45,-0.13,0.0,0.0,0.0,0.019,-0.09,17.23,64.69,1.67,16.17,71.81,3.16,19.95,82.79,0.7,18.98,74.0,0.44,19.07,82.09,0.7,15.91,76.64,0.79,14.93,62.21,4.58,14.05,69.6,6.08,18.01,80.41,-1.68,16.16,71.36,3.26,16.95,79.71,3.7,14.05,74.34,0.0226,0.6369,-0.2595,0.2193,0.7081,-0.3709,0.2002,0.4435,0.0805,-0.0481,0.684,-0.3309,0.1404,0.4206,0.1104,0.1842,0.6261,-0.2198,0.0,0.0,0.0,0.0,0.0,0.006,0.0,0.019,0.0,0.013,0.013,0.006,0.013,0.006,0.0,0.013,0.013,0.0,0.0015,-0.0061,-0.0046,0.0015,-0.0092,-0.0077,0.0015,-0.0169,-0.0061,0.0015,0.0,-0.0031,0.0,-0.0123,-0.0046,0.0,-0.0107,-0.0077,0.0026,-0.0105,-0.0076,0.0026,-0.0151,-0.013,0.0025,-0.0289,-0.0092,0.0025,0.0,-0.0044,0.0,-0.0201,-0.0071,0.0,-0.0176,-0.0125,-0.0105,0.0243,-0.0224,0.0562,0.0186,-0.0011,0.5862,-0.2626,0.2405,0.6926,-0.4371,0.1913,0.3701,0.0982,-0.1106,0.6446,-0.329,0.1083,0.2845,0.0649,0.2954,0.6522,-0.3699,0.0,0.0,0.0,0.0,0.0,0.0,0.0,0.0,0.0,
0.08,run,8.2,5.37,1.31,-1.58,9.18,0.0,0.0,0.0,0.019,0.0,16.79,64.25,2.2,15.56,71.19,3.25,19.07,82.27,0.0,18.37,73.39,1.05,18.11,81.47,1.67,15.38,76.11,0.19,13.43,60.71,5.88,12.73,68.1,5.19,16.51,78.91,-0.94,14.66,69.86,3.32,15.45,79.67,4.39,12.55,72.84,0.0054,0.6282,-0.1157,0.168,0.6861,-0.2138,0.1483,0.5262,0.1476,-0.0269,0.6664,-0.1789,0.095,0.5086,0.1726,0.1255,0.621,-0.0783,0.0,0.0,0.0,0.0,0.0,0.006,0.0,0.019,0.0,0.013,0.013,0.006,0.013,0.006,0.0,0.013,0.013,0.0,0.0015,-0.0123,-0.0092,0.0015,-0.0153,-0.0138,0.0015,-0.0184,-0.0107,-0.0061,-0.0031,-0.0061,0.0031,-0.0153,-0.0107,0.0,-0.0199,-0.0123,0.0018,-0.0307,-0.0229,0.0018,-0.0339,-0.0325,0.0018,-0.026,-0.024,-0.0275,-0.0117,-0.0147,0.0117,-0.0257,-0.0283,0.0,-0.0474,-0.0263,-0.0009,0.0245,0.0351,0.0253,-0.0024,0.0226,0.6369,-0.2595,0.2193,0.7081,-0.3709,0.2002,0.4435,0.0805,-0.0481,0.684,-0.3309,0.1404,0.4206,0.1104,0.1842,0.6261,-0.2198,0.0,0.0,0.0,0.0,0.0,0.0,0.0,0.0,0.0,
0.12,run,8.41,5.41,4.85,-0.14,9.03,0.0,0.0,0.0,0.019,0.26,15.91,63.37,2.81,14.85,70.31,4.04,18.28,81.47,-0.62,17.93,72.42,1.93,17.4,80.6,2.46,14.5,75.32,-0.47,11.93,62.21,4.38,11.23,68.49,3.69,15.01,80.41,-0.51,13.16,70.49,1.82,13.95,81.17,2.89,11.05,73.39,-0.0133,0.6077,0.1061,0.1015,0.6269,0.0411,0.0706,0.5941,0.2575,-0.0145,0.6133,0.0646,0.0324,0.5913,0.2595,0.0482,0.6099,0.0987,0.019,0.0,0.0,0.019,0.0,0.0,0.006,0.0,0.0,0.006,0.013,0.013,0.013,0.0,0.0,0.013,0.0,0.0,0.0031,-0.0199,-0.0169,0.0107,-0.0261,-0.0245,0.0031,-0.0337,-0.0199,-0.0184,-0.0138,-0.0169,0.0138,-0.0322,-0.0215,0.0169,-0.0291,-0.0215,0.007,-0.05,-0.0445,0.0355,-0.0637,-0.0627,0.0069,-0.0753,-0.051,-0.0648,-0.0481,-0.0502,0.0481,-0.0808,-0.0598,0.0627,-0.0674,-0.0526,0.006,0.0183,0.0229,-0.0275,0.1602,0.0054,0.6282,-0.1157,0.168,0.6861,-0.2138,0.1483,0.5262,0.1476,-0.0269,0.6664,-0.1789,0.095,0.5086,0.1726,0.1255,0.621,-0.0783,0.0,0.0,0.0,0.0,0.0,0.0,0.0,0.0,0.0,
0.16,run,8.53,5.49,3.3,1.03,13.01,0.0,0.0,0.0,0.019,0.26,14.59,62.4,3.78,13.62,69.17,4.57,16.61,80.51,-0.97,16.26,71.28,2.64,16.0,79.98,3.52,13.18,74.36,-0.21,10.43,63.71,2.88,9.73,69.99,2.19,13.51,81.91,-0.41,11.66,71.99,0.37,12.45,82.67,1.39,9.55,74.89,-0.006,0.6124,0.2286,0.0639,0.6013,0.1969,0.031,0.6096,0.3036,-0.0117,0.5989,0.1984,0.0106,0.6161,0.2889,0.0014,0.6151,0.1782,0.019,0.0,0.0,0.019,0.0,0.0,0.006,0.0,0.0,0.006,0.013,0.013,0.013,0.0,0.0,0.013,0.0,0.0,0.0077,-0.0353,-0.0322,0.0215,-0.0383,-0.0399,0.0169,-0.0476,-0.0337,-0.0291,-0.0215,-0.0337,0.0291,-0.0445,-0.0368,0.0307,-0.0445,-0.0353,0.022,-0.092,-0.0882,0.0648,-0.0902,-0.1009,0.0562,-0.104,-0.087,-0.0853,-0.0622,-0.0979,0.0907,-0.1021,-0.0988,0.0952,-0.1042,-0.0882,0.0247,0.0224,0.0846,-0.0025,0.1577,-0.0133,0.6077,0.1061,0.1015,0.6269,0.0411,0.0706,0.5941,0.2575,-0.0145,0.6133,0.0646,0.0324,0.5913,0.2595,0.0482,0.6099,0.0987,0.0,0.0,0.0,0.0,0.0,0.0,0.0,0.0,0.0,
0.2,run,9.04,6.06,14.12,15.0,13.34,0.0,0.0,0.0,0.019,-0.18,13.45,61.79,4.57,12.57,68.73,4.66,15.73,80.07,-0.62,15.03,70.75,2.9,14.85,80.07,4.04,12.04,73.92,0.05,8.93,65.21,2.41,8.23,71.49,0.8,12.01,83.41,-0.33,10.16,73.49,0.34,10.95,84.17,-0.11,9.26,76.39,0.0013,0.616,0.2334,0.0689,0.6026,0.2319,0.0229,0.6196,0.2992,-0.0093,0.6013,0.2132,0.0098,0.6225,0.2917,-0.0223,0.6229,0.1803,0.019,0.0,0.0,0.019,0.0,0.0,0.006,0.0,0.0,0.006,0.013,0.013,0.013,0.0,0.0,0.013,0.0,0.0,0.0077,-0.0583,-0.0491,0.0383,-0.0598,-0.0598,0.0261,-0.0767,-0.0506,-0.0353,-0.0506,-0.0537,0.0414,-0.069,-0.0476,0.0491,-0.0675,-0.0522,0.0154,-0.137,-0.115,0.0986,-0.1309,-0.1335,0.0684,-0.1648,-0.1142,-0.0791,-0.1355,-0.1314,0.1022,-0.1489,-0.1031,0.1247,-0.1455,-0.115,0.0346,0.0286,0.0576,0.0179,0.2271,-0.006,0.6124,0.2286,0.0639,0.6013,0.1969,0.031,0.6096,0.3036,-0.0117,0.5989,0.1984,0.0106,0.6161,0.2889,0.0014,0.6151,0.1782,0.0,0.0,0.0,0.0,0.0,0.0,0.0,0.0,0.0,
0.24,run,8.99,6.18,-0.98,3.58,-1.42,0.0,0.0,0.0,0.026,0.0,12.22,61.44,4.92,11.34,68.29,4.66,14.24,79.8,-0.44,13.89,70.58,2.81,13.62,79.98,4.13,10.99,73.56,0.09,8.85,66.71,3.12,8.32,72.99,1.29,10.51,84.91,-0.33,8.66,74.99,0.79,9.45,85.67,-0.67,9.72,77.89,0.0026,0.6155,0.2172,0.0893,0.6058,0.2367,0.037,0.6161,0.2946,-0.0096,0.6003,0.1998,0.0225,0.6254,0.2953,-0.0191,0.6313,0.1771,0.0,0.0,0.0,0.0,0.0,0.013,0.026,0.0,0.006,0.0,0.013,0.0,0.006,0.0,0.026,0.0,0.0,0.006,0.0,-0.0782,-0.0598,0.0522,-0.0782,-0.0675,0.0276,-0.092,-0.0583,-0.0291,-0.0721,-0.0629,0.046,-0.089,-0.046,0.0583,-0.0874,-0.0598,-0.0175,-0.1693,-0.12,0.1198,-0.1594,-0.1217,0.0535,-0.1718,-0.1081,-0.0328,-0.1739,-0.1259,0.0885,-0.1777,-0.0665,0.1212,-0.1753,-0.1087,0.0793,0.0789,0.2465,0.2619,0.2328,0.0013,0.616,0.2334,0.0689,0.6026,0.2319,0.0229,0.6196,0.2992,-0.0093,0.6013,0.2132,0.0098,0.6225,0.2917,-0.0223,0.6229,0.1803,0.0,0.0,0.0,0.0,0.0,0.0,0.0,0.0,0.0,
0.28,run,8.97,6.35,-1.7,5.94,-2.66,0.0,0.0,0.0,0.026,0.0,10.99,61.44,4.92,10.2,68.47,4.04,12.92,79.8,-0.44,12.57,70.84,2.46,12.22,80.6,3.69,10.02,73.56,0.22,9.09,68.21,3.05,8.34,74.49,1.08,9.59,86.41,-0.39,7.87,76.49,0.81,9.91,87.17,-1.22,9.81,78.79,0.0062,0.6198,0.1891,0.0873,0.6061,0.2214,0.031,0.6289,0.2897,-0.0112,0.5976,0.1878,0.0232,0.6347,0.306,-0.0347,0.633,0.1623,0.0,0.0,0.0,0.0,0.0,0.013,0.026,0.0,0.006,0.0,0.013,0.0,0.006,0.0,0.026,0.0,0.0,0.006,0.0031,-0.0997,-0.066,0.0583,-0.0997,-0.0752,0.0276,-0.1181,-0.0629,-0.0261,-0.092,-0.066,0.0445,-0.1104,-0.0476,0.0598,-0.1058,-0.066,-0.0006,-0.1995,-0.1071,0.107,-0.1926,-0.1141,0.0374,-0.2186,-0.0931,-0.0114,-0.1969,-0.0997,0.0562,-0.2054,-0.0523,0.0906,-0.1921,-0.0992,0.0751,0.0894,-0.017,0.0626,-0.0249,0.0026,0.6155,0.2172,0.0893,0.6058,0.2367,0.037,0.6161,0.2946,-0.0096,0.6003,0.1998,0.0225,0.6254,0.2953,-0.0191,0.6313,0.1771,0.0,0.0,0.0,0.0,0.0,0.0,0.0,0.0,0.0,
0.32,run,9.1,6.36,2.21,1.73,-1.36,0.0,0.0,0.0,0.026,-0.09,10.02,61.7,4.92,9.23,68.99,3.16,11.69,80.24,-0.44,11.25,71.37,1.41,10.99,81.65,2.99,9.4,73.83,0.26,8.94,69.71,3.28,8.39,75.99,1.19,9.46,87.91,-0.49,7.7,77.99,1.03,9.96,88.67,-1.35,10.06,77.97,0.0075,0.6172,0.1715,0.0938,0.607,0.2144,0.0341,0.6266,0.2824,-0.0141,0.5945,0.1767,0.0295,0.6356,0.305,-0.0385,0.6374,0.1526,0.0,0.0,0.0,0.0,0.0,0.013,0.026,0.0,0.006,0.0,0.013,0.0,0.006,0.0,0.026,0.0,0.0,0.006,0.0031,-0.1212,-0.066,0.0583,-0.1197,-0.0721,0.0169,-0.1411,-0.0629,-0.0261,-0.115,-0.0614,0.0383,-0.135,-0.0368,0.0522,-0.1227,-0.066,-0.0005,-0.2201,-0.075,0.0749,-0.2095,-0.0684,-0.014,-0.2392,-0.0651,-0.008,-0.2241,-0.0525,0.0163,-0.2357,0.0036,0.0347,-0.1977,-0.0695,0.0728,0.1042,-0.0297,0.1036,-0.0465,0.0062,0.6198,0.1891,0.0873,0.6061,0.2214,0.031,0.6289,0.2897,-0.0112,0.5976,0.1878,0.0232,0.6347,0.306,-0.0347,0.633,0.1623,0.0,0.0,0.0,0.0,0.0,0.0,0.0,0.0,0.0,
0.36,run,9.43,5.64,5.86,-15.81,-10.29,0.0,0.0,0.0,0.045,0.18,9.32,62.58,4.39,8.53,69.79,2.55,10.46,80.86,-0.44,10.02,72.42,1.23,10.2,82.71,1.93,9.05,74.62,0.38,8.77,71.21,3.24,8.33,77.49,1.27,9.1,88.39,-0.51,7.69,79.0,1.23,9.73,90.17,-1.35,10.21,77.17,0.0108,0.6141,0.1645,0.0925,0.606,0.2078,0.0364,0.62,0.2751,-0.0145,0.5943,0.1647,0.0351,0.6314,0.299,-0.0384,0.6401,0.1432,0.0,0.0,0.026,0.006,0.0,0.045,0.033,0.006,0.033,0.0,0.006,0.013,0.013,0.006,0.026,0.006,0.006,0.026,0.0015,-0.1381,-0.0614,0.0583,-0.1365,-0.0629,0.0015,-0.1626,-0.0552,-0.0261,-0.1381,-0.0522,0.0199,-0.1565,-0.0184,0.0399,-0.1335,-0.0614,-0.006,-0.2171,-0.0353,0.0524,-0.2097,-0.0135,-0.0671,-0.2477,-0.0169,-0.0056,-0.2428,-0.0024,-0.0574,-0.2452,0.0713,-0.0216,-0.1785,-0.0314,0.0848,0.1049,0.0386,0.0302,-0.0237,0.0075,0.6172,0.1715,0.0938,0.607,0.2144,0.0341,0.6266,0.2824,-0.0141,0.5945,0.1767,0.0295,0.6356,0.305,-0.0385,0.6374,0.1526,0.0,0.0,0.0,0.0,0.0,0.0,0.0,0.0,0.0,
0.4,run,9.47,5.79,0.28,1.94,-13.19,0.0,0.0,0.0,0.045,0.18,8.88,63.63,3.78,8.17,70.84,2.2,9.67,81.83,-0.53,8.61,73.65,0.62,9.67,84.2,0.79,8.96,75.41,0.64,8.65,72.71,2.78,7.73,78.99,1.41,8.11,87.45,-0.34,7.71,77.5,1.41,8.64,89.6,-1.2,9.96,76.0,0.0182,0.6119,0.1586,0.0795,0.5951,0.1845,0.0404,0.602,0.2641,-0.0098,0.5947,0.1406,0.0402,0.6116,0.2894,-0.0342,0.6356,0.1294,0.0,0.0,0.026,0.006,0.0,0.045,0.033,0.006,0.033,0.0,0.006,0.013,0.013,0.006,0.026,0.006,0.006,0.026,0.0061,-0.1503,-0.046,0.0491,-0.1488,-0.0491,-0.0092,-0.1841,-0.0445,-0.0261,-0.1595,-0.0337,0.0169,-0.1703,0.0,0.0215,-0.1396,-0.0476,0.013,-0.1979,0.0327,0.0022,-0.1927,0.0423,-0.0872,-0.2538,0.0284,-0.0039,-0.2504,0.0673,-0.0516,-0.2234,0.1188,-0.084,-0.1479,0.0297,0.1131,0.0424,0.1023,-0.2758,-0.1796,0.0108,0.6141,0.1645,0.0925,0.606,0.2078,0.0364,0.62,0.2751,-0.0145,0.5943,0.1647,0.0351,0.6314,0.299,-0.0384,0.6401,0.1432,0.0,0.0,0.0,0.0,0.0,0.0,0.0,0.0,0.0,
0.44,run,9.26,5.68,-4.5,-2.16,-4.25,0.0,0.0,0.0,0.045,0.26,8.7,64.86,3.43,7.91,72.16,2.11,8.79,83.06,-0.62,8.17,74.97,0.79,8.96,85.61,0.0,8.88,76.11,0.56,8.02,74.21,2.99,7.66,79.3,1.61,7.43,87.19,-0.47,7.51,76.0,1.62,8.39,89.2,-0.86,9.9,74.86,0.0161,0.6004,0.1392,0.0855,0.5938,0.1682,0.0461,0.5896,0.261,-0.0134,0.5912,0.1256,0.0464,0.6071,0.2847,-0.0247,0.6345,0.1161,0.0,0.0,0.026,0.006,0.0,0.045,0.033,0.006,0.033,0.0,0.006,0.013,0.013,0.006,0.026,0.006,0.006,0.026,0.0061,-0.158,-0.0276,0.0383,-0.1549,-0.0307,-0.0153,-0.1979,-0.0276,-0.0276,-0.1841,-0.0123,0.0061,-0.1795,0.0261,0.0015,-0.1411,-0.0337,0.0091,-0.1675,0.0924,-0.039,-0.1581,0.0991,-0.0842,-0.2298,0.0835,-0.0085,-0.2679,0.1281,-0.0767,-0.1911,0.1816,-0.1341,-0.1093,0.0729,0.1163,0.0554,0.0049,0.0339,-0.2302,0.0182,0.6119,0.1586,0.0795,0.5951,0.1845,0.0404,0.602,0.2641,-0.0098,0.5947,0.1406,0.0402,0.6116,0.2894,-0.0342,0.6356,0.1294,0.0,0.0,0.0,0.0,0.0,0.0,0.0,0.0,0.0,
0.48,run,8.99,5.5,-6.67,-3.92,3.94,0.0,0.0,0.0,0.084,0.35,8.26,66.18,3.25,7.38,73.48,2.11,7.82,84.2,-0.53,7.82,76.03,1.14,8.26,86.66,-0.88,8.88,76.46,0.66,7.29,75.71,2.89,7.44,77.8,1.38,6.58,86.57,-0.58,7.26,74.55,1.69,7.51,88.09,-0.77,9.52,73.5,0.019,0.587,0.1347,0.0825,0.5898,0.1498,0.0395,0.5742,0.2537,-0.0166,0.5865,0.1124,0.0482,0.5911,0.2716,-0.0219,0.6277,0.1,0.006,0.0,0.045,0.006,0.006,0.084,0.026,0.013,0.039,0.006,0.0,0.013,0.033,0.006,0.033,0.0,0.026,0.006,0.0077,-0.1611,-0.0061,0.0322,-0.1595,-0.0077,-0.0169,-0.2132,-0.0061,-0.0291,-0.1917,0.0107,0.0092,-0.1917,0.0506,-0.0123,-0.1427,-0.0215,0.0121,-0.1287,0.1447,-0.0501,-0.1278,0.1551,-0.0647,-0.218,0.1385,-0.0117,-0.2161,0.1754,-0.0422,-0.1795,0.2186,-0.1453,-0.0823,0.0968,0.0987,0.0461,-0.0786,-0.0376,-0.0742,0.0161,0.6004,0.1392,0.0855,0.5938,0.1682,0.0461,0.5896,0.261,-0.0134,0.5912,0.1256,0.0464,0.6071,0.2847,-0.0247,0.6345,0.1161,0.0,0.0,0.0,0.0,0.0,0.0,0.0,0.0,0.0,
0.52,run,9.02,5.38,0.0,-3.14,-8.96,0.0,0.0,0.0,0.084,0.44,7.73,67.59,3.25,7.12,74.71,2.11,7.03,85.17,-0.44,7.47,76.73,1.14,7.73,87.63,-1.14,8.88,76.55,0.69,6.56,75.74,2.89,7.36,76.3,1.26,5.87,86.0,-0.68,6.97,73.39,1.72,6.71,87.38,-0.68,9.19,72.4,0.0197,0.5738,0.1264,0.0826,0.5883,0.1309,0.0359,0.5612,0.2471,-0.0195,0.5812,0.0987,0.0491,0.5766,0.2633,-0.0193,0.6216,0.0871,0.006,0.0,0.045,0.006,0.006,0.084,0.026,0.013,0.039,0.006,0.0,0.013,0.033,0.006,0.033,0.0,0.026,0.006,0.0092,-0.1687,0.0169,0.0291,-0.1687,0.0153,-0.0169,-0.2301,0.0138,-0.0276,-0.1979,0.0291,0.0153,-0.204,0.069,-0.0276,-0.1427,-0.0153,0.0142,-0.1188,0.1875,-0.0466,-0.124,0.1948,-0.0453,-0.2159,0.1717,-0.0024,-0.1743,0.1918,-0.0066,-0.1717,0.222,-0.1592,-0.0576,0.0907,0.0748,0.0303,-0.1164,-0.0684,0.0688,0.019,0.587,0.1347,0.0825,0.5898,0.1498,0.0395,0.5742,0.2537,-0.0166,0.5865,0.1124,0.0482,0.5911,0.2716,-0.0219,0.6277,0.1,0.0,0.0,0.0,0.0,0.0,0.0,0.0,0.0,0.0,
0.56,run,8.92,5.1,-2.95,-7.35,-0.62,0.0,0.0,0.0,0.084,0.44,7.21,68.91,3.25,7.03,75.67,2.11,6.24,85.87,-0.7,7.21,77.34,1.14,7.03,88.24,-1.23,8.88,76.46,0.73,6.19,74.57,2.86,7.34,74.8,1.75,5.08,85.73,-0.49,6.99,71.89,1.98,5.81,87.64,-0.26,8.93,71.78,0.0208,0.567,0.1126,0.0817,0.5879,0.1025,0.05,0.5468,0.2439,-0.0139,0.5817,0.0768,0.0566,0.5601,0.2663,-0.0075,0.617,0.0798,0.006,0.0,0.045,0.006,0.006,0.084,0.026,0.013,0.039,0.006,0.0,0.013,0.033,0.006,0.033,0.0,0.026,0.006,0.0107,-0.1779,0.0414,0.0291,-0.1733,0.0368,-0.0169,-0.2439,0.0307,-0.0261,-0.204,0.0414,0.0153,-0.2132,0.0859,-0.0322,-0.1427,-0.0138,0.0157,-0.1179,0.2238,-0.0326,-0.1041,0.2174,-0.0317,-0.2032,0.1838,0.0041,-0.1451,0.1805,-0.0046,-0.1549,0.219,-0.1288,-0.0403,0.0693,0.0774,0.0194,0.0,-0.0548,-0.1564,0.0197,0.5738,0.1264,0.0826,0.5883,0.1309,0.0359,0.5612,0.2471,-0.0195,0.5812,0.0987,0.0491,0.5766,0.2633,-0.0193,0.6216,0.0871,0.0,0.0,0.0,0.0,0.0,0.0,0.0,0.0,0.0,
0.6,run,8.85,5.19,-1.52,0.96,3.64,0.0,0.0,0.0,0.091,0.44,6.59,70.31,3.25,7.03,76.29,2.11,5.45,86.31,-0.7,7.12,77.43,1.23,6.33,88.59,-0.79,8.61,75.85,0.83,5.72,74.32,2.95,7.39,73.3,1.64,4.68,85.37,-0.61,6.88,70.92,1.98,5.22,87.35,-0.13,8.67,71.08,0.0238,0.5586,0.1097,0.0843,0.589,0.0875,0.0469,0.5397,0.2397,-0.0174,0.5797,0.0696,0.0565,0.5494,0.2629,-0.0038,0.6122,0.0715,0.013,0.0,0.039,0.006,0.0,0.091,0.013,0.013,0.019,0.006,0.006,0.006,0.019,0.0,0.019,0.0,0.006,0.006,0.0107,-0.1871,0.0644,0.0291,-0.1749,0.0537,-0.0169,-0.2577,0.043,-0.0307,-0.2086,0.0522,0.0153,-0.2255,0.0966,-0.0337,-0.1427,-0.0153,0.011,-0.1169,0.2426,-0.0228,-0.0786,0.2152,-0.0222,-0.1938,0.1745,-0.0143,-0.1188,0.1665,-0.0032,-0.1542,0.1934,-0.0959,-0.0282,0.0428,0.0688,-0.0046,-0.0515,-0.1284,-0.0107,0.0208,0.567,0.1126,0.0817,0.5879,0.1025,0.05,0.5468,0.2439,-0.0139,0.5817,0.0768,0.0566,0.5601,0.2663,-0.0075,0.617,0.0798,0.0,0.0,0.0,0.0,0.0,0.0,0.0,0.0,0.0,
0.64,run,8.91,5.3,1.18,3.44,1.27,0.0,0.0,0.0,0.091,0.44,5.98,71.46,3.25,7.03,76.73,2.11,4.75,86.4,-0.79,7.12,77.26,1.58,5.54,88.77,-0.44,8.44,74.88,0.8,5.42,74.16,3.27,7.52,72.18,1.82,4.62,85.24,-0.65,6.75,70.97,2.03,5.11,87.44,0.02,8.65,70.83,0.0229,0.5531,0.1077,0.0935,0.5912,0.0844,0.052,0.5386,0.2381,-0.0185,0.5772,0.0702,0.0579,0.5474,0.264,0.0005,0.6118,0.0686,0.013,0.0,0.039,0.006,0.0,0.091,0.013,0.013,0.019,0.006,0.006,0.006,0.019,0.0,0.019,0.0,0.006,0.006,0.0107,-0.1979,0.089,0.0291,-0.1749,0.0644,-0.0169,-0.2715,0.0506,-0.0307,-0.2102,0.0537,0.0169,-0.2378,0.1028,-0.0261,-0.1473,-0.0261,0.0077,-0.1223,0.2623,-0.016,-0.055,0.1911,-0.0155,-0.1877,0.1511,-0.01,-0.0889,0.1223,0.0035,-0.1542,0.1585,-0.0382,-0.0371,-0.0105,0.063,0.0027,-0.0265,0.0167,0.0636,0.0238,0.5586,0.1097,0.0843,0.589,0.0875,0.0469,0.5397,0.2397,-0.0174,0.5797,0.0696,0.0565,0.5494,0.2629,-0.0038,0.6122,0.0715,0.0,0.0,0.0,0.0,0.0,0.0,0.0,0.0,0.0,
0.68,run,8.88,5.11,-0.59,-5.0,4.03,0.0,0.0,0.0,0.091,0.44,5.54,72.33,3.25,6.94,76.82,2.11,4.31,86.4,-0.53,7.12,76.29,1.67,5.01,88.42,-0.26,8.26,73.65,0.8,5.5,74.19,3.44,7.78,72.16,2.06,4.8,85.35,-0.63,6.83,71.19,2.06,5.19,88.13,0.12,8.8,71.05,0.0228,0.5546,0.1081,0.0983,0.5959,0.0842,0.059,0.5419,0.2394,-0.018,0.5788,0.0728,0.0588,0.5489,0.2721,0.0035,0.6145,0.0712,0.013,0.0,0.039,0.006,0.0,0.091,0.013,0.013,0.019,0.006,0.006,0.006,0.019,0.0,0.019,0.0,0.006,0.006,0.0107,-0.2086,0.1089,0.0291,-0.1749,0.0721,-0.0169,-0.2838,0.0522,-0.0322,-0.2102,0.0506,0.023,-0.2516,0.1058,-0.0199,-0.1503,-0.043,0.0054,-0.1259,0.2584,-0.0112,-0.0385,0.1625,-0.0109,-0.1774,0.1115,-0.0128,-0.0623,0.0741,0.0255,-0.1597,0.1225,-0.0038,-0.0375,-0.0706,0.0681,0.0128,0.0207,0.06,0.0222,0.0229,0.5531,0.1077,0.0935,0.5912,0.0844,0.052,0.5386,0.2381,-0.0185,0.5772,0.0702,0.0579,0.5474,0.264,0.0005,0.6118,0.0686,0.0,0.0,0.0,0.0,0.0,0.0,0.0,0.0,0.0,
0.72,run,8.83,5.18,-1.25,2.29,-0.29,0.0,0.0,0.0,0.091,0.44,5.45,73.12,3.25,6.94,76.73,2.11,4.22,85.96,-0.62,7.03,75.41,1.67,4.83,87.89,-0.18,8.26,72.6,0.89,6.25,75.01,3.54,8.34,73.1,2.04,5.74,85.73,-0.77,7.18,72.54,1.91,5.74,89.32,-0.12,9.09,72.12,0.0255,0.5682,0.1177,0.1012,0.6061,0.0953,0.0582,0.5589,0.2439,-0.022,0.585,0.0887,0.0546,0.559,0.2861,-0.0034,0.6198,0.0837,0.013,0.0,0.026,0.006,0.033,0.0,0.0,0.039,0.0,0.006,0.0,0.019,0.013,0.026,0.006,0.006,0.019,0.0,0.0107,-0.2163,0.1243,0.0291,-0.1764,0.0736,-0.0169,-0.2915,0.0522,-0.0276,-0.2102,0.0337,0.0245,-0.2608,0.0997,-0.0169,-0.1534,-0.0644,0.0038,-0.1166,0.2379,-0.0078,-0.0327,0.1195,-0.0076,-0.1527,0.078,0.0082,-0.0436,-0.0109,0.0235,-0.146,0.0629,0.0088,-0.0376,-0.1293,0.0654,-0.0044,-0.0104,-0.0872,0.0703,0.0228,0.5546,0.1081,0.0983,0.5959,0.0842,0.059,0.5419,0.2394,-0.018,0.5788,0.0728,0.0588,0.5489,0.2721,0.0035,0.6145,0.0712,0.0,0.0,0.0,0.0,0.0,0.0,0.0,0.0,0.0,
0.76,run,8.55,4.9,-8.06,-5.62,-1.13,0.0,0.0,0.0,0.091,0.53,5.45,73.56,3.25,6.94,75.85,2.2,4.22,85.61,-0.7,7.29,74.18,1.67,4.83,87.8,-0.26,8.26,71.81,0.86,6.58,74.99,3.6,8.56,73.84,2.14,6.16,85.83,-0.77,7.12,73.53,1.9,6.19,89.84,-0.22,9.21,72.88,0.0245,0.5741,0.1175,0.1028,0.6101,0.104,0.0611,0.5665,0.2451,-0.022,0.584,0.1003,0.0543,0.5671,0.2922,-0.0064,0.6219,0.0927,0.013,0.0,0.026,0.006,0.033,0.0,0.0,0.039,0.0,0.006,0.0,0.019,0.013,0.026,0.006,0.006,0.019,0.0,0.0107,-0.2178,0.1381,0.0291,-0.1764,0.0721,-0.0169,-0.293,0.0445,-0.0291,-0.2117,0.0184,0.0245,-0.2638,0.0905,-0.0153,-0.1534,-0.0828,0.0026,-0.0874,0.2182,-0.0055,-0.0229,0.0779,-0.0053,-0.1126,0.0259,-0.0,-0.0362,-0.065,0.0165,-0.1137,0.0096,0.0119,-0.0263,-0.1594,0.0605,0.0022,-0.0218,0.04,-0.005,0.0255,0.5682,0.1177,0.1012,0.6061,0.0953,0.0582,0.5589,0.2439,-0.022,0.585,0.0887,0.0546,0.559,0.2861,-0.0034,0.6198,0.0837,0.0,0.0,0.0,0.0,0.0,0.0,0.0,0.0,0.0,
0.8,run,8.73,5.04,3.35,4.24,2.68,0.0,0.0,0.0,0.091,0.79,5.45,74.0,3.43,6.94,74.97,2.2,4.22,85.52,-0.7,7.29,73.39,1.67,4.83,87.98,-0.35,8.26,71.19,0.93,6.96,75.25,3.4,8.86,74.36,1.97,6.73,86.21,-0.86,7.22,74.72,1.82,6.53,90.75,-0.52,9.2,73.63,0.0265,0.5811,0.1206,0.0972,0.6157,0.1101,0.0563,0.5768,0.2495,-0.0245,0.5859,0.1144,0.0519,0.5732,0.303,-0.0148,0.6217,0.1016,0.013,0.0,0.026,0.006,0.033,0.0,0.0,0.039,0.0,0.006,0.0,0.019,0.013,0.026,0.006,0.006,0.019,0.0,0.0123,-0.2178,0.1457,0.0291,-0.1764,0.0568,-0.0153,-0.293,0.0383,-0.0307,-0.2071,-0.0031,0.0245,-0.2638,0.089,-0.0169,-0.1534,-0.0966,0.0077,-0.0612,0.1818,-0.0038,-0.016,-0.0036,0.0021,-0.0788,-0.0051,-0.0058,-0.0079,-0.1269,0.0115,-0.0796,0.0009,0.0025,-0.0184,-0.1639,0.0365,-0.0229,-0.1407,-0.0981,-0.0197,0.0245,0.5741,0.1175,0.1028,0.6101,0.104,0.0611,0.5665,0.2451,-0.022,0.584,0.1003,0.0543,0.5671,0.2922,-0.0064,0.6219,0.0927,0.0,0.0,0.0,0.0,0.0,0.0,0.0,0.0,0.0,
0.84,run,9.12,4.85,9.92,-3.82,-5.97,0.0,0.0,0.0,0.156,0.79,5.45,74.27,3.43,7.03,74.27,2.2,4.92,85.61,-0.88,7.29,72.77,1.67,5.27,88.77,-0.35,8.26,70.93,0.86,6.85,75.54,3.58,8.54,75.29,2.28,6.39,85.68,-0.8,6.97,74.68,1.92,6.51,89.41,-0.35,9.26,73.72,0.0245,0.5791,0.1239,0.1023,0.6098,0.121,0.0653,0.5707,0.2433,-0.0227,0.5813,0.1138,0.055,0.573,0.2872,-0.0101,0.6229,0.1026,0.006,0.045,0.019,0.0,0.052,0.0,0.0,0.156,0.006,0.006,0.006,0.006,0.013,0.071,0.019,0.0,0.026,0.006,0.0169,-0.2178,0.1534,0.0322,-0.1764,0.0414,-0.0153,-0.293,0.0368,-0.0307,-0.2071,-0.0169,0.0245,-0.2638,0.092,-0.0184,-0.1534,-0.1074,0.0225,-0.0428,0.1559,0.0088,-0.0112,-0.0598,0.0015,-0.0552,-0.0093,-0.0041,-0.0056,-0.1403,0.0081,-0.0557,0.0121,-0.004,-0.0129,-0.1548,0.052,-0.0098,0.0585,0.074,0.0468,0.0265,0.5811,0.1206,0.0972,0.6157,0.1101,0.0563,0.5768,0.2495,-0.0245,0.5859,0.1144,0.0519,0.5732,0.303,-0.0148,0.6217,0.1016,0.0,0.0,0.0,0.0,0.0,0.0,0.0,0.0,0.0,
0.88,run,9.3,4.66,5.36,-4.03,-2.52,0.0,0.0,0.0,0.156,0.79,5.45,74.53,3.43,7.21,73.83,2.2,5.1,85.69,-0.97,7.21,72.6,1.67,5.45,89.47,-0.44,8.26,70.93,0.95,7.3,75.65,3.47,8.46,75.08,2.66,6.23,86.01,-0.77,7.32,74.08,2.08,6.3,89.8,-0.09,9.3,73.99,0.0272,0.5872,0.1253,0.0991,0.6083,0.1186,0.0761,0.5678,0.2471,-0.0219,0.5876,0.1068,0.0594,0.5691,0.2918,-0.0024,0.6236,0.1058,0.006,0.045,0.019,0.0,0.052,0.0,0.0,0.156,0.006,0.006,0.006,0.006,0.013,0.071,0.019,0.0,0.026,0.006,0.0169,-0.2178,0.158,0.0322,-0.1749,0.0291,-0.0153,-0.2807,0.0383,-0.0337,-0.2071,-0.0276,0.0245,-0.2562,0.1058,-0.0184,-0.1534,-0.112,0.0158,-0.03,0.1264,0.0061,-0.0021,-0.088,0.001,0.0076,-0.0007,-0.0144,-0.0039,-0.1387,0.0057,-0.0101,0.0605,-0.0028,-0.009,-0.1257,0.0859,-0.0271,0.1731,-0.0667,-0.1041,0.0245,0.5791,0.1239,0.1023,0.6098,0.121,0.0653,0.5707,0.2433,-0.0227,0.5813,0.1138,0.055,0.573,0.2872,-0.0101,0.6229,0.1026,0.0,0.0,0.0,0.0,0.0,0.0,0.0,0.0,0.0,
0.92,run,9.13,4.71,-2.63,-0.03,3.4,0.0,0.0,0.0,0.156,0.88,5.45,74.71,3.43,7.21,73.48,2.29,5.1,85.69,-0.88,7.03,72.6,1.67,5.45,89.91,-0.44,8.26,71.28,1.01,7.13,75.79,3.45,8.29,75.09,2.61,6.01,85.89,-0.84,7.26,74.09,2.11,6.22,89.47,0.05,9.23,73.66,0.0287,0.5843,0.1269,0.0987,0.6052,0.1188,0.0746,0.5637,0.2457,-0.024,0.5865,0.1069,0.0603,0.5676,0.2879,0.0014,0.6224,0.1019,0.006,0.045,0.019,0.0,0.052,0.0,0.0,0.156,0.006,0.006,0.006,0.006,0.013,0.071,0.019,0.0,0.026,0.006,0.0169,-0.2178,0.1626,0.0322,-0.1718,0.0215,-0.0153,-0.2777,0.0399,-0.0353,-0.2086,-0.0307,0.0245,-0.2531,0.1181,-0.0199,-0.1534,-0.112,0.011,-0.021,0.1058,0.0043,0.0101,-0.0904,0.0007,0.0168,0.0053,-0.0158,-0.0085,-0.1086,0.004,0.0044,0.0884,-0.0077,-0.0063,-0.088,0.1016,-0.0437,0.0935,-0.0704,-0.0439,0.0272,0.5872,0.1253,0.0991,0.6083,0.1186,0.0761,0.5678,0.2471,-0.0219,0.5876,0.1068,0.0594,0.5691,0.2918,-0.0024,0.6236,0.1058,0.0,0.0,0.0,0.0,0.0,0.0,0.0,0.0,0.0,
0.96,run,9.04,4.81,-1.07,1.86,-1.69,0.0,0.0,0.0,0.156,0.97,5.62,74.88,3.43,7.21,73.65,2.46,5.1,85.69,-0.88,6.94,73.39,1.67,5.45,89.91,-0.09,8.26,71.98,0.99,6.8,75.59,3.46,8.25,75.18,2.37,5.94,85.87,-0.95,7.05,74.43,2.08,6.36,89.31,-0.0,9.19,73.24,0.0282,0.5782,0.1245,0.0989,0.6046,0.1197,0.0678,0.5625,0.2456,-0.0271,0.5826,0.111,0.0593,0.5702,0.286,-0.0001,0.6217,0.097,0.0,0.045,0.013,0.0,0.033,0.065,0.0,0.052,0.0,0.0,0.0,0.0,0.019,0.052,0.0,0.006,0.026,0.033,0.0184,-0.2178,0.1657,0.0322,-0.1718,0.0153,-0.0138,-0.2777,0.0399,-0.0337,-0.2117,-0.0307,0.0245,-0.2531,0.1258,-0.0199,-0.1534,-0.1058,0.0135,-0.0147,0.0855,0.003,0.0071,-0.0862,0.0062,0.0118,0.0037,-0.0054,-0.0174,-0.076,0.0028,0.0031,0.0905,-0.0054,-0.0044,-0.0387,0.0874,-0.0392,-0.046,-0.0005,0.0593,0.0287,0.5843,0.1269,0.0987,0.6052,0.1188,0.0746,0.5637,0.2457,-0.024,0.5865,0.1069,0.0603,0.5676,0.2879,0.0014,0.6224,0.1019,0.0,0.0,0.0,0.0,0.0,0.0,0.0,0.0,0.0,
1.0,run,9.01,4.83,-0.88,1.52,-0.2,-0.0,0.0,0.0,0.156,0.97,5.62,74.88,3.43,7.21,74.09,2.46,5.1,85.69,-0.79,6.94,73.92,1.76,5.45,89.56,-0.26,8.26,72.42,1.0,6.39,74.97,3.35,8.0,74.11,2.41,5.37,85.63,-0.75,6.83,73.5,2.16,5.83,88.74,0.08,8.94,72.66,0.0286,0.5707,0.1172,0.0957,0.5999,0.1071,0.0687,0.5522,0.2427,-0.0215,0.5787,0.1,0.0618,0.5605,0.2793,0.0023,0.6171,0.0901,0.0,0.045,0.013,0.0,0.033,0.065,0.0,0.052,0.0,0.0,0.0,0.0,0.019,0.052,0.0,0.006,0.026,0.033,0.0199,-0.2148,0.1687,0.0322,-0.1718,0.0184,-0.0107,-0.2777,0.0399,-0.0337,-0.2132,-0.0169,0.0245,-0.2531,0.1258,-0.0138,-0.1534,-0.0936,0.0152,0.0012,0.0714,0.0021,0.0049,-0.0488,0.0159,0.0082,0.0026,-0.0038,-0.0179,-0.0015,0.0019,0.0022,0.0633,0.0192,-0.0031,0.0189,0.0796,-0.0305,-0.0186,0.0324,-0.0295,0.0282,0.5782,0.1245,0.0989,0.6046,0.1197,0.0678,0.5625,0.2456,-0.0271,0.5826,0.111,0.0593,0.5702,0.286,-0.0001,0.6217,0.097,0.0,0.0,-0.0,0.0,0.0,0.0,0.0,0.0,0.0,
1.04,run,9.01,4.82,-0.38,-0.12,0.96,-0.4,0.0,0.0,0.156,0.97,5.62,74.88,3.43,7.21,74.27,2.46,5.1,85.69,-0.79,6.94,74.27,1.76,5.45,89.12,-0.09,8.26,72.51,1.0,6.33,75.05,3.36,7.96,74.24,2.41,5.37,85.95,-0.71,6.7,73.56,2.19,5.81,89.33,0.06,8.82,72.96,0.0287,0.5697,0.1183,0.0961,0.5992,0.1087,0.069,0.5523,0.2464,-0.0203,0.5764,0.1007,0.0625,0.5602,0.2862,0.0017,0.615,0.0936,0.0,0.045,0.013,0.0,0.033,0.065,0.0,0.052,0.0,0.0,0.0,0.0,0.019,0.052,0.0,0.006,0.026,0.033,0.0199,-0.2148,0.1687,0.0322,-0.1718,0.0261,-0.0107,-0.2777,0.0399,-0.0322,-0.2132,-0.0077,0.0261,-0.2531,0.1197,-0.0169,-0.1534,-0.0859,0.0106,0.0009,0.0499,0.0015,0.0035,-0.0054,0.0111,0.0058,0.0018,0.0031,-0.0125,0.0335,0.0071,0.0015,0.0213,0.002,-0.0022,0.042,0.077,-0.0287,-0.0154,0.0266,-0.0034,0.0286,0.5707,0.1172,0.0957,0.5999,0.1071,0.0687,0.5522,0.2427,-0.0215,0.5787,0.1,0.0618,0.5605,0.2793,0.0023,0.6171,0.0901,0.0,0.0,-0.0072,0.0,0.0,0.0,0.0,0.0,0.0,
1.08,run,8.98,4.79,-0.72,-1.1,-1.26,-0.7,0.0,0.0,0.156,0.97,5.62,74.88,3.43,7.21,74.27,2.46,5.01,85.69,-0.79,6.86,74.09,1.85,5.36,88.86,-0.18,8.26,72.51,1.07,6.51,75.58,3.37,7.97,74.99,2.41,5.67,86.27,-0.67,6.71,74.18,2.19,5.97,90.03,-0.06,8.77,73.67,0.0305,0.5729,0.1245,0.0963,0.5995,0.1176,0.0687,0.5577,0.2503,-0.0192,0.5765,0.108,0.0625,0.5631,0.2945,-0.0018,0.614,0.1019,0.0,0.019,0.006,0.0,0.019,0.0,0.0,0.052,0.013,0.0,0.006,0.006,0.019,0.026,0.0,0.006,0.006,0.006,0.0199,-0.2148,0.1687,0.0322,-0.1718,0.0291,-0.0107,-0.2777,0.0399,-0.0322,-0.2132,-0.0015,0.0261,-0.2531,0.112,-0.0138,-0.1534,-0.0844,0.0074,0.0006,0.035,0.001,0.0024,0.0077,0.0078,0.004,0.0013,0.0022,-0.0088,0.0465,0.005,0.0011,-0.0138,0.0129,-0.0015,0.0352,0.0763,-0.0293,-0.0067,-0.0021,0.0167,0.0287,0.5697,0.1183,0.0961,0.5992,0.1087,0.069,0.5523,0.2464,-0.0203,0.5764,0.1007,0.0625,0.5602,0.2862,0.0017,0.615,0.0936,0.0,0.0,-0.0144,0.0,0.0,0.0,0.0,0.0,0.0,
1.12,run,9.03,4.8,0.75,-0.06,0.54,-1.1,0.0,0.0,0.156,0.97,5.62,74.88,3.43,7.21,73.92,2.46,4.92,85.69,-0.79,6.86,73.83,1.85,5.36,88.86,-0.26,8.26,72.51,1.1,6.76,76.04,3.31,8.04,75.85,2.43,6.01,86.67,-0.64,6.72,74.97,2.2,6.22,91.0,-0.21,8.77,74.5,0.0314,0.5774,0.1299,0.0946,0.6007,0.1277,0.0695,0.5639,0.255,-0.0183,0.5767,0.1173,0.0628,0.5677,0.3059,-0.0059,0.6139,0.1118,0.0,0.019,0.006,0.0,0.019,0.0,0.0,0.052,0.013,0.0,0.006,0.006,0.019,0.026,0.0,0.006,0.006,0.006,0.0199,-0.2148,0.1687,0.0322,-0.1718,0.0291,-0.0107,-0.2792,0.0399,-0.0322,-0.2148,-0.0046,0.0276,-0.2546,0.1074,-0.0153,-0.1534,-0.0844,0.0052,0.0004,0.0245,0.0007,0.0017,0.0054,0.0054,-0.0029,0.0009,0.0015,-0.0119,0.021,0.0092,-0.005,-0.027,0.0033,-0.0011,0.0246,0.0743,-0.0324,-0.0125,-0.0192,-0.0219,0.0305,0.5729,0.1245,0.0963,0.5995,0.1176,0.0687,0.5577,0.2503,-0.0192,0.5765,0.108,0.0625,0.5631,0.2945,-0.0018,0.614,0.1019,0.0,0.0,-0.0216,0.0,0.0,0.0,0.0,0.0,0.0,
1.16,run,9.02,4.78,-0.15,-0.31,-1.15,-1.4,0.0,0.0,0.156,0.97,5.62,74.88,3.43,7.21,73.92,2.46,4.92,85.69,-0.79,6.86,73.83,1.85,5.36,89.38,-0.35,8.26,72.51,1.13,6.82,76.66,3.28,7.94,76.99,2.46,6.16,86.9,-0.61,6.62,75.76,2.24,6.42,91.39,-0.31,8.75,75.19,0.0323,0.5786,0.1372,0.0938,0.5989,0.1411,0.0702,0.5666,0.2577,-0.0175,0.5748,0.1266,0.064,0.5713,0.3105,-0.0089,0.6136,0.1199,0.0,0.019,0.006,0.0,0.019,0.0,0.0,0.052,0.013,0.0,0.006,0.006,0.019,0.026,0.0,0.006,0.006,0.006,0.0199,-0.2148,0.1687,0.0322,-0.1718,0.023,-0.0107,-0.2807,0.0399,-0.0322,-0.2148,-0.0092,0.0276,-0.2546,0.1074,-0.0169,-0.1534,-0.0844,0.0036,0.0003,0.0171,0.0005,0.0012,-0.0192,0.0038,-0.0078,0.0006,0.0011,-0.0083,-0.0025,0.0065,-0.0035,-0.0189,-0.0035,-0.0007,0.0172,0.0779,-0.0314,0.0131,-0.0011,0.0094,0.0314,0.5774,0.1299,0.0946,0.6007,0.1277,0.0695,0.5639,0.255,-0.0183,0.5767,0.1173,0.0628,0.5677,0.3059,-0.0059,0.6139,0.1118,0.0,0.0,-0.0288,0.0,0.0,0.0,0.0,0.0,0.0,
1.2,run,8.96,4.74,-1.42,-0.54,-0.63,-1.8,0.0,0.0,0.156,0.97,5.62,75.23,3.43,7.21,74.36,2.46,4.92,86.04,-0.62,6.68,74.53,1.85,5.36,90.18,-0.35,8.26,72.95,1.17,6.8,77.05,3.14,7.83,77.64,2.5,6.21,87.25,-0.54,6.54,76.3,2.3,6.47,92.01,-0.36,8.62,75.73,0.0335,0.5782,0.1417,0.0897,0.597,0.1487,0.0714,0.5674,0.2618,-0.0154,0.5735,0.1329,0.0658,0.5723,0.3177,-0.0103,0.6113,0.1262,0.006,0.033,0.033,0.0,0.013,0.091,0.0,0.104,0.019,0.006,0.0,0.013,0.019,0.111,0.019,0.0,0.006,0.052,0.0199,-0.2148,0.1687,0.0322,-0.1718,0.023,-0.0107,-0.2807,0.0399,-0.0322,-0.2148,-0.0092,0.0276,-0.2546,0.1166,-0.0184,-0.1534,-0.0844,0.0025,0.0002,0.012,0.0004,0.0008,-0.0134,0.0027,-0.0055,0.0004,0.0007,-0.0058,-0.0018,0.0045,-0.0025,0.0213,-0.0082,-0.0005,0.0121,0.0773,-0.0328,-0.0027,-0.0054,-0.0201,0.0323,0.5786,0.1372,0.0938,0.5989,0.1411,0.0702,0.5666,0.2577,-0.0175,0.5748,0.1266,0.064,0.5713,0.3105,-0.0089,0.6136,0.1199,0.0,0.0,-0.036,0.0,0.0,0.0,0.0,0.0,0.0,
1.24,run,8.88,4.66,-2.53,-1.37,-1.32,-2.2,0.0,0.0,0.156,1.05,5.62,75.67,3.43,7.21,75.15,2.46,4.92,86.31,-0.62,6.68,75.32,1.85,5.36,90.88,-0.35,8.26,73.56,1.27,6.51,77.39,2.95,7.6,77.77,2.48,5.94,87.34,-0.44,6.4,76.41,2.4,6.22,92.03,-0.36,8.38,75.88,0.0364,0.5729,0.1457,0.0842,0.5928,0.1503,0.071,0.5626,0.2629,-0.0125,0.5709,0.1342,0.0686,0.5677,0.318,-0.0104,0.6069,0.128,0.006,0.033,0.033,0.0,0.013,0.091,0.0,0.104,0.019,0.006,0.0,0.013,0.019,0.111,0.019,0.0,0.006,0.052,0.0199,-0.2148,0.1749,0.0322,-0.1718,0.0307,-0.0107,-0.2807,0.046,-0.0291,-0.2178,0.0031,0.0276,-0.2546,0.1304,-0.0184,-0.1534,-0.0767,0.0018,0.0001,0.0315,0.0002,0.0006,0.0194,0.0019,-0.0038,0.0234,0.0121,-0.0156,0.0449,0.0032,-0.0017,0.0669,-0.0057,-0.0004,0.0373,0.0726,-0.0364,-0.0248,-0.0094,-0.011,0.0335,0.5782,0.1417,0.0897,0.597,0.1487,0.0714,0.5674,0.2618,-0.0154,0.5735,0.1329,0.0658,0.5723,0.3177,-0.0103,0.6113,0.1262,0.0,0.0,-0.0432,0.0,0.0,0.0,0.0,0.0,0.0,
1.28,run,8.85,4.58,-0.77,-1.6,0.29,-2.5,0.0,0.0,0.156,1.14,5.62,76.11,3.43,7.21,75.94,2.46,4.92,86.48,-0.62,6.68,75.85,1.85,5.36,91.41,-0.35,8.09,74.18,1.35,6.21,77.57,2.75,7.39,77.59,2.49,5.66,87.53,-0.3,6.25,76.33,2.49,5.88,92.22,-0.34,8.09,75.96,0.0387,0.5675,0.1479,0.0787,0.5889,0.1481,0.0711,0.5575,0.2651,-0.0085,0.5682,0.1333,0.0712,0.5615,0.3203,-0.0096,0.6017,0.1289,0.006,0.033,0.033,0.0,0.013,0.091,0.0,0.104,0.019,0.006,0.0,0.013,0.019,0.111,0.019,0.0,0.006,0.052,0.0215,-0.2148,0.1825,0.0322,-0.1718,0.0445,-0.0107,-0.2807,0.0506,-0.0291,-0.2178,0.0169,0.0276,-0.2546,0.1427,-0.0184,-0.1534,-0.066,0.007,0.0001,0.0508,0.0002,0.0004,0.0654,0.0013,-0.0027,0.0336,0.0084,-0.0109,0.0832,0.0022,-0.0012,0.0928,-0.004,-0.0003,0.0664,0.065,-0.0434,-0.0441,-0.0239,-0.023,0.0364,0.5729,0.1457,0.0842,0.5928,0.1503,0.071,0.5626,0.2629,-0.0125,0.5709,0.1342,0.0686,0.5677,0.318,-0.0104,0.6069,0.128,0.0,0.0,-0.0504,0.0,0.0,0.0,0.0,0.0,0.0,
1.32,run,8.82,4.49,-0.8,-3.36,1.29,-2.9,0.0,0.0,0.156,1.32,5.62,76.38,3.34,7.12,76.46,2.46,4.92,86.48,-0.35,6.5,76.2,1.85,5.36,91.67,-0.35,7.82,74.62,1.41,6.02,77.89,2.68,7.17,77.67,2.53,5.44,87.67,-0.19,6.11,76.3,2.59,5.63,92.33,-0.31,7.91,76.13,0.0404,0.5639,0.1516,0.0766,0.585,0.1491,0.0724,0.5534,0.2667,-0.0055,0.5656,0.1329,0.074,0.5568,0.3215,-0.0087,0.5983,0.1309,0.0,0.006,0.026,0.006,0.006,0.065,0.0,0.019,0.033,0.006,0.0,0.0,0.026,0.006,0.019,0.0,0.0,0.039,0.023,-0.2148,0.1902,0.0322,-0.1718,0.0583,-0.0107,-0.2807,0.0537,-0.0291,-0.2178,0.0261,0.0276,-0.2546,0.1519,-0.0184,-0.1565,-0.0552,0.0106,0.0001,0.0641,0.0001,0.0003,0.0971,0.0009,-0.0019,0.035,0.0059,-0.0077,0.0925,0.0016,-0.0008,0.0992,-0.0028,-0.0116,0.0864,0.0627,-0.0502,-0.0134,-0.0279,0.005,0.0387,0.5675,0.1479,0.0787,0.5889,0.1481,0.0711,0.5575,0.2651,-0.0085,0.5682,0.1333,0.0712,0.5615,0.3203,-0.0096,0.6017,0.1289,0.0,0.0,-0.0576,0.0,0.0,0.0,0.0,0.0,0.0,
1.36,run,8.82,4.53,0.82,0.43,-1.26,-3.2,0.0,0.0,0.156,1.32,5.62,76.73,3.25,6.86,76.82,2.46,4.92,86.66,-0.26,6.33,76.11,2.11,5.36,92.02,-0.35,7.65,74.88,1.47,6.04,78.26,2.64,7.09,78.04,2.53,5.47,87.94,-0.14,6.05,76.59,2.64,5.62,92.92,-0.39,7.84,76.58,0.042,0.5643,0.156,0.0753,0.5835,0.1534,0.0721,0.5541,0.2698,-0.004,0.5646,0.1364,0.0754,0.5567,0.3285,-0.0111,0.5971,0.1362,0.0,0.006,0.026,0.006,0.006,0.065,0.0,0.019,0.033,0.006,0.0,0.0,0.026,0.006,0.019,0.0,0.0,0.039,0.0261,-0.2148,0.1948,0.0307,-0.1733,0.0675,-0.0107,-0.2807,0.0537,-0.0245,-0.2209,0.0322,0.0276,-0.2546,0.1565,-0.0184,-0.1611,-0.0476,0.019,0.0,0.0622,-0.0057,-0.0056,0.1026,0.0006,-0.0013,0.0245,0.0215,-0.0169,0.0879,0.0011,-0.0006,0.0868,-0.002,-0.0254,0.0894,0.0598,-0.058,-0.014,-0.0587,0.0226,0.0404,0.5639,0.1516,0.0766,0.585,0.1491,0.0724,0.5534,0.2667,-0.0055,0.5656,0.1329,0.074,0.5568,0.3215,-0.0087,0.5983,0.1309,0.0,0.0,-0.0648,0.0,0.0,0.0,0.0,0.0,0.0,
1.4,run,8.79,4.6,0.1,1.65,0.29,-3.6,0.0,0.0,0.156,1.32,5.62,76.9,3.25,6.86,76.82,2.46,4.92,86.75,-0.35,6.24,76.2,2.11,5.19,92.02,-0.35,7.65,75.15,1.47,6.05,78.41,2.65,7.02,78.52,2.64,5.49,88.26,-0.12,5.91,76.98,2.72,5.68,93.58,-0.39,7.78,77.18,0.0419,0.5646,0.1578,0.0758,0.5821,0.1591,0.0754,0.5544,0.2737,-0.0036,0.562,0.1409,0.0779,0.5578,0.3363,-0.0112,0.5961,0.1433,0.0,0.006,0.026,0.006,0.006,0.065,0.0,0.019,0.033,0.006,0.0,0.0,0.026,0.006,0.019,0.0,0.0,0.039,0.0261,-0.2148,0.201,0.0291,-0.1779,0.0736,-0.0107,-0.2807,0.0568,-0.023,-0.224,0.0307,0.0322,-0.2546,0.1626,-0.0184,-0.1641,-0.043,0.0133,0.0,0.0667,-0.0098,-0.0213,0.095,0.0004,-0.0009,0.0287,0.0208,-0.0234,0.0557,0.0181,-0.0004,0.0839,-0.0014,-0.0294,0.0799,0.0599,-0.0551,0.0143,0.0075,-0.0221,0.042,0.5643,0.156,0.0753,0.5835,0.1534,0.0721,0.5541,0.2698,-0.004,0.5646,0.1364,0.0754,0.5567,0.3285,-0.0111,0.5971,0.1362,0.0,0.0,-0.072,0.0,0.0,0.0,0.0,0.0,0.0,
1.44,run,8.76,4.63,-1.87,1.36,-1.03,-4.0,0.0,0.0,0.156,1.32,5.62,77.17,3.16,6.77,77.17,2.46,4.92,86.92,-0.09,6.06,76.64,2.29,5.1,92.64,-0.35,7.56,75.5,1.48,6.01,78.95,2.6,6.95,79.42,2.58,5.63,88.65,-0.13,5.76,77.83,2.7,5.88,94.16,-0.5,7.71,77.81,0.0424,0.5638,0.1641,0.0743,0.5809,0.1696,0.0738,0.5569,0.2782,-0.0037,0.5592,0.1509,0.0771,0.5614,0.343,-0.0143,0.5947,0.1507,0.006,0.006,0.039,0.006,0.006,0.104,0.0,0.039,0.033,0.0,0.0,0.013,0.019,0.045,0.026,0.006,0.006,0.058,0.0261,-0.2148,0.204,0.0291,-0.1779,0.0736,-0.0107,-0.2807,0.0583,-0.0245,-0.2255,0.0322,0.0322,-0.2577,0.1626,-0.0184,-0.1641,-0.0383,0.0093,0.0,0.0581,-0.0068,-0.0149,0.0665,0.0003,-0.0006,0.0258,0.0089,-0.0221,0.0447,0.0127,-0.0117,0.0587,-0.001,-0.0206,0.0731,0.0574,-0.0489,0.0017,0.0287,0.0051,0.0419,0.5646,0.1578,0.0758,0.5821,0.1591,0.0754,0.5544,0.2737,-0.0036,0.562,0.1409,0.0779,0.5578,0.3363,-0.0112,0.5961,0.1433,0.0,0.0,-0.0792,0.0,0.0,0.0,0.0,0.0,0.0,
1.48,run,8.78,4.54,0.12,-1.56,-1.66,-4.3,0.0,0.0,0.156,1.32,5.62,77.43,3.16,6.68,77.61,2.46,4.92,87.28,-0.18,5.8,77.08,2.29,5.1,93.08,-0.53,7.38,75.94,1.54,5.87,79.29,2.44,6.81,79.83,2.56,5.53,88.96,-0.07,5.64,78.23,2.74,5.83,94.65,-0.55,7.55,78.22,0.044,0.5612,0.1681,0.0696,0.5784,0.1744,0.0732,0.5551,0.2819,-0.0021,0.557,0.1557,0.0783,0.5605,0.3488,-0.0156,0.5919,0.1555,0.006,0.006,0.039,0.006,0.006,0.104,0.0,0.039,0.033,0.0,0.0,0.013,0.019,0.045,0.026,0.006,0.006,0.058,0.0261,-0.2148,0.2086,0.0276,-0.1795,0.0798,-0.0107,-0.2807,0.0614,-0.0199,-0.2286,0.0399,0.0353,-0.2592,0.1733,-0.0184,-0.1657,-0.0322,0.0065,0.0,0.0579,-0.0105,-0.0162,0.0696,0.0002,-0.0004,0.0296,0.0235,-0.027,0.0601,0.0204,-0.014,0.0814,-0.0007,-0.0201,0.0742,0.0548,-0.0463,-0.0326,0.0238,-0.0179,0.0424,0.5638,0.1641,0.0743,0.5809,0.1696,0.0738,0.5569,0.2782,-0.0037,0.5592,0.1509,0.0771,0.5614,0.343,-0.0143,0.5947,0.1507,0.0,0.0,-0.0864,0.0,0.0,0.0,0.0,0.0,0.0,
1.52,run,8.74,4.47,-1.26,-1.54,-1.51,-4.7,0.0,0.0,0.156,1.32,5.62,77.78,3.08,6.42,78.22,2.46,4.92,87.54,-0.26,5.8,77.61,2.29,5.1,93.6,-0.62,7.38,76.46,1.61,5.83,79.76,2.31,6.65,80.18,2.61,5.45,89.22,-0.04,5.59,78.37,2.8,5.72,95.08,-0.55,7.45,78.67,0.0459,0.5606,0.1737,0.0659,0.5754,0.1785,0.0745,0.5536,0.2849,-0.0011,0.5562,0.1573,0.08,0.5585,0.3539,-0.0157,0.5899,0.1608,0.006,0.006,0.039,0.006,0.006,0.104,0.0,0.039,0.033,0.0,0.0,0.013,0.019,0.045,0.026,0.006,0.006,0.058,0.0261,-0.2148,0.2132,0.0276,-0.181,0.0874,-0.0107,-0.2807,0.0675,-0.0215,-0.2332,0.0476,0.0353,-0.2592,0.181,-0.0215,-0.1687,-0.0245,0.0046,0.0,0.0579,-0.0074,-0.0171,0.0776,0.0002,-0.0003,0.0438,0.0106,-0.0362,0.0709,0.0143,-0.0098,0.0859,-0.012,-0.0257,0.0808,0.0567,-0.0537,0.0021,-0.0272,-0.029,0.044,0.5612,0.1681,0.0696,0.5784,0.1744,0.0732,0.5551,0.2819,-0.0021,0.557,0.1557,0.0783,0.5605,0.3488,-0.0156,0.5919,0.1555,0.0,0.0,-0.0936,0.0,0.0,0.0,0.0,0.0,0.0,
1.56,run,8.73,4.42,-0.6,-1.45,-0.1,-5.0,0.0,0.0,0.156,1.41,5.62,78.22,2.9,6.33,78.75,2.46,4.92,87.8,-0.09,5.8,78.05,2.29,5.1,94.13,-0.62,7.03,76.99,1.68,5.66,80.02,2.19,6.5,80.4,2.58,5.31,89.45,0.01,5.45,78.64,2.85,5.57,95.4,-0.56,7.23,78.97,0.0479,0.5574,0.1767,0.0625,0.5728,0.1812,0.0736,0.5511,0.2877,0.0002,0.5536,0.1605,0.0816,0.5558,0.3577,-0.016,0.5861,0.1644,0.006,0.0,0.039,0.013,0.006,0.078,0.0,0.006,0.052,0.0,0.0,0.013,0.019,0.013,0.039,0.0,0.006,0.052,0.0261,-0.2148,0.2194,0.0261,-0.1856,0.0982,-0.0107,-0.2807,0.0721,-0.023,-0.2332,0.0568,0.0353,-0.2592,0.1902,-0.023,-0.1687,-0.0153,0.0032,0.0,0.0634,-0.0109,-0.0291,0.0943,0.0001,-0.0002,0.0478,0.0017,-0.0254,0.084,0.01,-0.0068,0.0944,-0.0141,-0.018,0.0909,0.053,-0.0603,-0.022,-0.0268,-0.0263,0.0459,0.5606,0.1737,0.0659,0.5754,0.1785,0.0745,0.5536,0.2849,-0.0011,0.5562,0.1573,0.08,0.5585,0.3539,-0.0157,0.5899,0.1608,0.0,0.0,-0.1008,0.0,0.0,0.0,0.0,0.0,0.0,
1.6,run,8.8,4.45,2.25,0.44,-0.08,-5.4,0.0,0.0,0.156,1.49,5.27,78.57,2.81,6.06,79.19,2.46,4.92,88.07,0.0,5.62,78.4,2.29,5.1,94.57,-0.62,6.86,77.43,1.73,5.51,80.46,2.11,6.29,80.75,2.58,5.14,89.66,0.08,5.29,78.85,2.94,5.43,95.67,-0.58,7.1,79.3,0.0496,0.5547,0.1818,0.0604,0.5689,0.1853,0.0738,0.5481,0.2901,0.0024,0.5508,0.163,0.084,0.5532,0.3608,-0.0166,0.5837,0.1683,0.006,0.0,0.039,0.013,0.006,0.078,0.0,0.006,0.052,0.0,0.0,0.013,0.019,0.013,0.039,0.0,0.006,0.052,0.0276,-0.2148,0.227,0.023,-0.1871,0.1074,-0.0107,-0.2807,0.0767,-0.0199,-0.2332,0.0644,0.0353,-0.2592,0.1994,-0.023,-0.1749,-0.0061,0.008,0.0,0.0733,-0.0192,-0.0262,0.1008,0.0001,-0.0002,0.0509,0.0128,-0.0178,0.0877,0.007,-0.0048,0.1008,-0.0099,-0.0357,0.0984,0.0521,-0.0643,-0.0105,-0.0252,-0.0018,0.0479,0.5574,0.1767,0.0625,0.5728,0.1812,0.0736,0.5511,0.2877,0.0002,0.5536,0.1605,0.0816,0.5558,0.3577,-0.016,0.5861,0.1644,0.0,0.0,-0.108,0.0,0.0,0.0,0.0,0.0,0.0,
1.64,run,8.8,4.39,1.03,-1.87,0.01,-5.8,0.0,0.0,0.156,1.67,5.27,78.93,2.81,5.89,79.37,2.46,4.75,88.24,0.0,5.54,78.57,2.29,5.1,94.83,-0.62,6.86,77.78,1.76,5.44,80.76,2.11,6.13,81.2,2.68,5.05,89.95,0.11,5.14,79.08,3.03,5.37,96.12,-0.55,7.03,79.81,0.0502,0.5535,0.1854,0.0604,0.5661,0.1906,0.0765,0.5464,0.2935,0.0031,0.5479,0.1656,0.0864,0.5522,0.3662,-0.0156,0.5824,0.1742,0.006,0.0,0.039,0.013,0.006,0.078,0.0,0.006,0.052,0.0,0.0,0.013,0.019,0.013,0.039,0.0,0.006,0.052,0.0291,-0.2209,0.2332,0.0215,-0.1917,0.115,-0.0107,-0.2807,0.0813,-0.0184,-0.2362,0.0706,0.0353,-0.2592,0.2071,-0.023,-0.1779,0.0015,0.0114,-0.023,0.0743,-0.0192,-0.0356,0.0993,0.0001,-0.0001,0.0529,0.0147,-0.0239,0.0844,0.0049,-0.0034,0.0994,-0.0069,-0.0365,0.0976,0.0582,-0.0616,0.0393,0.0077,-0.0014,0.0496,0.5547,0.1818,0.0604,0.5689,0.1853,0.0738,0.5481,0.2901,0.0024,0.5508,0.163,0.084,0.5532,0.3608,-0.0166,0.5837,0.1683,0.0,0.0,-0.1152,0.0,0.0,0.0,0.0,0.0,0.0,
1.68,run,8.75,4.37,-1.31,-0.68,0.29,-6.1,0.0,0.0,0.156,1.67,5.19,79.28,2.81,5.71,79.54,2.46,4.39,88.33,0.0,5.27,78.84,2.37,4.83,95.19,-0.62,6.77,78.13,1.82,5.4,81.28,1.99,6.0,81.66,2.63,5.07,90.34,0.13,5.02,79.59,3.02,5.33,96.79,-0.61,6.85,80.28,0.0521,0.5527,0.1915,0.0569,0.5637,0.196,0.0753,0.5467,0.2982,0.0037,0.5457,0.1716,0.0864,0.5514,0.374,-0.0174,0.5791,0.1798,0.006,0.006,0.052,0.026,0.006,0.156,0.0,0.039,0.058,0.0,0.0,0.006,0.026,0.026,0.039,0.0,0.006,0.065,0.0322,-0.2209,0.2393,0.0215,-0.1948,0.1181,-0.0107,-0.2838,0.0844,-0.0184,-0.2378,0.0736,0.0353,-0.2592,0.2117,-0.023,-0.1779,0.0077,0.0194,-0.0161,0.0749,-0.0134,-0.0364,0.081,0.0,-0.0115,0.0485,0.0103,-0.0225,0.0706,0.0034,-0.0023,0.0867,-0.0049,-0.0256,0.0912,0.0585,-0.0672,0.018,-0.0326,0.0002,0.0502,0.5535,0.1854,0.0604,0.5661,0.1906,0.0765,0.5464,0.2935,0.0031,0.5479,0.1656,0.0864,0.5522,0.3662,-0.0156,0.5824,0.1742,0.0,0.0,-0.1224,0.0,0.0,0.0,0.0,0.0,0.0,
1.72,run,8.72,4.35,-0.71,-0.49,-2.42,-6.5,0.0,0.0,0.156,1.76,5.1,79.63,2.81,5.54,80.16,2.46,4.39,88.68,0.0,5.1,79.19,2.46,4.75,95.71,-0.62,6.42,78.57,1.84,5.19,81.59,1.91,5.86,82.12,2.56,5.04,90.62,0.14,4.81,80.12,3.0,5.32,97.29,-0.68,6.66,80.59,0.0524,0.5488,0.1952,0.0545,0.5611,0.2014,0.073,0.5461,0.3014,0.004,0.542,0.1778,0.0857,0.5512,0.3798,-0.0195,0.5757,0.1834,0.006,0.006,0.052,0.026,0.006,0.156,0.0,0.039,0.058,0.0,0.0,0.006,0.026,0.026,0.039,0.0,0.006,0.065,0.0322,-0.2224,0.2454,0.0215,-0.1979,0.1212,-0.0107,-0.2899,0.0859,-0.0184,-0.2424,0.0782,0.0368,-0.2638,0.2178,-0.023,-0.1795,0.0138,0.0136,-0.017,0.0755,-0.0094,-0.037,0.0682,0.0,-0.0311,0.0397,0.0072,-0.033,0.0666,0.0081,-0.0189,0.0837,-0.0034,-0.0236,0.0869,0.0536,-0.0688,-0.0229,-0.0118,0.005,0.0521,0.5527,0.1915,0.0569,0.5637,0.196,0.0753,0.5467,0.2982,0.0037,0.5457,0.1716,0.0864,0.5514,0.374,-0.0174,0.5791,0.1798,0.0,0.0,-0.1296,0.0,0.0,0.0,0.0,0.0,0.0,
1.76,run,8.78,4.39,0.92,1.36,-0.44,-6.8,0.0,0.0,0.156,1.67,4.83,80.07,2.72,5.45,80.6,2.46,4.39,88.95,0.09,5.01,79.54,2.46,4.75,96.15,-0.62,6.42,78.93,1.85,5.11,81.89,1.81,5.7,82.36,2.61,4.94,90.97,0.18,4.68,80.33,3.05,5.21,97.86,-0.68,6.5,81.05,0.0529,0.5474,0.1987,0.0516,0.5582,0.2043,0.0747,0.5444,0.3055,0.0052,0.5397,0.1804,0.0871,0.5492,0.3866,-0.0193,0.5727,0.1889,0.006,0.006,0.052,0.026,0.006,0.156,0.0,0.039,0.058,0.0,0.0,0.006,0.026,0.026,0.039,0.0,0.006,0.065,0.0337,-0.224,0.2516,0.0215,-0.201,0.1319,-0.0107,-0.2899,0.092,-0.0184,-0.2454,0.0844,0.0383,-0.2654,0.227,-0.023,-0.1856,0.0215,0.0153,-0.0177,0.076,-0.0066,-0.0375,0.0883,0.0,-0.0218,0.051,0.005,-0.0347,0.0699,0.0115,-0.019,0.0934,-0.0024,-0.0398,0.0898,0.051,-0.0707,-0.0124,-0.0086,-0.0423,0.0524,0.5488,0.1952,0.0545,0.5611,0.2014,0.073,0.5461,0.3014,0.004,0.542,0.1778,0.0857,0.5512,0.3798,-0.0195,0.5757,0.1834,0.0,0.0,-0.1368,0.0,0.0,0.0,0.0,0.0,0.0,
1.8,run,8.7,4.33,-2.21,-1.34,-1.08,-7.2,0.0,0.0,0.156,1.76,4.75,80.42,2.64,5.27,81.04,2.46,4.39,89.3,0.0,4.83,79.98,2.46,4.48,96.59,-0.62,6.15,79.28,1.89,4.9,82.34,1.75,5.49,82.82,2.66,4.74,91.2,0.21,4.44,80.68,3.12,5.04,98.01,-0.62,6.34,81.49,0.0541,0.5436,0.204,0.05,0.5543,0.2097,0.076,0.5408,0.3083,0.0059,0.5353,0.1845,0.0892,0.5463,0.3883,-0.0177,0.5697,0.194,0.0,0.0,0.045,0.019,0.0,0.117,0.0,0.013,0.084,0.006,0.0,0.013,0.039,0.033,0.058,0.0,0.006,0.052,0.0322,-0.2286,0.2592,0.0199,-0.2025,0.1396,-0.0107,-0.2899,0.0966,-0.0169,-0.247,0.0905,0.0383,-0.2654,0.2347,-0.023,-0.1856,0.0276,0.005,-0.0297,0.082,-0.0104,-0.032,0.0906,0.0,-0.0152,0.053,0.0093,-0.03,0.0719,0.0081,-0.0133,0.0942,-0.0017,-0.0278,0.0859,0.0565,-0.0673,0.016,0.0237,-0.0077,0.0529,0.5474,0.1987,0.0516,0.5582,0.2043,0.0747,0.5444,0.3055,0.0052,0.5397,0.1804,0.0871,0.5492,0.3866,-0.0193,0.5727,0.1889,0.0,0.0,-0.144,0.0,0.0,0.0,0.0,0.0,0.0,
1.84,run,8.71,4.24,0.46,-2.3,1.03,-7.6,0.0,0.0,0.156,1.93,4.66,80.77,2.46,5.19,81.39,2.46,4.13,89.65,0.18,4.57,80.33,2.46,4.31,97.03,-0.62,5.89,79.8,1.93,4.87,82.93,1.61,5.43,83.35,2.55,4.83,91.72,0.18,4.38,81.36,3.06,5.07,98.83,-0.71,6.15,82.02,0.0553,0.543,0.211,0.046,0.5532,0.2159,0.0729,0.5424,0.3143,0.0052,0.5343,0.1924,0.0874,0.5468,0.398,-0.0203,0.5664,0.2002,0.0,0.0,0.045,0.019,0.0,0.117,0.0,0.013,0.084,0.006,0.0,0.013,0.039,0.033,0.058,0.0,0.006,0.052,0.0337,-0.2301,0.2654,0.0184,-0.2056,0.1473,-0.0107,-0.2899,0.1028,-0.0184,-0.25,0.0982,0.0383,-0.27,0.2424,-0.023,-0.1902,0.0337,0.0092,-0.0265,0.0802,-0.0129,-0.0338,0.0919,0.0,-0.0107,0.0598,0.0008,-0.0324,0.0788,0.0056,-0.0264,0.0944,-0.0012,-0.0365,0.0829,0.0496,-0.0722,-0.0386,-0.0234,-0.0189,0.0541,0.5436,0.204,0.05,0.5543,0.2097,0.076,0.5408,0.3083,0.0059,0.5353,0.1845,0.0892,0.5463,0.3883,-0.0177,0.5697,0.194,0.0,0.0,-0.1512,0.0,0.0,0.0,0.0,0.0,0.0,
1.88,run,8.67,4.22,-0.18,-1.16,-1.39,-7.9,0.0,0.0,0.156,1.85,4.57,81.12,2.46,5.1,81.56,2.46,4.04,89.82,0.18,4.48,80.6,2.46,4.22,97.29,-0.62,5.89,80.16,2.0,4.62,83.49,1.5,5.13,83.68,2.56,4.54,91.77,0.28,4.19,81.51,3.13,4.77,98.8,-0.72,5.99,82.34,0.057,0.5386,0.2176,0.0428,0.5479,0.2198,0.0732,0.537,0.315,0.0081,0.5307,0.1942,0.0893,0.5413,0.3977,-0.0205,0.5635,0.2039,0.0,0.0,0.045,0.019,0.0,0.117,0.0,0.013,0.084,0.006,0.0,0.013,0.039,0.033,0.058,0.0,0.006,0.052,0.0368,-0.2316,0.2715,0.0153,-0.2071,0.1534,-0.0107,-0.2945,0.1089,-0.0153,-0.2546,0.1043,0.0383,-0.273,0.25,-0.023,-0.1948,0.043,0.018,-0.0243,0.0793,-0.0206,-0.0294,0.0875,0.0,-0.0248,0.065,0.0121,-0.04,0.0783,0.0039,-0.03,0.095,-0.0008,-0.0429,0.0927,0.0507,-0.0797,0.008,-0.0402,0.0179,0.0553,0.543,0.211,0.046,0.5532,0.2159,0.0729,0.5424,0.3143,0.0052,0.5343,0.1924,0.0874,0.5468,0.398,-0.0203,0.5664,0.2002,0.0,0.0,-0.1584,0.0,0.0,0.0,0.0,0.0,0.0,
1.92,run,8.63,4.23,-1.33,0.25,0.44,-8.3,0.0,0.0,0.156,1.93,4.31,81.56,2.29,4.75,82.18,2.46,4.04,90.09,0.18,4.39,81.04,2.46,4.22,97.82,-0.62,5.45,80.6,1.98,4.49,83.83,1.41,4.98,84.1,2.58,4.51,92.24,0.28,3.99,82.01,3.13,4.69,99.49,-0.71,5.75,82.89,0.0567,0.5363,0.2216,0.0402,0.545,0.2247,0.0737,0.5365,0.3205,0.008,0.5271,0.2001,0.0893,0.5399,0.4058,-0.0203,0.5591,0.2104,0.0,0.006,0.045,0.013,0.006,0.117,0.0,0.013,0.071,0.0,0.0,0.013,0.033,0.013,0.039,0.0,0.013,0.078,0.0353,-0.2332,0.2777,0.0153,-0.2086,0.1565,-0.0107,-0.2961,0.112,-0.0153,-0.2562,0.1089,0.0383,-0.2746,0.2546,-0.023,-0.1948,0.0491,0.0069,-0.0227,0.0784,-0.0144,-0.0263,0.0727,0.0,-0.0231,0.057,0.0085,-0.0338,0.072,0.0028,-0.0268,0.0837,-0.0006,-0.0301,0.0878,0.0466,-0.0819,-0.0032,-0.0203,-0.0242,0.057,0.5386,0.2176,0.0428,0.5479,0.2198,0.0732,0.537,0.315,0.0081,0.5307,0.1942,0.0893,0.5413,0.3977,-0.0205,0.5635,0.2039,0.0,0.0,-0.1656,0.0,0.0,0.0,0.0,0.0,0.0,
1.96,run,8.62,4.2,-0.46,-0.77,-0.94,-8.6,0.0,0.0,0.156,1.93,4.22,82.09,2.11,4.57,82.62,2.46,4.04,90.26,0.18,4.04,81.47,2.46,4.04,98.17,-0.62,5.36,81.04,2.02,4.3,84.13,1.34,4.78,84.5,2.52,4.35,92.46,0.28,3.75,82.41,3.16,4.6,99.7,-0.74,5.56,83.25,0.0576,0.5327,0.225,0.0382,0.5415,0.2294,0.0719,0.5337,0.3231,0.008,0.5227,0.2049,0.0902,0.5381,0.4083,-0.0213,0.5556,0.2147,0.0,0.006,0.045,0.013,0.006,0.117,0.0,0.013,0.071,0.0,0.0,0.013,0.033,0.013,0.039,0.0,0.013,0.078,0.0368,-0.2378,0.2853,0.0123,-0.2148,0.1672,-0.0107,-0.2961,0.1166,-0.0153,-0.2577,0.1166,0.0383,-0.2746,0.2638,-0.023,-0.2025,0.0568,0.0106,-0.0333,0.0838,-0.0217,-0.0416,0.0914,0.0,-0.0162,0.0572,0.0059,-0.0294,0.0793,0.0019,-0.0187,0.0933,-0.0004,-0.05,0.0904,0.0431,-0.0811,-0.0232,0.0043,0.0076,0.0567,0.5363,0.2216,0.0402,0.545,0.2247,0.0737,0.5365,0.3205,0.008,0.5271,0.2001,0.0893,0.5399,0.4058,-0.0203,0.5591,0.2104,0.0,0.0,-0.1728,0.0,0.0,0.0,0.0,0.0,0.0,
2.0,run,8.6,4.01,-0.44,-4.53,0.12,-9.0,0.0,0.0,0.156,1.93,4.04,82.53,2.11,4.39,83.06,2.46,3.96,90.7,0.18,3.87,81.91,2.46,3.96,98.61,-0.62,5.27,81.39,2.06,4.23,84.62,1.22,4.64,84.87,2.51,4.2,92.84,0.27,3.63,82.81,3.15,4.43,100.16,-0.75,5.38,83.82,0.0587,0.5315,0.2308,0.0348,0.5389,0.2338,0.0718,0.5309,0.3276,0.0078,0.5205,0.2095,0.0899,0.535,0.4137,-0.0213,0.5524,0.2214,0.0,0.006,0.045,0.013,0.006,0.117,0.0,0.013,0.071,0.0,0.0,0.013,0.033,0.013,0.039,0.0,0.013,0.078,0.0368,-0.2393,0.2945,0.0092,-0.2178,0.1749,-0.0107,-0.2961,0.1197,-0.0153,-0.2638,0.1243,0.0383,-0.2777,0.27,-0.023,-0.204,0.0644,0.0074,-0.029,0.093,-0.0266,-0.0405,0.0925,0.0,-0.0113,0.0515,0.0042,-0.0435,0.0841,0.0014,-0.0245,0.0882,-0.0003,-0.0407,0.0919,0.0422,-0.0835,-0.008,-0.0135,-0.0165,0.0576,0.5327,0.225,0.0382,0.5415,0.2294,0.0719,0.5337,0.3231,0.008,0.5227,0.2049,0.0902,0.5381,0.4083,-0.0213,0.5556,0.2147,0.0,0.0,-0.18,0.0,0.0,0.0,0.0,0.0,0.0,
2.04,run,8.58,3.92,-0.55,-2.69,1.83,-9.4,0.0,0.0,0.156,1.93,3.87,82.97,2.02,4.22,83.41,2.46,3.52,90.88,0.18,3.69,82.35,2.46,3.69,98.96,-0.62,4.92,81.83,2.14,4.09,85.31,1.06,4.45,85.17,2.49,4.09,93.11,0.28,3.53,83.16,3.14,4.15,100.53,-0.72,5.14,84.27,0.061,0.5289,0.2389,0.0302,0.5355,0.2373,0.0711,0.5288,0.3307,0.0081,0.5187,0.2137,0.0897,0.5301,0.418,-0.0206,0.5481,0.2267,0.006,0.006,0.058,0.026,0.006,0.091,0.0,0.033,0.078,0.0,0.0,0.013,0.033,0.026,0.078,0.0,0.013,0.071,0.0368,-0.2424,0.3022,0.0092,-0.2209,0.1825,-0.0107,-0.2976,0.1273,-0.0153,-0.2669,0.1319,0.0383,-0.2792,0.2777,-0.023,-0.2056,0.0706,0.0052,-0.0318,0.0937,-0.0186,-0.0398,0.0934,0.0,-0.0137,0.0647,0.0029,-0.0419,0.0875,0.0009,-0.0229,0.0904,-0.0002,-0.0342,0.0872,0.0404,-0.1,-0.0077,-0.0791,0.0022,0.0587,0.5315,0.2308,0.0348,0.5389,0.2338,0.0718,0.5309,0.3276,0.0078,0.5205,0.2095,0.0899,0.535,0.4137,-0.0213,0.5524,0.2214,0.0,0.0,-0.1872,0.0,0.0,0.0,0.0,0.0,0.0,
2.08,run,8.57,3.96,-0.26,1.14,-2.57,-9.7,0.0,0.0,0.156,1.93,3.87,83.32,1.85,4.13,83.76,2.46,3.34,91.23,0.18,3.52,82.71,2.46,3.43,99.4,-0.62,4.75,82.35,2.15,3.77,85.64,1.01,4.17,85.49,2.44,3.89,93.23,0.34,3.25,83.41,3.16,3.97,100.75,-0.72,4.91,84.47,0.0615,0.523,0.2429,0.0289,0.5304,0.2411,0.0697,0.5254,0.3322,0.0097,0.5137,0.2166,0.0904,0.5267,0.4205,-0.0207,0.5439,0.229,0.006,0.006,0.058,0.026,0.006,0.091,0.0,0.033,0.078,0.0,0.0,0.013,0.033,0.026,0.078,0.0,0.013,0.071,0.0368,-0.2454,0.3099,0.0077,-0.224,0.1887,-0.0107,-0.3053,0.1304,-0.0153,-0.27,0.1396,0.0383,-0.2838,0.2838,-0.023,-0.2117,0.0782,0.0036,-0.0338,0.0945,-0.0188,-0.0394,0.0885,0.0,-0.0384,0.0568,0.002,-0.0409,0.0901,0.0007,-0.0334,0.0863,-0.0001,-0.047,0.0899,0.0392,-0.1083,-0.0096,-0.047,0.0319,0.061,0.5289,0.2389,0.0302,0.5355,0.2373,0.0711,0.5288,0.3307,0.0081,0.5187,0.2137,0.0897,0.5301,0.418,-0.0206,0.5481,0.2267,0.0,0.0,-0.1944,0.0,0.0,0.0,0.0,0.0,0.0,
2.12,run,8.51,3.9,-0.75,-0.9,-0.01,-10.1,0.0,0.0,0.156,2.02,3.6,83.85,1.76,3.87,83.94,2.46,3.34,91.49,0.26,3.43,83.06,2.46,3.34,99.76,-0.62,4.75,82.79,2.1,3.6,85.92,0.96,3.97,85.85,2.49,3.75,93.69,0.35,3.07,83.81,3.18,3.87,101.27,-0.68,4.69,84.96,0.0601,0.52,0.2461,0.0274,0.5267,0.2453,0.0712,0.5227,0.3375,0.0101,0.5103,0.2213,0.0909,0.5248,0.4267,-0.0194,0.5399,0.2348,0.006,0.006,0.058,0.026,0.006,0.091,0.0,0.033,0.078,0.0,0.0,0.013,0.033,0.026,0.078,0.0,0.013,0.071,0.0368,-0.2454,0.316,0.0046,-0.2255,0.1948,-0.0107,-0.3083,0.1365,-0.0153,-0.273,0.1457,0.0383,-0.2884,0.2915,-0.023,-0.2148,0.0874,0.0025,-0.0236,0.0893,-0.0247,-0.0334,0.0851,0.0,-0.0385,0.0629,0.0014,-0.0402,0.0862,0.0005,-0.0407,0.0894,-0.0001,-0.0445,0.0977,0.0383,-0.1045,-0.0045,0.0199,-0.0449,0.0615,0.523,0.2429,0.0289,0.5304,0.2411,0.0697,0.5254,0.3322,0.0097,0.5137,0.2166,0.0904,0.5267,0.4205,-0.0207,0.5439,0.229,0.0,0.0,-0.2016,0.0,0.0,0.0,0.0,0.0,0.0,
2.16,run,8.51,3.92,0.18,0.42,2.04,-10.4,0.0,0.0,0.156,2.02,3.34,84.29,1.76,3.52,84.38,2.46,3.34,91.76,0.18,3.16,83.32,2.46,3.08,100.02,-0.62,4.22,83.14,2.18,3.4,86.5,0.8,3.79,86.3,2.42,3.58,93.99,0.35,2.86,84.37,3.18,3.65,101.48,-0.71,4.46,85.44,0.0622,0.5163,0.253,0.0228,0.5235,0.2506,0.0691,0.5196,0.341,0.0101,0.5066,0.2279,0.0907,0.5208,0.4291,-0.0201,0.5357,0.2405,0.006,0.0,0.045,0.026,0.006,0.123,0.0,0.006,0.084,0.006,0.0,0.019,0.033,0.019,0.052,0.0,0.006,0.071,0.0383,-0.25,0.3252,0.0031,-0.2301,0.1979,-0.0107,-0.3083,0.1411,-0.0138,-0.2746,0.1519,0.0383,-0.2899,0.2976,-0.023,-0.2148,0.0951,0.0075,-0.0338,0.097,-0.0231,-0.0406,0.0711,0.0,-0.0269,0.0613,0.0068,-0.0339,0.0834,0.0003,-0.0343,0.0856,-0.0001,-0.0312,0.0971,0.0333,-0.1098,-0.013,-0.0156,-0.0002,0.0601,0.52,0.2461,0.0274,0.5267,0.2453,0.0712,0.5227,0.3375,0.0101,0.5103,0.2213,0.0909,0.5248,0.4267,-0.0194,0.5399,0.2348,0.0,0.0,-0.2088,0.0,0.0,0.0,0.0,0.0,0.0,
2.2,run,8.45,3.81,-2.5,-2.77,-2.27,-10.8,0.0,0.0,0.156,2.11,3.16,84.73,1.49,3.25,84.9,2.46,2.9,92.02,0.26,2.99,83.76,2.46,2.9,100.37,-0.62,4.13,83.5,2.16,3.2,86.91,0.77,3.56,86.89,2.36,3.48,94.28,0.32,2.56,84.92,3.14,3.61,101.8,-0.74,4.29,85.95,0.0616,0.5127,0.2578,0.0221,0.5192,0.2575,0.0675,0.5178,0.3445,0.0092,0.5011,0.2344,0.0897,0.5202,0.4329,-0.0211,0.5325,0.2465,0.006,0.0,0.045,0.026,0.006,0.123,0.0,0.006,0.084,0.006,0.0,0.019,0.033,0.019,0.052,0.0,0.006,0.071,0.0383,-0.2546,0.3329,0.0031,-0.2362,0.2056,-0.0107,-0.3083,0.1457,-0.0153,-0.2792,0.1565,0.0383,-0.2945,0.3022,-0.023,-0.224,0.1012,0.0053,-0.0408,0.0965,-0.0162,-0.0513,0.0784,0.0,-0.0189,0.0601,-0.001,-0.0409,0.0755,0.0002,-0.0411,0.0771,-0.0,-0.0561,0.0909,0.0331,-0.1083,0.0031,0.0073,0.0356,0.0622,0.5163,0.253,0.0228,0.5235,0.2506,0.0691,0.5196,0.341,0.0101,0.5066,0.2279,0.0907,0.5208,0.4291,-0.0201,0.5357,0.2405,0.0,0.0,-0.216,0.0,0.0,0.0,0.0,0.0,0.0,
2.24,run,8.42,3.86,-0.58,1.36,1.09,-11.2,0.0,0.0,0.156,2.11,2.9,85.17,1.49,3.16,85.17,2.46,2.81,92.2,0.35,2.81,84.2,2.46,2.9,100.55,-0.62,3.96,83.94,2.17,3.19,87.49,0.6,3.45,87.17,2.29,3.38,94.78,0.31,2.5,85.46,3.07,3.33,102.53,-0.72,3.95,86.51,0.062,0.5126,0.2646,0.0171,0.5173,0.2608,0.0653,0.5161,0.3503,0.0088,0.5001,0.2407,0.0877,0.5152,0.4415,-0.0206,0.5264,0.253,0.006,0.0,0.045,0.026,0.006,0.123,0.0,0.006,0.084,0.006,0.0,0.019,0.033,0.019,0.052,0.0,0.006,0.071,0.0399,-0.2577,0.3405,-0.0015,-0.2408,0.2148,-0.0107,-0.316,0.1503,-0.0138,-0.2823,0.1641,0.0383,-0.2976,0.3083,-0.023,-0.2255,0.1074,0.0094,-0.0401,0.0963,-0.0286,-0.0532,0.0894,0.0,-0.0419,0.0593,0.0051,-0.0401,0.0816,0.0002,-0.0403,0.0769,-0.0,-0.045,0.0866,0.0275,-0.1176,-0.0437,-0.0484,-0.0397,0.0616,0.5127,0.2578,0.0221,0.5192,0.2575,0.0675,0.5178,0.3445,0.0092,0.5011,0.2344,0.0897,0.5202,0.4329,-0.0211,0.5325,0.2465,0.0,0.0,-0.2232,0.0,0.0,0.0,0.0,0.0,0.0,
2.28,run,8.33,3.82,-1.56,-1.35,0.64,-11.5,0.0,0.0,0.156,2.11,2.81,85.61,1.41,2.9,85.69,2.46,2.81,92.64,0.35,2.46,84.73,2.46,2.64,100.9,-0.62,3.69,84.46,2.17,2.74,87.69,0.54,3.11,87.47,2.3,3.05,94.8,0.38,2.09,85.68,3.13,3.09,102.27,-0.72,3.72,86.77,0.062,0.5044,0.267,0.0155,0.511,0.2643,0.0657,0.51,0.3506,0.0108,0.4925,0.2432,0.0894,0.5107,0.4385,-0.0205,0.5222,0.2561,0.0,0.0,0.058,0.026,0.013,0.104,0.006,0.006,0.084,0.0,0.0,0.013,0.033,0.026,0.045,0.0,0.0,0.058,0.0399,-0.2623,0.3482,-0.0015,-0.2424,0.2194,-0.0107,-0.3175,0.1534,-0.0123,-0.2853,0.1718,0.0383,-0.2976,0.3114,-0.023,-0.2286,0.115,0.0066,-0.0453,0.0962,-0.02,-0.043,0.0798,0.0,-0.0351,0.053,0.0093,-0.0396,0.0859,0.0001,-0.0282,0.0654,-0.0,-0.043,0.0894,0.0249,-0.113,-0.0101,0.0237,0.0191,0.062,0.5126,0.2646,0.0171,0.5173,0.2608,0.0653,0.5161,0.3503,0.0088,0.5001,0.2407,0.0877,0.5152,0.4415,-0.0206,0.5264,0.253,0.0,0.0,-0.2304,0.0,0.0,0.0,0.0,0.0,0.0,
2.32,run,8.32,3.77,-0.9,-0.96,0.09,-11.9,0.0,0.0,0.156,2.2,2.46,86.04,1.41,2.64,85.96,2.46,2.55,92.9,0.35,2.29,85.25,2.46,2.37,101.51,-0.62,3.34,84.99,2.2,2.7,88.4,0.42,3.02,87.95,2.21,3.04,95.31,0.29,2.05,86.3,3.06,2.97,102.87,-0.73,3.52,87.35,0.0629,0.5036,0.2753,0.012,0.5094,0.27,0.0631,0.5098,0.3566,0.0082,0.4918,0.2506,0.0874,0.5086,0.4456,-0.0209,0.5186,0.263,0.0,0.0,0.058,0.026,0.013,0.104,0.006,0.006,0.084,0.0,0.0,0.013,0.033,0.026,0.045,0.0,0.0,0.058,0.0399,-0.2638,0.3559,-0.0031,-0.247,0.2286,-0.0107,-0.3175,0.1611,-0.0123,-0.2915,0.181,0.0383,-0.3022,0.3175,-0.023,-0.2332,0.1243,0.0046,-0.0375,0.0961,-0.0197,-0.0473,0.0904,0.0,-0.0246,0.0659,0.0065,-0.0507,0.0946,0.0001,-0.037,0.0688,-0.0,-0.0474,0.0971,0.0173,-0.1171,-0.0272,-0.0236,0.0112,0.062,0.5044,0.267,0.0155,0.511,0.2643,0.0657,0.51,0.3506,0.0108,0.4925,0.2432,0.0894,0.5107,0.4385,-0.0205,0.5222,0.2561,0.0,0.0,-0.2376,0.0,0.0,0.0,0.0,0.0,0.0,
2.36,run,8.41,3.82,3.24,1.16,-1.5,-12.2,0.0,0.0,0.156,2.2,2.37,86.4,1.14,2.46,86.22,2.46,2.29,93.08,0.35,2.02,85.52,2.46,2.29,101.69,-0.62,3.25,85.25,2.2,2.42,88.71,0.31,2.75,88.25,2.2,2.79,95.52,0.35,1.82,86.52,3.08,2.75,103.02,-0.73,3.3,87.62,0.0629,0.4985,0.279,0.0089,0.5045,0.2735,0.0629,0.5053,0.3591,0.0099,0.4877,0.2532,0.088,0.5045,0.4473,-0.021,0.5146,0.2662,0.0,0.0,0.058,0.026,0.013,0.104,0.006,0.006,0.084,0.0,0.0,0.013,0.033,0.026,0.045,0.0,0.0,0.058,0.0414,-0.27,0.3636,-0.0031,-0.2516,0.2332,-0.0107,-0.3221,0.1657,-0.0123,-0.2945,0.1902,0.0383,-0.3068,0.3283,-0.023,-0.2393,0.1335,0.009,-0.0492,0.096,-0.0138,-0.0504,0.0805,0.0,-0.0344,0.0633,0.0046,-0.047,0.1007,0.0001,-0.0431,0.0884,-0.0,-0.0561,0.1024,0.0161,-0.1211,-0.0157,-0.0167,0.0016,0.0629,0.5036,0.2753,0.012,0.5094,0.27,0.0631,0.5098,0.3566,0.0082,0.4918,0.2506,0.0874,0.5086,0.4456,-0.0209,0.5186,0.263,0.0,0.0,-0.2448,0.0,0.0,0.0,0.0,0.0,0.0,
2.4,run,8.3,3.75,-2.46,-1.28,-0.34,-12.6,0.0,0.0,0.156,2.2,2.29,86.92,1.05,2.2,86.75,2.46,2.29,93.43,0.35,1.85,85.96,2.46,2.11,102.04,-0.62,2.99,85.69,2.17,2.25,89.08,0.31,2.43,88.67,2.28,2.54,95.86,0.35,1.53,86.85,3.11,2.49,103.19,-0.65,3.08,88.28,0.0619,0.4955,0.2833,0.0088,0.4987,0.2785,0.0651,0.5008,0.3631,0.0101,0.4824,0.2571,0.0889,0.4999,0.4493,-0.0186,0.5105,0.2739,0.0,0.0,0.052,0.019,0.006,0.149,0.006,0.006,0.091,0.0,0.0,0.013,0.026,0.026,0.058,0.0,0.006,0.071,0.0414,-0.2715,0.3697,-0.0077,-0.2546,0.2378,-0.0107,-0.3267,0.1687,-0.0123,-0.2991,0.1948,0.0383,-0.3083,0.3313,-0.023,-0.2408,0.1381,0.0063,-0.0402,0.0904,-0.0271,-0.0469,0.0737,0.0,-0.0415,0.0559,0.0032,-0.0503,0.0879,0.0,-0.036,0.0734,-0.0,-0.0451,0.0891,0.0246,-0.1171,0.0565,0.0202,-0.0262,0.0629,0.4985,0.279,0.0089,0.5045,0.2735,0.0629,0.5053,0.3591,0.0099,0.4877,0.2532,0.088,0.5045,0.4473,-0.021,0.5146,0.2662,0.0,0.0,-0.252,0.0,0.0,0.0,0.0,0.0,0.0,
2.44,run,8.28,3.79,0.17,1.14,2.28,-13.0,0.0,0.0,0.156,2.2,1.85,87.36,1.05,2.02,87.19,2.46,2.2,93.78,0.35,1.67,86.31,2.46,1.76,102.22,-0.62,2.72,86.22,2.2,2.13,89.8,0.15,2.36,89.19,2.07,2.52,96.33,0.26,1.44,87.74,2.98,2.39,103.71,-0.71,2.78,88.69,0.063,0.4933,0.2918,0.0042,0.4975,0.2846,0.0591,0.5004,0.3686,0.0075,0.4808,0.2675,0.0852,0.4981,0.4554,-0.0203,0.5051,0.2787,0.0,0.0,0.052,0.019,0.006,0.149,0.006,0.006,0.091,0.0,0.0,0.013,0.026,0.026,0.058,0.0,0.006,0.071,0.0414,-0.273,0.3789,-0.0092,-0.2592,0.247,-0.0107,-0.3267,0.1749,-0.0123,-0.3022,0.2025,0.0383,-0.3114,0.3375,-0.023,-0.2454,0.1457,0.0044,-0.0339,0.0975,-0.0247,-0.0499,0.0859,0.0,-0.0291,0.062,0.0022,-0.0466,0.0901,0.0,-0.0366,0.0743,-0.0,-0.0487,0.0909,0.0142,-0.123,-0.0429,-0.0223,-0.006,0.0619,0.4955,0.2833,0.0088,0.4987,0.2785,0.0651,0.5008,0.3631,0.0101,0.4824,0.2571,0.0889,0.4999,0.4493,-0.0186,0.5105,0.2739,0.0,0.0,-0.2592,0.0,0.0,0.0,0.0,0.0,0.0,
2.48,run,8.26,3.72,-0.3,-1.39,-1.14,-13.3,0.0,0.0,0.156,2.2,1.76,87.71,1.05,1.76,87.54,2.46,1.85,94.04,0.35,1.41,86.66,2.46,1.58,102.22,-0.62,2.55,86.66,2.19,1.73,90.11,0.07,2.06,89.56,2.07,2.2,96.47,0.33,1.07,88.07,2.98,2.14,103.6,-0.7,2.57,89.01,0.0625,0.486,0.2954,0.0021,0.492,0.289,0.0591,0.4946,0.3702,0.0095,0.474,0.2714,0.0851,0.4935,0.4541,-0.02,0.5012,0.2825,0.0,0.0,0.052,0.019,0.006,0.149,0.006,0.006,0.091,0.0,0.0,0.013,0.026,0.026,0.058,0.0,0.006,0.071,0.0414,-0.2807,0.3866,-0.0092,-0.2623,0.2546,-0.0107,-0.3283,0.181,-0.0123,-0.3053,0.2086,0.0383,-0.3175,0.3405,-0.023,-0.25,0.1549,0.0031,-0.0526,0.0972,-0.0173,-0.0465,0.089,0.0,-0.0261,0.0665,0.0016,-0.0442,0.0862,0.0,-0.0488,0.0636,-0.0,-0.0515,0.0984,0.0129,-0.1197,0.0029,0.0199,0.0397,0.063,0.4933,0.2918,0.0042,0.4975,0.2846,0.0591,0.5004,0.3686,0.0075,0.4808,0.2675,0.0852,0.4981,0.4554,-0.0203,0.5051,0.2787,0.0,0.0,-0.2664,0.0,0.0,0.0,0.0,0.0,0.0,
2.52,run,8.25,3.74,-0.2,0.29,-0.83,-13.7,0.0,0.0,0.189,2.2,1.49,88.33,0.88,1.58,87.89,2.46,1.76,94.31,0.35,1.23,87.19,2.46,1.58,102.48,-0.62,2.2,87.19,2.16,1.75,90.75,-0.01,1.91,90.04,2.01,2.21,97.03,0.25,0.97,88.69,2.88,1.97,104.32,-0.67,2.28,89.68,0.0618,0.4864,0.303,-0.0002,0.4894,0.2946,0.0573,0.4948,0.3769,0.0072,0.4721,0.2787,0.0823,0.4903,0.4626,-0.0192,0.496,0.2904,0.0,0.006,0.058,0.019,0.013,0.189,0.006,0.019,0.111,0.0,0.0,0.026,0.019,0.019,0.078,0.0,0.0,0.084,0.0414,-0.2823,0.3927,-0.0092,-0.2669,0.2608,-0.0107,-0.3344,0.1856,-0.0123,-0.3099,0.2148,0.0383,-0.3206,0.3405,-0.023,-0.2531,0.1626,0.0022,-0.0426,0.0909,-0.0121,-0.0497,0.0852,0.0,-0.0411,0.0637,0.0011,-0.0481,0.0832,0.0,-0.0456,0.0445,-0.0,-0.0474,0.0974,0.0116,-0.1255,-0.0053,-0.0243,-0.0199,0.0625,0.486,0.2954,0.0021,0.492,0.289,0.0591,0.4946,0.3702,0.0095,0.474,0.2714,0.0851,0.4935,0.4541,-0.02,0.5012,0.2825,0.0,0.0,-0.2736,0.0,0.0,0.0,0.0,0.0,0.0,
2.56,run,8.22,3.76,-1.28,1.04,0.16,-14.0,0.0,0.0,0.189,2.2,1.41,88.77,0.7,1.32,88.33,2.46,1.76,94.66,0.44,0.97,87.8,2.46,1.23,102.83,-0.62,1.93,87.54,2.17,1.46,91.02,-0.11,1.63,90.33,1.97,1.87,97.21,0.29,0.68,89.02,2.89,1.68,104.21,-0.69,2.02,90.02,0.0619,0.4811,0.3062,-0.0031,0.4842,0.298,0.0562,0.4885,0.3789,0.0083,0.4669,0.2825,0.0825,0.4851,0.4613,-0.0198,0.4913,0.2943,0.0,0.006,0.058,0.019,0.013,0.189,0.006,0.019,0.111,0.0,0.0,0.026,0.019,0.019,0.078,0.0,0.0,0.084,0.0414,-0.2869,0.4034,-0.0123,-0.27,0.2669,-0.0107,-0.3359,0.1902,-0.0123,-0.3129,0.224,0.0383,-0.3206,0.3451,-0.023,-0.2592,0.1718,0.0015,-0.0471,0.1039,-0.02,-0.0463,0.0827,0.0,-0.0345,0.0619,0.0008,-0.0452,0.0928,0.0,-0.0319,0.0484,-0.0,-0.0562,0.1027,0.0105,-0.1239,-0.0035,0.0051,-0.0145,0.0618,0.4864,0.303,-0.0002,0.4894,0.2946,0.0573,0.4948,0.3769,0.0072,0.4721,0.2787,0.0823,0.4903,0.4626,-0.0192,0.496,0.2904,0.0,0.0,-0.2808,0.0,0.0,0.0,0.0,0.0,0.0,
2.6,run,8.18,3.62,-0.83,-3.02,-0.76,-14.4,0.0,0.0,0.189,2.2,1.32,89.21,0.7,1.14,88.77,2.46,1.49,94.92,0.53,0.88,88.24,2.46,1.05,103.27,-0.62,1.76,87.98,2.17,1.23,91.58,-0.17,1.46,90.86,1.87,1.71,97.59,0.25,0.53,89.62,2.83,1.56,104.52,-0.69,1.8,90.5,0.062,0.477,0.3127,-0.0049,0.4811,0.3042,0.0535,0.4857,0.3834,0.007,0.4641,0.2896,0.0808,0.4829,0.465,-0.0199,0.4873,0.3,0.0,0.006,0.058,0.019,0.013,0.189,0.006,0.019,0.111,0.0,0.0,0.026,0.019,0.019,0.078,0.0,0.0,0.084,0.0414,-0.2884,0.4111,-0.0153,-0.2746,0.2746,-0.0107,-0.3359,0.1963,-0.0107,-0.3175,0.2347,0.0383,-0.3267,0.3513,-0.023,-0.2638,0.1779,0.0011,-0.0387,0.1017,-0.0256,-0.0498,0.0868,0.0,-0.0242,0.0665,0.0063,-0.049,0.1055,0.0,-0.0455,0.0571,-0.0,-0.0567,0.0951,0.0076,-0.1219,-0.0224,0.0182,0.0028,0.0619,0.4811,0.3062,-0.0031,0.4842,0.298,0.0562,0.4885,0.3789,0.0083,0.4669,0.2825,0.0825,0.4851,0.4613,-0.0198,0.4913,0.2943,0.0,0.0,-0.288,0.0,0.0,0.0,0.0,0.0,0.0,
2.64,run,8.25,3.5,1.71,-3.84,0.2,-14.8,0.0,0.0,0.189,2.2,0.88,89.74,0.7,0.88,89.21,2.46,0.88,95.27,0.35,0.62,88.77,2.46,0.97,103.36,-0.62,1.41,88.42,2.2,1.09,92.22,-0.35,1.26,91.09,1.84,1.52,97.9,0.27,0.43,89.94,2.8,1.2,104.78,-0.64,1.54,90.89,0.0628,0.4743,0.3203,-0.0099,0.4774,0.307,0.0527,0.4823,0.387,0.0077,0.4624,0.2934,0.0799,0.4763,0.4681,-0.0183,0.4825,0.3046,0.0,0.006,0.045,0.026,0.019,0.117,0.013,0.058,0.13,0.0,0.0,0.019,0.013,0.006,0.13,0.0,0.0,0.071,0.0414,-0.2899,0.4188,-0.0153,-0.2777,0.2823,-0.0107,-0.3405,0.201,-0.0092,-0.3191,0.2424,0.0383,-0.3298,0.359,-0.023,-0.2669,0.1856,0.0007,-0.0328,0.0998,-0.0179,-0.0463,0.0894,0.0,-0.0341,0.0637,0.0102,-0.04,0.1025,0.0,-0.0433,0.0686,-0.0,-0.0512,0.0952,0.0044,-0.1345,-0.0145,-0.0527,-0.0133,0.062,0.477,0.3127,-0.0049,0.4811,0.3042,0.0535,0.4857,0.3834,0.007,0.4641,0.2896,0.0808,0.4829,0.465,-0.0199,0.4873,0.3,0.0,0.0,-0.2952,0.0,0.0,0.0,0.0,0.0,0.0,
2.68,run,8.21,3.61,-0.14,2.85,-1.2,-15.1,0.0,0.0,0.189,2.2,0.88,90.35,0.44,0.7,89.65,2.46,0.79,95.62,0.35,0.53,89.3,2.46,0.7,103.45,-0.62,1.14,88.95,2.21,0.87,92.67,-0.38,0.96,91.35,1.84,1.37,98.11,0.29,0.21,90.1,2.8,0.91,104.94,-0.58,1.3,91.21,0.063,0.4704,0.3255,-0.0109,0.4719,0.31,0.0525,0.4795,0.3895,0.0083,0.4583,0.2953,0.0801,0.4711,0.4699,-0.0165,0.4781,0.3083,0.0,0.006,0.045,0.026,0.019,0.117,0.013,0.058,0.13,0.0,0.0,0.019,0.013,0.006,0.13,0.0,0.0,0.071,0.0414,-0.2976,0.428,-0.0153,-0.2823,0.2899,-0.0107,-0.3513,0.2071,-0.0123,-0.3237,0.2516,0.0383,-0.3313,0.3605,-0.023,-0.273,0.1933,0.0005,-0.0519,0.1046,-0.0125,-0.0498,0.0915,0.0,-0.0644,0.0677,-0.0045,-0.0454,0.1064,0.0,-0.0361,0.0538,-0.0,-0.059,0.0955,0.0104,-0.1446,0.0299,-0.0669,0.0035,0.0628,0.4743,0.3203,-0.0099,0.4774,0.307,0.0527,0.4823,0.387,0.0077,0.4624,0.2934,0.0799,0.4763,0.4681,-0.0183,0.4825,0.3046,0.0,0.0,-0.3024,0.0,0.0,0.0,0.0,0.0,0.0,
2.72,run,8.14,3.41,-2.11,-4.5,0.35,-15.5,0.0,0.0,0.189,2.2,0.53,90.7,0.35,0.44,89.74,2.46,0.79,95.89,0.35,0.26,89.56,2.46,0.26,103.97,-0.62,0.97,89.3,2.15,0.58,92.88,-0.38,0.75,91.86,1.78,1.19,98.48,0.29,-0.09,90.72,2.77,0.85,105.25,-0.61,1.01,91.6,0.0614,0.4651,0.328,-0.0108,0.4682,0.316,0.0508,0.4762,0.3939,0.0083,0.4529,0.3025,0.0793,0.47,0.4735,-0.0175,0.473,0.313,0.0,0.006,0.045,0.026,0.019,0.117,0.013,0.058,0.13,0.0,0.0,0.019,0.013,0.006,0.13,0.0,0.0,0.071,0.0414,-0.2976,0.4387,-0.0199,-0.2853,0.2976,-0.0107,-0.3528,0.2132,-0.0123,-0.3252,0.2608,0.0383,-0.3359,0.362,-0.023,-0.2777,0.2025,0.0004,-0.0363,0.113,-0.0258,-0.0462,0.0925,0.0,-0.0507,0.0702,-0.0031,-0.0374,0.1086,0.0,-0.0423,0.0433,-0.0,-0.0583,0.101,0.0068,-0.1351,-0.0024,0.0498,-0.0209,0.063,0.4704,0.3255,-0.0109,0.4719,0.31,0.0525,0.4795,0.3895,0.0083,0.4583,0.2953,0.0801,0.4711,0.4699,-0.0165,0.4781,0.3083,0.0,0.0,-0.3096,0.0,0.0,0.0,0.0,0.0,0.0,
2.76,run,8.08,3.31,-1.19,-1.73,0.64,-15.8,0.0,0.0,0.189,2.2,0.44,91.23,0.35,0.26,90.09,2.37,0.53,96.15,0.44,0.0,89.91,2.46,0.09,104.15,-0.62,0.7,89.65,2.19,0.48,93.88,-0.6,0.62,92.47,1.61,1.04,98.9,0.21,-0.11,91.66,2.63,0.56,105.47,-0.56,0.76,92.19,0.0625,0.4633,0.3398,-0.0171,0.4659,0.3232,0.0459,0.4735,0.3989,0.006,0.4526,0.3137,0.075,0.4648,0.4762,-0.016,0.4684,0.3198,0.0,0.0,0.052,0.026,0.013,0.163,0.026,0.033,0.117,0.0,0.0,0.039,0.0,0.026,0.065,0.0,0.006,0.078,0.0414,-0.3037,0.4449,-0.0215,-0.2899,0.2991,-0.0107,-0.3528,0.2178,-0.0123,-0.3298,0.2654,0.0383,-0.3436,0.3712,-0.023,-0.2807,0.2086,0.0003,-0.0484,0.102,-0.0238,-0.0495,0.0705,0.0,-0.0355,0.0663,-0.0022,-0.0434,0.0932,0.0,-0.0583,0.0647,-0.0,-0.0523,0.0936,0.0007,-0.1525,-0.0369,-0.0785,0.006,0.0614,0.4651,0.328,-0.0108,0.4682,0.316,0.0508,0.4762,0.3939,0.0083,0.4529,0.3025,0.0793,0.47,0.4735,-0.0175,0.473,0.313,0.0,0.0,-0.3168,0.0,0.0,0.0,0.0,0.0,0.0,
2.8,run,8.07,3.35,0.7,0.02,-0.46,-16.2,0.0,0.0,0.189,2.2,0.09,91.67,0.18,0.0,90.7,2.37,0.26,96.42,0.26,-0.09,90.53,2.37,-0.09,104.33,-0.62,0.44,90.09,2.15,0.1,94.17,-0.69,0.3,92.77,1.6,0.77,99.02,0.29,-0.4,92.02,2.61,0.27,105.51,-0.53,0.45,92.53,0.0613,0.4563,0.3432,-0.0197,0.46,0.3267,0.0458,0.4686,0.4002,0.0084,0.4472,0.3178,0.0747,0.4595,0.4765,-0.0152,0.4627,0.3239,0.0,0.0,0.052,0.026,0.013,0.163,0.026,0.033,0.117,0.0,0.0,0.039,0.0,0.026,0.065,0.0,0.006,0.078,0.0414,-0.3053,0.4541,-0.0215,-0.293,0.3053,-0.0123,-0.3574,0.2224,-0.0107,-0.3344,0.2715,0.0383,-0.3467,0.3743,-0.023,-0.2853,0.2148,0.0002,-0.0397,0.1064,-0.0167,-0.0463,0.0727,-0.0058,-0.0424,0.0639,0.0043,-0.0479,0.0886,0.0,-0.0525,0.057,-0.0,-0.0541,0.0889,-0.0049,-0.1609,-0.0208,-0.0302,0.0111,0.0625,0.4633,0.3398,-0.0171,0.4659,0.3232,0.0459,0.4735,0.3989,0.006,0.4526,0.3137,0.075,0.4648,0.4762,-0.016,0.4684,0.3198,0.0,0.0,-0.324,0.0,0.0,0.0,0.0,0.0,0.0,
2.84,run,7.97,3.29,-1.86,-1.82,-1.51,-16.6,0.0,0.0,0.189,2.2,0.0,92.2,0.0,-0.09,91.14,2.37,0.26,96.77,0.35,-0.26,91.05,2.37,-0.35,104.41,-0.62,0.18,90.53,2.1,-0.12,94.47,-0.7,0.07,93.14,1.61,0.58,99.35,0.31,-0.64,92.35,2.61,0.03,105.68,-0.48,0.2,92.98,0.06,0.4524,0.3467,-0.0199,0.4559,0.3311,0.0461,0.4651,0.4041,0.0087,0.443,0.3217,0.0745,0.455,0.4786,-0.0138,0.4581,0.3292,0.0,0.0,0.052,0.026,0.013,0.163,0.026,0.033,0.117,0.0,0.0,0.039,0.0,0.026,0.065,0.0,0.006,0.078,0.0414,-0.3114,0.4617,-0.0245,-0.2976,0.316,-0.0123,-0.362,0.227,-0.0138,-0.3359,0.2823,0.0368,-0.3497,0.3774,-0.023,-0.2899,0.2224,0.0001,-0.0506,0.1031,-0.0231,-0.0496,0.0908,-0.0041,-0.0468,0.0619,-0.0084,-0.0392,0.102,-0.0057,-0.0482,0.0513,-0.0,-0.055,0.0908,-0.0054,-0.158,0.0123,0.0003,-0.0079,0.0613,0.4563,0.3432,-0.0197,0.46,0.3267,0.0458,0.4686,0.4002,0.0084,0.4472,0.3178,0.0747,0.4595,0.4765,-0.0152,0.4627,0.3239,0.0,0.0,-0.3312,0.0,0.0,0.0,0.0,0.0,0.0,
2.88,run,7.86,3.33,-3.25,1.32,2.27,-16.9,0.0,0.0,0.189,2.2,-0.44,92.72,0.0,-0.35,91.58,2.37,0.09,97.03,0.35,-0.62,91.58,2.37,-0.7,104.68,-0.62,-0.18,90.97,2.09,-0.21,95.2,-0.83,-0.03,93.64,1.48,0.46,99.78,0.26,-0.72,93.09,2.49,-0.2,106.07,-0.48,-0.08,93.52,0.0598,0.4507,0.3553,-0.0237,0.4541,0.337,0.0424,0.4629,0.4091,0.0074,0.4415,0.3305,0.0711,0.451,0.4831,-0.0138,0.4531,0.3355,0.0,0.006,0.058,0.019,0.019,0.149,0.026,0.019,0.123,0.006,0.0,0.033,0.006,0.039,0.111,0.0,0.006,0.078,0.0414,-0.3129,0.4709,-0.0276,-0.2991,0.3237,-0.0123,-0.362,0.2332,-0.0123,-0.339,0.2915,0.0368,-0.3543,0.3789,-0.023,-0.2945,0.2301,0.0001,-0.0412,0.1067,-0.0277,-0.0405,0.0924,-0.0029,-0.0328,0.0664,-0.0001,-0.039,0.106,-0.004,-0.051,0.0417,-0.0,-0.0558,0.0923,-0.014,-0.1629,-0.0325,-0.0318,-0.0263,0.06,0.4524,0.3467,-0.0199,0.4559,0.3311,0.0461,0.4651,0.4041,0.0087,0.443,0.3217,0.0745,0.455,0.4786,-0.0138,0.4581,0.3292,0.0,0.0,-0.3384,0.0,0.0,0.0,0.0,0.0,0.0,
2.92,run,7.82,3.19,-1.32,-4.19,-2.04,-17.3,0.0,0.0,0.189,2.2,-0.44,93.16,-0.18,-0.62,91.93,2.37,-0.26,97.38,0.35,-0.79,92.02,2.2,-0.97,104.68,-0.62,-0.44,91.49,2.08,-0.63,95.44,-0.88,-0.28,94.07,1.37,0.26,99.92,0.27,-1.03,93.57,2.45,-0.34,106.11,-0.55,-0.35,93.69,0.0595,0.4432,0.3582,-0.0251,0.4495,0.342,0.0391,0.4593,0.4109,0.0078,0.4358,0.3361,0.07,0.4484,0.4837,-0.0158,0.4482,0.3376,0.0,0.006,0.058,0.019,0.019,0.149,0.026,0.019,0.123,0.006,0.0,0.033,0.006,0.039,0.111,0.0,0.006,0.078,0.0414,-0.3206,0.4801,-0.0276,-0.3037,0.3313,-0.0123,-0.3651,0.2378,-0.0123,-0.3451,0.3007,0.0368,-0.3605,0.3835,-0.023,-0.3007,0.2378,0.0001,-0.0576,0.1093,-0.0194,-0.0456,0.0935,-0.002,-0.0344,0.0637,-0.0001,-0.0503,0.1087,-0.0028,-0.0587,0.0465,-0.0,-0.0621,0.0934,-0.024,-0.1591,-0.0567,0.023,0.0396,0.0598,0.4507,0.3553,-0.0237,0.4541,0.337,0.0424,0.4629,0.4091,0.0074,0.4415,0.3305,0.0711,0.451,0.4831,-0.0138,0.4531,0.3355,0.0,0.0,-0.3456,0.0,0.0,0.0,0.0,0.0,0.0,
2.96,run,7.86,3.18,1.03,-0.14,-0.52,-17.6,0.0,0.0,0.189,2.2,-0.7,93.69,-0.35,-0.7,92.29,2.2,-0.35,97.73,0.35,-0.88,92.55,2.29,-0.97,104.77,-0.62,-0.7,91.93,2.06,-0.6,96.22,-1.02,-0.38,94.5,1.32,0.11,100.4,0.24,-1.03,94.12,2.34,-0.72,106.47,-0.47,-0.59,94.38,0.0588,0.4437,0.3673,-0.0292,0.4476,0.347,0.0376,0.4565,0.4164,0.0068,0.4358,0.3426,0.067,0.4415,0.4879,-0.0134,0.4438,0.3457,0.0,0.006,0.058,0.019,0.019,0.149,0.026,0.019,0.123,0.006,0.0,0.033,0.006,0.039,0.111,0.0,0.006,0.078,0.0414,-0.3206,0.4878,-0.0307,-0.3083,0.3375,-0.0123,-0.3712,0.2439,-0.0123,-0.3482,0.3083,0.0337,-0.3651,0.3835,-0.023,-0.3053,0.247,0.0,-0.0404,0.1054,-0.0251,-0.0493,0.0885,-0.0014,-0.0472,0.0677,-0.0001,-0.0468,0.105,-0.0135,-0.0584,0.0325,-0.0,-0.0608,0.1001,-0.0274,-0.1718,-0.023,-0.0732,-0.0357,0.0595,0.4432,0.3582,-0.0251,0.4495,0.342,0.0391,0.4593,0.4109,0.0078,0.4358,0.3361,0.07,0.4484,0.4837,-0.0158,0.4482,0.3376,0.0,0.0,-0.3528,0.0,0.0,0.0,0.0,0.0,0.0,
3.0,run,7.72,3.27,-4.16,2.56,0.34,-18.0,0.0,0.0,0.189,2.02,-0.97,94.13,-0.44,-1.05,92.81,2.11,-0.35,98.0,0.44,-1.05,93.16,2.11,-1.32,105.21,-0.53,-0.97,92.29,2.04,-1.01,96.4,-1.07,-0.74,94.77,1.37,-0.24,100.47,0.34,-1.37,94.31,2.4,-1.0,106.29,-0.45,-0.84,94.68,0.0582,0.4361,0.3695,-0.0307,0.441,0.3502,0.0392,0.4502,0.4173,0.0097,0.4296,0.3449,0.0686,0.4364,0.4858,-0.0129,0.4394,0.3492,0.0,0.0,0.071,0.006,0.006,0.13,0.013,0.0,0.189,0.0,0.0,0.019,0.013,0.045,0.039,0.006,0.006,0.078,0.0414,-0.3252,0.497,-0.0337,-0.3099,0.3436,-0.0153,-0.3728,0.25,-0.0123,-0.3497,0.3175,0.0353,-0.3651,0.385,-0.023,-0.3099,0.2546,0.0,-0.0451,0.1074,-0.0288,-0.0401,0.0844,-0.0122,-0.0387,0.0698,-0.0,-0.0384,0.1071,-0.0039,-0.0409,0.0284,-0.0,-0.0594,0.0981,-0.0242,-0.1726,0.018,-0.0025,-0.009,0.0588,0.4437,0.3673,-0.0292,0.4476,0.347,0.0376,0.4565,0.4164,0.0068,0.4358,0.3426,0.067,0.4415,0.4879,-0.0134,0.4438,0.3457,0.0,0.0,-0.36,0.0,0.0,0.0,0.0,0.0,0.0,
3.04,run,7.84,3.11,2.87,-3.36,-0.67,-18.4,0.0,0.0,0.189,2.02,-1.23,94.66,-0.53,-1.14,93.25,2.02,-0.7,98.26,0.35,-1.32,93.69,2.11,-1.67,105.38,-0.44,-1.23,92.72,1.99,-1.24,96.84,-1.07,-0.84,95.46,1.21,-0.26,100.92,0.24,-1.53,95.21,2.29,-1.01,106.75,-0.49,-1.14,95.1,0.0569,0.4321,0.3746,-0.0305,0.4393,0.3584,0.0346,0.4499,0.4226,0.0069,0.4267,0.3554,0.0653,0.4361,0.4911,-0.0141,0.4338,0.3541,0.0,0.0,0.071,0.006,0.006,0.13,0.013,0.0,0.189,0.0,0.0,0.019,0.013,0.045,0.039,0.006,0.006,0.078,0.0383,-0.3298,0.5047,-0.0353,-0.316,0.3528,-0.0169,-0.3728,0.2546,-0.0107,-0.3528,0.3283,0.0322,-0.3712,0.3927,-0.0215,-0.3145,0.2608,-0.0117,-0.0491,0.1045,-0.026,-0.0515,0.0942,-0.0144,-0.0271,0.0665,0.0058,-0.0386,0.116,-0.0144,-0.0521,0.0492,0.0059,-0.0591,0.0921,-0.0356,-0.1648,-0.0726,0.0447,0.0059,0.0582,0.4361,0.3695,-0.0307,0.441,0.3502,0.0392,0.4502,0.4173,0.0097,0.4296,0.3449,0.0686,0.4364,0.4858,-0.0129,0.4394,0.3492,0.0,0.0,-0.3672,0.0,0.0,0.0,0.0,0.0,0.0,
3.08,run,7.84,3.08,0.49,-0.39,0.25,-18.7,0.0,0.0,0.189,2.02,-1.49,95.1,-0.53,-1.32,93.6,2.02,-1.05,98.35,0.35,-1.49,93.78,2.11,-1.67,105.47,-0.44,-1.32,93.16,2.01,-1.42,97.55,-1.28,-1.12,95.6,1.28,-0.67,101.13,0.36,-1.62,95.25,2.25,-1.55,106.54,-0.37,-1.28,95.51,0.0575,0.4287,0.383,-0.0365,0.4342,0.36,0.0367,0.4423,0.4251,0.0102,0.4251,0.3559,0.0644,0.4264,0.4887,-0.0104,0.4312,0.3589,0.0,0.0,0.071,0.006,0.006,0.13,0.013,0.0,0.189,0.0,0.0,0.019,0.013,0.045,0.039,0.006,0.006,0.078,0.0383,-0.3344,0.5139,-0.0368,-0.3175,0.3605,-0.0184,-0.3789,0.2592,-0.0123,-0.3574,0.3375,0.0322,-0.3774,0.3958,-0.0199,-0.3191,0.2684,-0.0082,-0.0518,0.1079,-0.024,-0.0418,0.095,-0.0159,-0.0421,0.0639,-0.0017,-0.0444,0.116,-0.0101,-0.0596,0.046,0.0099,-0.0588,0.0935,-0.0253,-0.179,0.0501,-0.0587,-0.0117,0.0569,0.4321,0.3746,-0.0305,0.4393,0.3584,0.0346,0.4499,0.4226,0.0069,0.4267,0.3554,0.0653,0.4361,0.4911,-0.0141,0.4338,0.3541,0.0,0.0,-0.3744,0.0,0.0,0.0,0.0,0.0,0.0,
3.12,run,7.77,3.13,-1.38,1.0,-0.74,-19.1,0.0,0.0,0.189,2.02,-1.67,95.54,-0.7,-1.67,93.96,1.93,-1.05,98.79,0.35,-1.49,94.39,2.11,-2.02,105.47,-0.44,-1.67,93.6,1.97,-1.66,97.86,-1.26,-1.36,96.02,1.22,-0.73,101.5,0.35,-1.91,95.85,2.22,-1.68,106.89,-0.33,-1.6,95.77,0.0562,0.4244,0.3866,-0.0359,0.4298,0.3649,0.0349,0.4413,0.4294,0.01,0.4198,0.363,0.0636,0.4239,0.4928,-0.0095,0.4255,0.3621,0.0,0.0,0.058,0.013,0.013,0.182,0.013,0.019,0.149,0.0,0.0,0.026,0.006,0.039,0.117,0.0,0.006,0.071,0.0383,-0.339,0.5216,-0.0368,-0.3206,0.3666,-0.0184,-0.385,0.2608,-0.0123,-0.3605,0.339,0.0322,-0.3774,0.3973,-0.0199,-0.3206,0.2761,-0.0057,-0.0534,0.1041,-0.0168,-0.0407,0.0893,-0.0111,-0.0523,0.0505,-0.0012,-0.0425,0.0869,-0.0071,-0.0418,0.0379,0.0069,-0.0469,0.094,-0.0257,-0.1815,0.0085,-0.0067,0.0043,0.0575,0.4287,0.383,-0.0365,0.4342,0.36,0.0367,0.4423,0.4251,0.0102,0.4251,0.3559,0.0644,0.4264,0.4887,-0.0104,0.4312,0.3589,0.0,0.0,-0.3816,0.0,0.0,0.0,0.0,0.0,0.0,
3.16,run,7.66,3.14,-2.93,0.67,-0.23,-19.4,0.0,0.0,0.189,2.02,-2.02,96.06,-0.7,-1.85,94.39,1.85,-1.41,99.14,0.35,-1.93,94.92,2.02,-2.46,105.56,-0.44,-1.85,94.04,1.92,-1.86,98.27,-1.28,-1.48,96.61,1.11,-0.87,101.89,0.33,-2.1,96.49,2.12,-1.8,107.27,-0.39,-1.87,96.25,0.0549,0.4208,0.3914,-0.0366,0.4276,0.3719,0.0317,0.4388,0.434,0.0094,0.4163,0.3704,0.0605,0.4219,0.4973,-0.0111,0.4206,0.3677,0.0,0.0,0.058,0.013,0.013,0.182,0.013,0.019,0.149,0.0,0.0,0.026,0.006,0.039,0.117,0.0,0.006,0.071,0.0383,-0.3421,0.5292,-0.0399,-0.3267,0.3728,-0.0199,-0.385,0.2684,-0.0123,-0.3605,0.3497,0.0322,-0.3835,0.3973,-0.0199,-0.3267,0.2838,-0.004,-0.0489,0.1018,-0.0233,-0.0516,0.0857,-0.0136,-0.0366,0.0642,-0.0008,-0.0298,0.1013,-0.0049,-0.0524,0.0265,0.0049,-0.0559,0.0947,-0.0313,-0.1771,-0.0241,0.0174,-0.0129,0.0562,0.4244,0.3866,-0.0359,0.4298,0.3649,0.0349,0.4413,0.4294,0.01,0.4198,0.363,0.0636,0.4239,0.4928,-0.0095,0.4255,0.3621,0.0,0.0,-0.3888,0.0,0.0,0.0,0.0,0.0,0.0,
3.2,run,7.63,3.14,-1.37,0.27,-1.05,-19.8,0.0,0.0,0.189,2.02,-2.11,96.5,-0.79,-1.93,94.66,1.85,-1.41,99.49,0.35,-2.02,95.45,2.02,-2.55,106.17,-0.44,-2.11,94.22,1.9,-2.09,98.81,-1.4,-1.62,97.07,0.98,-0.98,102.2,0.32,-2.26,97.1,2.0,-1.99,107.51,-0.42,-2.13,96.57,0.0541,0.4165,0.3978,-0.0399,0.4251,0.3773,0.0281,0.4367,0.4377,0.0093,0.4134,0.3777,0.0572,0.4184,0.5001,-0.0121,0.4157,0.3714,0.0,0.0,0.058,0.013,0.013,0.182,0.013,0.019,0.149,0.0,0.0,0.026,0.006,0.039,0.117,0.0,0.006,0.071,0.0383,-0.3482,0.5384,-0.0399,-0.3298,0.3804,-0.0215,-0.3912,0.2746,-0.0123,-0.3682,0.359,0.0307,-0.3912,0.3988,-0.0199,-0.3298,0.2915,-0.0028,-0.0572,0.1056,-0.0163,-0.0476,0.0886,-0.0152,-0.0486,0.0679,-0.0006,-0.0495,0.1053,-0.0092,-0.0653,0.0243,0.0034,-0.0506,0.0949,-0.0414,-0.176,-0.0512,0.0117,-0.004,0.0549,0.4208,0.3914,-0.0366,0.4276,0.3719,0.0317,0.4388,0.434,0.0094,0.4163,0.3704,0.0605,0.4219,0.4973,-0.0111,0.4206,0.3677,0.0,0.0,-0.396,0.0,0.0,0.0,0.0,0.0,0.0,
3.24,run,7.7,3.15,1.85,0.35,-0.7,-20.2,0.0,0.0,0.189,2.02,-2.46,96.94,-0.88,-2.2,95.27,1.76,-1.41,99.93,0.35,-2.37,96.06,2.02,-2.55,106.44,-0.44,-2.46,94.75,1.85,-2.38,99.18,-1.48,-1.87,97.43,1.02,-1.26,102.46,0.36,-2.44,97.41,1.99,-2.31,107.44,-0.4,-2.36,96.97,0.053,0.4113,0.4021,-0.0422,0.4205,0.3815,0.029,0.4317,0.4407,0.0102,0.4102,0.3813,0.0568,0.4126,0.4993,-0.0116,0.4117,0.3761,0.0,0.006,0.071,0.006,0.006,0.175,0.019,0.013,0.123,0.0,0.0,0.026,0.0,0.013,0.045,0.0,0.0,0.084,0.0383,-0.3497,0.5461,-0.0414,-0.3313,0.385,-0.0215,-0.3912,0.2807,-0.0123,-0.3697,0.3682,0.0307,-0.3927,0.4096,-0.0199,-0.3344,0.2945,-0.002,-0.0458,0.1027,-0.0172,-0.0391,0.0793,-0.0107,-0.034,0.0705,-0.0004,-0.0404,0.1082,-0.0064,-0.0515,0.0573,0.0024,-0.0527,0.078,-0.0441,-0.1756,-0.024,0.0047,-0.0183,0.0541,0.4165,0.3978,-0.0399,0.4251,0.3773,0.0281,0.4367,0.4377,0.0093,0.4134,0.3777,0.0572,0.4184,0.5001,-0.0121,0.4157,0.3714,0.0,0.0,-0.4032,0.0,0.0,0.0,0.0,0.0,0.0,
3.28,run,7.51,3.24,-3.53,2.42,-2.71,-20.5,0.0,0.0,0.189,1.93,-2.55,97.47,-1.05,-2.2,95.8,1.67,-1.85,100.2,0.35,-2.37,96.59,2.02,-3.08,106.52,-0.44,-2.64,95.1,1.84,-2.58,99.56,-1.52,-2.1,97.76,1.06,-1.53,102.7,0.35,-2.58,97.63,1.99,-2.55,107.42,-0.35,-2.48,97.39,0.0526,0.4076,0.4066,-0.0433,0.4164,0.3854,0.0303,0.4268,0.4436,0.01,0.4076,0.3838,0.0568,0.4082,0.4991,-0.01,0.4094,0.381,0.0,0.006,0.071,0.006,0.006,0.175,0.019,0.013,0.123,0.0,0.0,0.026,0.0,0.013,0.045,0.0,0.0,0.084,0.0383,-0.3559,0.5538,-0.043,-0.3359,0.3958,-0.023,-0.3912,0.2884,-0.0123,-0.3758,0.3789,0.0307,-0.3927,0.4142,-0.0199,-0.3405,0.3037,-0.0014,-0.055,0.1005,-0.0178,-0.0445,0.0956,-0.0132,-0.0238,0.078,-0.0003,-0.0512,0.1159,-0.0045,-0.036,0.0573,0.0017,-0.0598,0.089,-0.0376,-0.1751,0.0323,0.0061,-0.0122,0.053,0.4113,0.4021,-0.0422,0.4205,0.3815,0.029,0.4317,0.4407,0.0102,0.4102,0.3813,0.0568,0.4126,0.4993,-0.0116,0.4117,0.3761,0.0,0.0,-0.4104,0.0,0.0,0.0,0.0,0.0,0.0,
3.32,run,7.5,3.09,0.64,-4.03,1.36,-20.9,0.0,0.0,0.189,1.76,-2.9,97.82,-1.05,-2.46,96.06,1.67,-2.02,100.46,0.35,-2.55,96.86,2.02,-3.16,106.52,-0.44,-2.81,95.45,1.75,-2.76,100.12,-1.55,-2.15,98.4,0.88,-1.47,103.21,0.35,-2.79,98.44,1.85,-2.63,108.07,-0.44,-2.82,97.72,0.0501,0.4043,0.4132,-0.0442,0.4154,0.393,0.0253,0.4278,0.4495,0.01,0.4039,0.3934,0.0529,0.4067,0.5067,-0.0125,0.4033,0.3849,0.0,0.006,0.071,0.006,0.006,0.175,0.019,0.013,0.123,0.0,0.0,0.026,0.0,0.013,0.045,0.0,0.0,0.084,0.0368,-0.3574,0.563,-0.046,-0.3359,0.405,-0.0245,-0.3988,0.293,-0.0123,-0.3758,0.3881,0.0307,-0.4019,0.4157,-0.0199,-0.3436,0.3099,-0.0068,-0.0443,0.1052,-0.024,-0.0312,0.1018,-0.015,-0.0457,0.072,-0.0002,-0.0358,0.1159,-0.0032,-0.0601,0.0459,0.0012,-0.0535,0.0855,-0.0539,-0.1671,-0.0617,0.0422,-0.0474,0.0526,0.4076,0.4066,-0.0433,0.4164,0.3854,0.0303,0.4268,0.4436,0.01,0.4076,0.3838,0.0568,0.4082,0.4991,-0.01,0.4094,0.381,0.0,0.0,-0.4176,0.0,0.0,0.0,0.0,0.0,0.0,
3.36,run,7.41,3.26,-3.17,4.19,-0.26,-21.2,0.0,0.0,0.189,1.76,-2.99,98.26,-1.05,-2.72,96.33,1.67,-2.02,100.81,0.35,-2.81,97.29,1.85,-3.34,106.52,-0.44,-3.08,95.89,1.82,-2.99,100.6,-1.71,-2.4,98.53,0.83,-1.84,103.27,0.36,-2.95,98.64,1.8,-3.13,107.75,-0.36,-3.04,98.0,0.052,0.4002,0.4188,-0.0488,0.4109,0.3945,0.0239,0.421,0.4503,0.0102,0.4009,0.3958,0.0515,0.3976,0.503,-0.0103,0.3994,0.3882,0.0,0.006,0.071,0.013,0.006,0.149,0.026,0.013,0.136,0.0,0.0,0.039,0.006,0.013,0.104,0.0,0.006,0.065,0.0337,-0.3636,0.5691,-0.046,-0.3405,0.4096,-0.0245,-0.4019,0.2976,-0.0123,-0.3789,0.3927,0.0307,-0.4034,0.4157,-0.0199,-0.3467,0.316,-0.0162,-0.054,0.0967,-0.0168,-0.0391,0.0885,-0.0105,-0.0435,0.0677,-0.0001,-0.0366,0.0984,-0.0022,-0.0478,0.0321,0.0008,-0.0489,0.0828,-0.0551,-0.1802,0.0112,-0.0703,0.0238,0.0501,0.4043,0.4132,-0.0442,0.4154,0.393,0.0253,0.4278,0.4495,0.01,0.4039,0.3934,0.0529,0.4067,0.5067,-0.0125,0.4033,0.3849,0.0,0.0,-0.4248,0.0,0.0,0.0,0.0,0.0,0.0,
3.4,run,7.22,3.2,-4.67,-0.56,-0.55,-21.6,0.0,0.0,0.189,1.76,-3.34,98.88,-1.05,-2.81,97.03,1.67,-2.11,101.07,0.35,-3.08,97.91,1.76,-3.6,107.05,-0.44,-3.43,96.15,1.71,-3.26,100.72,-1.56,-2.56,99.28,0.77,-1.82,103.75,0.31,-3.24,99.36,1.74,-3.04,108.4,-0.48,-3.33,98.45,0.0488,0.3952,0.4202,-0.0446,0.408,0.4032,0.022,0.4214,0.4559,0.0088,0.3956,0.4042,0.0497,0.3993,0.5106,-0.0136,0.3941,0.3936,0.0,0.006,0.071,0.013,0.006,0.149,0.026,0.013,0.136,0.0,0.0,0.039,0.006,0.013,0.104,0.0,0.006,0.065,0.0337,-0.3651,0.5768,-0.046,-0.3451,0.4142,-0.0245,-0.4019,0.3037,-0.0123,-0.3835,0.4004,0.0276,-0.4065,0.4157,-0.0199,-0.3513,0.3237,-0.0114,-0.0437,0.097,-0.0118,-0.045,0.0796,-0.0074,-0.0304,0.0709,-0.0001,-0.0432,0.0983,-0.0133,-0.0452,0.0225,0.0006,-0.0519,0.0874,-0.0634,-0.1656,-0.0554,0.0731,-0.0046,0.052,0.4002,0.4188,-0.0488,0.4109,0.3945,0.0239,0.421,0.4503,0.0102,0.4009,0.3958,0.0515,0.3976,0.503,-0.0103,0.3994,0.3882,0.0,0.0,-0.432,0.0,0.0,0.0,0.0,0.0,0.0,
3.44,run,7.36,3.18,4.02,-0.42,0.2,-22.0,0.0,0.0,0.189,1.76,-3.52,99.32,-1.14,-3.08,97.38,1.67,-2.46,101.34,0.35,-3.16,98.26,1.76,-3.87,107.05,-0.44,-3.6,96.5,1.7,-3.38,101.36,-1.76,-2.64,99.6,0.65,-2.01,103.97,0.3,-3.31,99.84,1.61,-3.4,108.46,-0.49,-3.56,98.78,0.0485,0.393,0.4278,-0.0502,0.4066,0.407,0.0185,0.418,0.4585,0.0085,0.3945,0.4099,0.0461,0.3928,0.5113,-0.0139,0.3898,0.3974,0.0,0.006,0.071,0.013,0.006,0.149,0.026,0.013,0.136,0.0,0.0,0.039,0.006,0.013,0.104,0.0,0.006,0.065,0.0337,-0.3712,0.5875,-0.046,-0.3467,0.4264,-0.0245,-0.4034,0.3083,-0.0123,-0.3881,0.4111,0.0261,-0.4111,0.4249,-0.0199,-0.3574,0.3283,-0.008,-0.0532,0.1074,-0.0082,-0.0371,0.1009,-0.0052,-0.027,0.0665,-0.0001,-0.0472,0.1083,-0.015,-0.0486,0.0496,0.0004,-0.0589,0.0781,-0.0792,-0.1705,-0.0815,-0.0098,-0.0095,0.0488,0.3952,0.4202,-0.0446,0.408,0.4032,0.022,0.4214,0.4559,0.0088,0.3956,0.4042,0.0497,0.3993,0.5106,-0.0136,0.3941,0.3936,0.0,0.0,-0.4392,0.0,0.0,0.0,0.0,0.0,0.0,
3.48,run,7.2,3.09,-5.14,-2.19,-2.03,-22.3,0.0,0.0,0.189,1.76,-3.69,99.58,-1.23,-3.16,97.91,1.49,-2.72,101.69,0.35,-3.52,98.79,1.67,-3.96,107.4,-0.44,-3.87,96.86,1.7,-3.76,101.56,-1.82,-3.0,99.73,0.78,-2.42,104.15,0.46,-3.58,99.72,1.69,-3.79,108.29,-0.39,-3.7,99.02,0.0485,0.3862,0.4301,-0.0519,0.4,0.4086,0.0224,0.4105,0.4606,0.013,0.3895,0.4084,0.0482,0.3855,0.5093,-0.0113,0.3873,0.4002,0.0,0.0,0.052,0.006,0.006,0.13,0.013,0.013,0.111,0.0,0.0,0.033,0.006,0.006,0.033,0.0,0.006,0.065,0.0337,-0.3743,0.5952,-0.0476,-0.3513,0.4326,-0.0245,-0.4096,0.3129,-0.0123,-0.3896,0.4172,0.0261,-0.4157,0.4249,-0.0199,-0.3605,0.3344,-0.0056,-0.0486,0.1037,-0.0115,-0.0431,0.0934,-0.0036,-0.0417,0.0637,-0.0,-0.0387,0.0986,-0.0105,-0.0511,0.0347,0.0003,-0.0526,0.0775,-0.0671,-0.1729,0.0702,-0.0073,0.0035,0.0485,0.393,0.4278,-0.0502,0.4066,0.407,0.0185,0.418,0.4585,0.0085,0.3945,0.4099,0.0461,0.3928,0.5113,-0.0139,0.3898,0.3974,0.0,0.0,-0.4464,0.0,0.0,0.0,0.0,0.0,0.0,
3.52,run,7.15,3.37,0.02,7.77,-2.09,-22.7,0.0,0.0,0.189,1.76,-4.04,100.02,-1.41,-3.25,98.26,1.41,-2.72,101.95,0.35,-3.52,99.23,1.58,-4.22,107.49,-0.44,-4.04,97.29,1.6,-3.79,102.37,-1.84,-2.98,100.39,0.56,-2.32,104.59,0.33,-3.59,100.76,1.49,-3.87,108.83,-0.4,-4.02,99.47,0.0458,0.3856,0.4397,-0.0526,0.4004,0.4164,0.016,0.4124,0.4658,0.0095,0.3892,0.4207,0.0425,0.3842,0.5156,-0.0115,0.3814,0.4055,0.0,0.0,0.052,0.006,0.006,0.13,0.013,0.013,0.111,0.0,0.0,0.033,0.006,0.006,0.033,0.0,0.006,0.065,0.0337,-0.3774,0.5998,-0.0491,-0.3528,0.4418,-0.0276,-0.4142,0.3191,-0.0123,-0.3958,0.4264,0.0245,-0.4172,0.431,-0.0199,-0.3651,0.3405,-0.0039,-0.0456,0.09,-0.0138,-0.036,0.1002,-0.0141,-0.0466,0.0678,-0.0,-0.0503,0.1038,-0.0131,-0.0416,0.0475,0.0002,-0.0542,0.0774,-0.0813,-0.1806,-0.0898,-0.0383,-0.0354,0.0485,0.3862,0.4301,-0.0519,0.4,0.4086,0.0224,0.4105,0.4606,0.013,0.3895,0.4084,0.0482,0.3855,0.5093,-0.0113,0.3873,0.4002,0.0,0.0,-0.4536,0.0,0.0,0.0,0.0,0.0,0.0,
3.56,run,7.06,3.3,-2.32,-1.55,1.11,-23.0,0.0,0.0,0.189,1.67,-4.22,100.37,-1.41,-3.52,98.26,1.41,-2.81,102.3,0.35,-3.52,99.32,1.58,-4.66,107.58,-0.44,-4.31,97.56,1.52,-4.31,102.14,-1.81,-3.36,100.9,0.7,-2.65,104.77,0.47,-4.07,100.87,1.59,-4.01,108.84,-0.51,-4.22,99.77,0.0434,0.3761,0.437,-0.0518,0.3935,0.4223,0.02,0.4064,0.4679,0.0135,0.3806,0.4219,0.0453,0.3816,0.5158,-0.0146,0.3778,0.409,0.0,0.0,0.052,0.006,0.006,0.13,0.013,0.013,0.111,0.0,0.0,0.033,0.006,0.006,0.033,0.0,0.006,0.065,0.0337,-0.3835,0.6075,-0.0522,-0.3543,0.4479,-0.0291,-0.4142,0.3237,-0.0123,-0.3958,0.4341,0.023,-0.4218,0.4326,-0.0199,-0.3682,0.3482,-0.0027,-0.0549,0.0917,-0.0212,-0.0309,0.0931,-0.0156,-0.0326,0.0647,-0.0,-0.0352,0.1014,-0.0149,-0.0463,0.039,0.0001,-0.0495,0.0829,-0.0861,-0.1558,0.0004,0.1356,-0.0365,0.0458,0.3856,0.4397,-0.0526,0.4004,0.4164,0.016,0.4124,0.4658,0.0095,0.3892,0.4207,0.0425,0.3842,0.5156,-0.0115,0.3814,0.4055,0.0,0.0,-0.4608,0.0,0.0,0.0,0.0,0.0,0.0,
3.6,run,6.99,3.16,-1.85,-4.65,0.82,-23.4,0.0,0.0,0.189,1.58,-4.39,100.72,-1.41,-3.69,98.96,1.32,-3.16,102.48,0.35,-3.96,99.84,1.58,-4.66,107.67,-0.44,-4.66,97.91,1.57,-4.33,102.95,-1.93,-3.4,101.35,0.45,-2.77,105.22,0.38,-4.16,101.6,1.39,-4.32,109.12,-0.53,-4.45,100.12,0.0447,0.3758,0.4464,-0.0551,0.3928,0.4276,0.0128,0.4042,0.4732,0.0108,0.3789,0.4306,0.0397,0.3759,0.519,-0.0152,0.3736,0.4131,0.0,0.006,0.065,0.013,0.0,0.117,0.026,0.026,0.143,0.0,0.0,0.039,0.006,0.013,0.065,0.0,0.006,0.065,0.0322,-0.3866,0.6136,-0.0522,-0.359,0.4479,-0.0291,-0.4157,0.3298,-0.0123,-0.3958,0.4357,0.023,-0.4295,0.4341,-0.0199,-0.3728,0.3528,-0.0076,-0.0499,0.0871,-0.0148,-0.0388,0.0652,-0.0109,-0.0285,0.0682,-0.0,-0.0247,0.0767,-0.0105,-0.0611,0.033,0.0001,-0.0518,0.0752,-0.0936,-0.1619,-0.0405,-0.027,0.0194,0.0434,0.3761,0.437,-0.0518,0.3935,0.4223,0.02,0.4064,0.4679,0.0135,0.3806,0.4219,0.0453,0.3816,0.5158,-0.0146,0.3778,0.409,0.0,0.0,-0.468,0.0,0.0,0.0,0.0,0.0,0.0,
3.64,run,6.97,3.24,-0.13,1.5,-1.04,-23.8,0.0,0.0,0.189,1.58,-4.66,101.07,-1.41,-3.87,99.67,1.32,-3.43,102.83,0.35,-4.13,100.46,1.49,-4.92,108.11,-0.44,-4.75,98.26,1.53,-4.52,103.41,-2.02,-3.57,101.52,0.4,-2.99,105.31,0.38,-4.26,101.83,1.3,-4.67,109.11,-0.49,-4.68,100.37,0.0437,0.3723,0.4518,-0.0578,0.3896,0.4297,0.0115,0.4002,0.4743,0.011,0.3771,0.4333,0.0373,0.3695,0.5189,-0.014,0.3694,0.4161,0.0,0.006,0.065,0.013,0.0,0.117,0.026,0.026,0.143,0.0,0.0,0.039,0.006,0.013,0.065,0.0,0.006,0.065,0.0307,-0.3896,0.6197,-0.0522,-0.362,0.4602,-0.0307,-0.4218,0.3329,-0.0123,-0.4034,0.4449,0.023,-0.4295,0.4357,-0.0199,-0.3789,0.359,-0.0111,-0.0464,0.084,-0.0104,-0.0387,0.0917,-0.0134,-0.043,0.0592,-0.0,-0.046,0.0882,-0.0073,-0.0428,0.0289,0.0001,-0.0593,0.0757,-0.0993,-0.1743,-0.0322,-0.0812,0.0143,0.0447,0.3758,0.4464,-0.0551,0.3928,0.4276,0.0128,0.4042,0.4732,0.0108,0.3789,0.4306,0.0397,0.3759,0.519,-0.0152,0.3736,0.4131,0.0,0.0,-0.4752,0.0,0.0,0.0,0.0,0.0,0.0,
3.68,run,6.99,3.33,0.51,2.93,-1.4,-24.1,0.0,0.0,0.189,1.49,-4.75,101.51,-1.49,-4.04,100.02,1.32,-3.43,103.1,0.35,-4.22,100.99,1.32,-5.19,108.28,-0.44,-5.01,98.35,1.44,-4.91,103.55,-1.98,-3.8,101.9,0.51,-3.13,105.56,0.47,-4.51,102.01,1.34,-4.82,109.29,-0.46,-4.91,100.59,0.0411,0.3653,0.4536,-0.0566,0.3854,0.4341,0.0146,0.3976,0.4772,0.0133,0.3725,0.4354,0.0383,0.3669,0.5211,-0.0132,0.3653,0.4187,0.0,0.006,0.065,0.013,0.0,0.117,0.026,0.026,0.143,0.0,0.0,0.039,0.006,0.013,0.065,0.0,0.006,0.065,0.0307,-0.3942,0.6259,-0.0522,-0.3651,0.4725,-0.0307,-0.4264,0.339,-0.0123,-0.4065,0.4556,0.0215,-0.4341,0.4433,-0.0199,-0.3804,0.3651,-0.0078,-0.0498,0.0819,-0.0073,-0.0386,0.1103,-0.0094,-0.0474,0.0646,-0.0,-0.0438,0.1022,-0.0109,-0.0472,0.0491,0.0,-0.0473,0.0761,-0.1015,-0.1675,-0.0023,0.0262,-0.0181,0.0437,0.3723,0.4518,-0.0578,0.3896,0.4297,0.0115,0.4002,0.4743,0.011,0.3771,0.4333,0.0373,0.3695,0.5189,-0.014,0.3694,0.4161,0.0,0.0,-0.4824,0.0,0.0,0.0,0.0,0.0,0.0,
3.72,run,6.89,3.25,-2.24,-1.93,0.95,-24.5,0.0,0.0,0.189,1.49,-5.1,101.95,-1.67,-4.13,100.28,1.32,-3.52,103.36,0.35,-4.57,101.34,1.23,-5.54,108.37,-0.44,-5.27,98.79,1.41,-5.16,103.86,-1.96,-4.0,102.41,0.5,-3.36,105.91,0.47,-4.72,102.41,1.28,-4.99,109.54,-0.48,-5.12,100.97,0.0401,0.3607,0.4572,-0.056,0.3819,0.4401,0.0143,0.3935,0.4813,0.0135,0.3687,0.4401,0.0367,0.3638,0.524,-0.0138,0.3615,0.4232,0.0,0.0,0.052,0.006,0.006,0.13,0.026,0.013,0.169,0.0,0.0,0.026,0.0,0.019,0.071,0.0,0.006,0.078,0.0291,-0.3958,0.6335,-0.0537,-0.3682,0.4786,-0.0307,-0.4264,0.3436,-0.0123,-0.408,0.4648,0.0184,-0.4387,0.4464,-0.0199,-0.385,0.3666,-0.0112,-0.0406,0.086,-0.0108,-0.0385,0.1002,-0.0066,-0.0332,0.0624,-0.0,-0.0364,0.1059,-0.0191,-0.0503,0.0458,0.0,-0.0503,0.059,-0.1,-0.1592,0.0089,0.0511,-0.0245,0.0411,0.3653,0.4536,-0.0566,0.3854,0.4341,0.0146,0.3976,0.4772,0.0133,0.3725,0.4354,0.0383,0.3669,0.5211,-0.0132,0.3653,0.4187,0.0,0.0,-0.4896,0.0,0.0,0.0,0.0,0.0,0.0,
3.76,run,6.94,3.15,0.63,-2.35,-0.06,-24.8,0.0,0.0,0.189,1.41,-5.45,102.39,-1.67,-4.39,100.55,1.32,-4.04,103.54,0.35,-4.66,101.6,1.23,-5.54,108.54,-0.44,-5.36,98.96,1.44,-5.25,104.48,-2.09,-4.09,102.78,0.29,-3.53,106.12,0.42,-4.83,103.0,1.15,-5.24,109.65,-0.51,-5.36,101.24,0.041,0.359,0.4644,-0.0597,0.3802,0.4445,0.0083,0.3904,0.4837,0.012,0.3668,0.447,0.033,0.3592,0.5253,-0.0145,0.3571,0.4263,0.0,0.0,0.052,0.006,0.006,0.13,0.026,0.013,0.169,0.0,0.0,0.026,0.0,0.019,0.071,0.0,0.006,0.078,0.0291,-0.4019,0.6412,-0.0568,-0.3697,0.4832,-0.0307,-0.428,0.3482,-0.0123,-0.4142,0.4709,0.0169,-0.4449,0.4479,-0.0199,-0.3896,0.3743,-0.0078,-0.0514,0.0889,-0.0191,-0.0327,0.0874,-0.0046,-0.029,0.0609,-0.0,-0.0485,0.0971,-0.0191,-0.0582,0.0378,0.0,-0.0525,0.07,-0.1084,-0.1667,-0.0392,-0.0338,0.0166,0.0401,0.3607,0.4572,-0.056,0.3819,0.4401,0.0143,0.3935,0.4813,0.0135,0.3687,0.4401,0.0367,0.3638,0.524,-0.0138,0.3615,0.4232,0.0,0.0,-0.4968,0.0,0.0,0.0,0.0,0.0,0.0,
3.8,run,6.93,3.19,-0.44,0.99,-1.71,-25.2,0.0,0.0,0.189,1.41,-5.54,102.66,-1.67,-4.66,101.07,1.14,-4.13,103.89,0.35,-4.92,101.87,1.23,-5.62,108.54,-0.44,-5.62,99.4,1.38,-5.57,104.74,-2.13,-4.34,102.97,0.36,-3.81,106.33,0.53,-5.05,103.14,1.14,-5.61,109.62,-0.41,-5.59,101.4,0.0393,0.3532,0.4676,-0.061,0.3757,0.4467,0.0101,0.3854,0.4862,0.0151,0.3627,0.4487,0.0325,0.3525,0.5249,-0.0118,0.353,0.4282,0.0,0.0,0.052,0.006,0.006,0.13,0.026,0.013,0.169,0.0,0.0,0.026,0.0,0.019,0.071,0.0,0.006,0.078,0.0276,-0.408,0.6489,-0.0568,-0.3743,0.4878,-0.0307,-0.4372,0.3513,-0.0123,-0.4157,0.4755,0.0169,-0.4449,0.451,-0.0199,-0.3912,0.3774,-0.0113,-0.0591,0.0912,-0.0134,-0.0402,0.0785,-0.0032,-0.055,0.0542,-0.0,-0.0397,0.0854,-0.0134,-0.0407,0.038,0.0,-0.0425,0.0606,-0.1039,-0.1751,0.0111,-0.041,-0.001,0.041,0.359,0.4644,-0.0597,0.3802,0.4445,0.0083,0.3904,0.4837,0.012,0.3668,0.447,0.033,0.3592,0.5253,-0.0145,0.3571,0.4263,0.0,0.0,-0.504,0.0,0.0,0.0,0.0,0.0,0.0,
3.84,run,6.81,3.25,-2.07,2.27,0.41,-25.6,0.0,0.0,0.189,1.41,-5.8,103.1,-1.67,-4.83,101.51,1.05,-4.13,104.06,0.44,-5.01,102.3,1.23,-6.15,108.63,-0.44,-5.89,99.76,1.29,-5.79,105.05,-2.08,-4.49,103.47,0.35,-3.92,106.67,0.52,-5.27,103.61,1.06,-5.71,109.99,-0.44,-5.8,101.78,0.0368,0.3492,0.4712,-0.0594,0.3729,0.4526,0.0101,0.3832,0.4902,0.0148,0.3587,0.4543,0.0303,0.3508,0.5293,-0.0126,0.3491,0.4327,0.0,0.0,0.052,0.006,0.013,0.143,0.019,0.0,0.136,0.0,0.0,0.039,0.006,0.026,0.111,0.0,0.006,0.078,0.0276,-0.4096,0.6535,-0.0568,-0.3789,0.497,-0.0337,-0.4387,0.3574,-0.0123,-0.4203,0.4801,0.0169,-0.4464,0.451,-0.0199,-0.3958,0.385,-0.0079,-0.0471,0.081,-0.0093,-0.0453,0.0893,-0.0137,-0.0442,0.0608,-0.0,-0.045,0.0769,-0.0094,-0.0342,0.0266,0.0,-0.0469,0.071,-0.1045,-0.1714,-0.0077,0.0173,-0.0299,0.0393,0.3532,0.4676,-0.061,0.3757,0.4467,0.0101,0.3854,0.4862,0.0151,0.3627,0.4487,0.0325,0.3525,0.5249,-0.0118,0.353,0.4282,0.0,0.0,-0.5112,0.0,0.0,0.0,0.0,0.0,0.0,
3.88,run,6.76,3.13,-1.37,-3.45,0.41,-25.9,0.0,0.0,0.189,1.41,-6.06,103.54,-1.67,-5.1,101.87,1.05,-4.39,104.33,0.62,-5.36,102.66,1.23,-6.33,108.72,-0.44,-6.06,99.93,1.29,-6.03,105.33,-2.11,-4.64,103.9,0.25,-4.04,106.87,0.52,-5.5,104.0,1.01,-5.84,110.33,-0.53,-6.05,102.02,0.0368,0.3449,0.4745,-0.0602,0.3701,0.4576,0.0071,0.3811,0.4926,0.0148,0.3546,0.4588,0.0289,0.3484,0.5332,-0.0151,0.3445,0.4355,0.0,0.0,0.052,0.006,0.013,0.143,0.019,0.0,0.136,0.0,0.0,0.039,0.006,0.026,0.111,0.0,0.006,0.078,0.0276,-0.4142,0.6611,-0.0568,-0.382,0.5047,-0.0353,-0.4387,0.3605,-0.0107,-0.4218,0.4878,0.0169,-0.4556,0.4525,-0.0199,-0.4004,0.3912,-0.0055,-0.0502,0.0854,-0.0065,-0.0432,0.0912,-0.0153,-0.031,0.0541,0.0057,-0.0372,0.0826,-0.0066,-0.0585,0.0244,0.0,-0.0501,0.0727,-0.1152,-0.1661,-0.0361,0.0396,0.0071,0.0368,0.3492,0.4712,-0.0594,0.3729,0.4526,0.0101,0.3832,0.4902,0.0148,0.3587,0.4543,0.0303,0.3508,0.5293,-0.0126,0.3491,0.4327,0.0,0.0,-0.5184,0.0,0.0,0.0,0.0,0.0,0.0,
3.92,run,6.74,3.15,-1.15,0.38,-1.46,-26.3,0.0,0.0,0.189,1.41,-6.33,103.8,-1.76,-5.1,102.22,1.05,-4.66,104.59,0.62,-5.54,103.1,1.14,-6.33,109.16,-0.44,-6.33,100.28,1.28,-6.18,105.88,-2.24,-4.75,104.09,0.16,-4.3,107.03,0.53,-5.61,104.33,0.89,-6.23,110.3,-0.48,-6.27,102.27,0.0365,0.3421,0.4809,-0.0639,0.3682,0.4599,0.0047,0.3764,0.4945,0.015,0.3525,0.4627,0.0254,0.3413,0.533,-0.0137,0.3406,0.4385,0.0,0.0,0.052,0.006,0.013,0.143,0.019,0.0,0.136,0.0,0.0,0.039,0.006,0.026,0.111,0.0,0.006,0.078,0.0276,-0.4188,0.6688,-0.0568,-0.3866,0.5108,-0.0353,-0.4433,0.3651,-0.0077,-0.428,0.4939,0.0169,-0.4587,0.4541,-0.0199,-0.4034,0.3942,-0.0039,-0.0525,0.0887,-0.0046,-0.0476,0.087,-0.0107,-0.039,0.0552,0.0156,-0.0492,0.0809,-0.0046,-0.0525,0.0229,0.0,-0.0466,0.0625,-0.1201,-0.1769,-0.024,-0.0601,0.0072,0.0368,0.3449,0.4745,-0.0602,0.3701,0.4576,0.0071,0.3811,0.4926,0.0148,0.3546,0.4588,0.0289,0.3484,0.5332,-0.0151,0.3445,0.4355,0.0,0.0,-0.5256,0.0,0.0,0.0,0.0,0.0,0.0,
3.96,run,6.71,3.09,-0.35,-1.48,0.1,-26.6,0.0,0.0,0.24,1.41,-6.33,104.15,-1.85,-5.19,102.48,1.05,-4.83,104.85,0.62,-5.71,103.54,0.97,-6.59,109.25,-0.44,-6.59,100.55,1.17,-6.53,106.08,-2.19,-5.01,104.49,0.24,-4.51,107.24,0.58,-5.86,104.58,0.9,-6.42,110.33,-0.46,-6.48,102.47,0.0336,0.3358,0.4833,-0.0627,0.3635,0.4646,0.0068,0.3725,0.497,0.0167,0.3481,0.4656,0.0257,0.3379,0.5333,-0.0131,0.3368,0.4408,0.0,0.0,0.052,0.006,0.0,0.24,0.013,0.013,0.13,0.0,0.0,0.039,0.0,0.033,0.058,0.0,0.0,0.058,0.0276,-0.4234,0.6734,-0.0583,-0.3866,0.517,-0.0353,-0.4479,0.3697,-0.0077,-0.431,0.5016,0.0153,-0.4587,0.4617,-0.0199,-0.408,0.4004,-0.0027,-0.0539,0.0793,-0.0089,-0.0333,0.0838,-0.0075,-0.0445,0.0558,0.0109,-0.0459,0.0853,-0.0089,-0.0367,0.0446,0.0,-0.0498,0.0666,-0.1213,-0.1753,-0.0201,0.0066,-0.0255,0.0365,0.3421,0.4809,-0.0639,0.3682,0.4599,0.0047,0.3764,0.4945,0.015,0.3525,0.4627,0.0254,0.3413,0.533,-0.0137,0.3406,0.4385,0.0,0.0,-0.5328,0.0,0.0,0.0,0.0,0.0,0.0,
4.0,run,6.64,2.99,-1.78,-2.19,0.14,-27.0,0.0,0.0,0.24,1.14,-6.77,104.59,-1.85,-5.45,102.57,0.97,-5.1,105.03,0.62,-5.89,103.8,0.97,-7.12,109.34,-0.44,-6.86,100.81,1.19,-6.78,106.47,-2.24,-5.22,104.79,0.17,-4.73,107.4,0.59,-6.02,104.85,0.86,-6.67,110.43,-0.45,-6.72,102.67,0.0339,0.3314,0.4879,-0.064,0.3596,0.4681,0.0049,0.3685,0.4988,0.0168,0.345,0.4688,0.0246,0.3334,0.5344,-0.0129,0.3324,0.4432,0.0,0.0,0.052,0.006,0.0,0.24,0.013,0.013,0.13,0.0,0.0,0.039,0.0,0.033,0.058,0.0,0.0,0.058,0.0276,-0.4234,0.6796,-0.0598,-0.3881,0.5216,-0.0353,-0.451,0.3743,-0.0077,-0.4341,0.5093,0.0123,-0.4633,0.4633,-0.0199,-0.4126,0.405,-0.0019,-0.0378,0.0784,-0.012,-0.0291,0.0758,-0.0053,-0.0426,0.0562,0.0076,-0.0436,0.0883,-0.0177,-0.0429,0.037,0.0,-0.052,0.0638,-0.1244,-0.1804,-0.0061,-0.0259,0.0018,0.0336,0.3358,0.4833,-0.0627,0.3635,0.4646,0.0068,0.3725,0.497,0.0167,0.3481,0.4656,0.0257,0.3379,0.5333,-0.0131,0.3368,0.4408,0.0,0.0,-0.54,0.0,0.0,0.0,0.0,0.0,0.0,
4.04,run,6.53,3.04,-2.11,1.5,-1.3,-27.4,0.0,0.0,0.24,1.14,-6.94,104.94,-1.85,-5.71,103.1,0.97,-5.19,105.21,0.62,-6.15,104.06,0.97,-7.21,109.42,-0.44,-6.94,100.9,1.11,-7.03,106.81,-2.25,-5.34,105.2,0.09,-4.87,107.63,0.61,-6.23,105.35,0.76,-6.85,110.62,-0.45,-6.97,102.93,0.0319,0.3268,0.4918,-0.0643,0.3574,0.473,0.0025,0.366,0.5015,0.0175,0.3412,0.4747,0.0216,0.3301,0.5367,-0.0127,0.3278,0.4462,0.0,0.0,0.052,0.006,0.0,0.24,0.013,0.013,0.13,0.0,0.0,0.039,0.0,0.033,0.058,0.0,0.0,0.058,0.023,-0.431,0.6872,-0.0598,-0.3927,0.5231,-0.0368,-0.4556,0.3774,-0.0077,-0.4372,0.5139,0.0123,-0.4725,0.4648,-0.0199,-0.4172,0.4096,-0.0189,-0.0558,0.0842,-0.0084,-0.038,0.059,-0.0096,-0.0474,0.0511,0.0053,-0.0422,0.0794,-0.0124,-0.0653,0.0317,0.0,-0.054,0.0623,-0.1302,-0.1892,-0.031,-0.0382,0.0024,0.0339,0.3314,0.4879,-0.064,0.3596,0.4681,0.0049,0.3685,0.4988,0.0168,0.345,0.4688,0.0246,0.3334,0.5344,-0.0129,0.3324,0.4432,0.0,0.0,-0.5472,0.0,0.0,0.0,0.0,0.0,0.0,
4.08,run,6.54,3.19,0.25,4.27,0.23,-27.7,0.0,0.0,0.24,1.14,-7.21,105.29,-1.85,-5.89,103.62,0.97,-5.19,105.47,0.62,-6.33,104.24,0.88,-7.47,109.69,-0.44,-7.29,101.25,1.03,-7.3,106.99,-2.21,-5.51,105.63,0.1,-5.02,107.86,0.62,-6.5,105.7,0.69,-7.05,110.86,-0.48,-7.24,103.26,0.0294,0.3217,0.494,-0.0633,0.3544,0.478,0.003,0.3632,0.5043,0.0177,0.3363,0.4789,0.0196,0.3263,0.5395,-0.0139,0.3228,0.4501,0.0,0.0,0.045,0.006,0.013,0.123,0.019,0.006,0.123,0.0,0.0,0.052,0.0,0.013,0.071,0.0,0.006,0.065,0.023,-0.4341,0.6934,-0.0598,-0.3973,0.5323,-0.0368,-0.4571,0.3804,-0.0077,-0.4418,0.5185,0.0123,-0.474,0.4663,-0.0199,-0.4188,0.4111,-0.0133,-0.0504,0.0816,-0.0059,-0.0435,0.0752,-0.0067,-0.0389,0.0471,0.0037,-0.0465,0.0726,-0.0087,-0.0513,0.0279,0.0,-0.0435,0.0493,-0.1397,-0.1847,-0.0369,0.0262,-0.0227,0.0319,0.3268,0.4918,-0.0643,0.3574,0.473,0.0025,0.366,0.5015,0.0175,0.3412,0.4747,0.0216,0.3301,0.5367,-0.0127,0.3278,0.4462,0.0,0.0,-0.5544,0.0,0.0,0.0,0.0,0.0,0.0,
4.12,run,6.56,3.18,1.44,0.58,-1.18,-28.1,0.0,0.0,0.24,1.14,-7.47,105.64,-1.85,-6.15,104.06,0.79,-5.62,105.73,0.62,-6.5,104.85,0.79,-7.47,109.69,-0.44,-7.47,101.51,1.01,-7.58,107.09,-2.19,-5.78,106.01,0.14,-5.27,108.08,0.63,-6.79,105.89,0.7,-7.22,110.99,-0.54,-7.41,103.47,0.029,0.3167,0.4951,-0.0626,0.3494,0.4824,0.004,0.3586,0.5069,0.0179,0.3311,0.4811,0.02,0.3232,0.5411,-0.0155,0.3199,0.4525,0.0,0.0,0.045,0.006,0.013,0.123,0.019,0.006,0.123,0.0,0.0,0.052,0.0,0.013,0.071,0.0,0.006,0.065,0.023,-0.4387,0.6995,-0.0598,-0.4004,0.5415,-0.0368,-0.4571,0.385,-0.0077,-0.4449,0.5216,0.0107,-0.4786,0.4709,-0.0199,-0.4249,0.4172,-0.0093,-0.0526,0.0802,-0.0041,-0.042,0.0872,-0.0047,-0.0272,0.0503,0.0026,-0.0441,0.0623,-0.0118,-0.0532,0.0368,0.0,-0.0535,0.0575,-0.1392,-0.1714,0.0044,0.0745,0.004,0.0294,0.3217,0.494,-0.0633,0.3544,0.478,0.003,0.3632,0.5043,0.0177,0.3363,0.4789,0.0196,0.3263,0.5395,-0.0139,0.3228,0.4501,0.0,0.0,-0.5616,0.0,0.0,0.0,0.0,0.0,0.0,
4.16,run,6.45,3.16,-2.93,-1.54,0.85,-28.4,0.0,0.0,0.24,1.14,-7.82,105.73,-1.85,-6.24,104.33,0.79,-5.89,106.0,0.62,-6.77,105.21,0.7,-7.65,109.78,-0.44,-7.65,101.78,0.98,-7.78,107.6,-2.27,-5.91,106.29,0.12,-5.52,108.31,0.65,-6.94,106.11,0.62,-7.53,111.07,-0.51,-7.58,103.68,0.028,0.313,0.5012,-0.0647,0.3471,0.4858,0.0035,0.3541,0.5095,0.0185,0.3283,0.4837,0.0178,0.3177,0.542,-0.0145,0.3168,0.4551,0.0,0.0,0.045,0.006,0.013,0.123,0.019,0.006,0.123,0.0,0.0,0.052,0.0,0.013,0.071,0.0,0.006,0.065,0.023,-0.4433,0.7056,-0.0598,-0.405,0.5492,-0.0399,-0.4648,0.3896,-0.0077,-0.4479,0.5323,0.0092,-0.4786,0.4709,-0.0199,-0.428,0.4218,-0.0065,-0.0541,0.0792,-0.0029,-0.0467,0.0899,-0.0148,-0.0479,0.0525,0.0018,-0.0424,0.084,-0.0141,-0.0373,0.0258,0.0,-0.049,0.0576,-0.1368,-0.1724,0.0251,0.0102,-0.0206,0.029,0.3167,0.4951,-0.0626,0.3494,0.4824,0.004,0.3586,0.5069,0.0179,0.3311,0.4811,0.02,0.3232,0.5411,-0.0155,0.3199,0.4525,0.0,0.0,-0.5688,0.0,0.0,0.0,0.0,0.0,0.0,
4.2,run,6.34,3.39,-3.63,5.66,-1.49,-28.8,0.0,0.0,0.24,1.05,-8.0,106.08,-1.85,-6.24,104.59,0.79,-5.89,106.26,0.62,-6.94,105.38,0.7,-8.09,110.3,-0.44,-7.91,102.13,0.97,-7.95,107.98,-2.26,-6.03,106.6,-0.03,-5.65,108.46,0.58,-7.12,106.51,0.52,-7.73,111.22,-0.55,-7.86,103.9,0.0276,0.31,0.5056,-0.0646,0.3449,0.4894,-0.001,0.3518,0.5113,0.0167,0.325,0.4884,0.0149,0.314,0.5438,-0.0158,0.3116,0.4577,0.0,0.006,0.045,0.006,0.0,0.214,0.019,0.006,0.084,0.0,0.0,0.065,0.006,0.019,0.026,0.0,0.006,0.065,0.023,-0.4495,0.7072,-0.0598,-0.4065,0.5538,-0.0399,-0.4694,0.3942,-0.0077,-0.4525,0.5384,0.0077,-0.4817,0.4725,-0.0199,-0.431,0.4264,-0.0045,-0.0607,0.0612,-0.002,-0.0384,0.0801,-0.0104,-0.0507,0.0539,0.0013,-0.0468,0.0817,-0.0156,-0.0375,0.0238,0.0,-0.0457,0.0575,-0.1471,-0.174,-0.0512,-0.0268,0.0148,0.028,0.313,0.5012,-0.0647,0.3471,0.4858,0.0035,0.3541,0.5095,0.0185,0.3283,0.4837,0.0178,0.3177,0.542,-0.0145,0.3168,0.4551,0.0,0.0,-0.576,0.0,0.0,0.0,0.0,0.0,0.0,
4.24,run,6.34,3.21,0.46,-5.25,0.96,-29.2,0.0,0.0,0.24,0.97,-8.17,106.44,-1.85,-6.42,104.94,0.7,-6.15,106.52,0.62,-7.21,105.64,0.53,-8.35,110.39,-0.44,-8.0,102.3,0.84,-8.31,108.03,-2.17,-6.25,107.22,0.01,-5.8,108.78,0.59,-7.48,106.88,0.49,-7.82,111.49,-0.69,-8.06,104.23,0.0241,0.3035,0.5063,-0.0619,0.3408,0.4967,0.0004,0.349,0.5151,0.0169,0.3186,0.4927,0.0141,0.3124,0.547,-0.0197,0.3079,0.4615,0.0,0.006,0.045,0.006,0.0,0.214,0.019,0.006,0.084,0.0,0.0,0.065,0.006,0.019,0.026,0.0,0.006,0.065,0.0215,-0.4525,0.7133,-0.0598,-0.4065,0.5584,-0.0399,-0.4694,0.3988,-0.0077,-0.4556,0.5415,0.0077,-0.4893,0.4817,-0.0199,-0.4357,0.4326,-0.0089,-0.054,0.0659,-0.0014,-0.0269,0.0733,-0.0073,-0.0355,0.055,0.0009,-0.0443,0.0687,-0.0109,-0.0551,0.0512,0.0,-0.0493,0.0633,-0.1568,-0.1544,-0.0634,0.0988,-0.0259,0.0276,0.31,0.5056,-0.0646,0.3449,0.4894,-0.001,0.3518,0.5113,0.0167,0.325,0.4884,0.0149,0.314,0.5438,-0.0158,0.3116,0.4577,0.0,0.0,-0.5832,0.0,0.0,0.0,0.0,0.0,0.0,
4.28,run,6.39,3.31,1.75,2.45,0.5,-29.5,0.0,0.0,0.24,0.97,-8.35,106.79,-1.85,-6.77,105.29,0.7,-6.33,106.61,0.62,-7.38,106.08,0.53,-8.35,110.48,-0.53,-8.44,102.39,0.91,-8.45,108.68,-2.43,-6.44,107.26,-0.09,-6.14,108.79,0.6,-7.6,107.11,0.4,-8.27,111.29,-0.59,-8.26,104.34,0.0261,0.3009,0.5139,-0.0694,0.3374,0.4971,-0.0026,0.3429,0.5152,0.017,0.3164,0.4954,0.0115,0.3043,0.5445,-0.0167,0.3044,0.4628,0.0,0.006,0.045,0.006,0.0,0.214,0.019,0.006,0.084,0.0,0.0,0.065,0.006,0.019,0.026,0.0,0.006,0.065,0.0199,-0.4556,0.7194,-0.0598,-0.4096,0.5645,-0.0414,-0.474,0.4034,-0.0077,-0.4602,0.5461,0.0046,-0.4939,0.4832,-0.0199,-0.4372,0.4357,-0.012,-0.0493,0.069,-0.001,-0.0303,0.0743,-0.0108,-0.042,0.0557,0.0006,-0.0482,0.0653,-0.0191,-0.0557,0.0416,0.0,-0.0402,0.0558,-0.1562,-0.1703,0.008,-0.0916,0.0167,0.0241,0.3035,0.5063,-0.0619,0.3408,0.4967,0.0004,0.349,0.5151,0.0169,0.3186,0.4927,0.0141,0.3124,0.547,-0.0197,0.3079,0.4615,0.0,0.0,-0.5904,0.0,0.0,0.0,0.0,0.0,0.0,
4.32,run,6.38,3.3,-0.31,0.03,-1.55,-29.9,0.0,0.0,0.24,0.97,-8.7,107.14,-1.93,-6.94,105.73,0.7,-6.5,106.79,0.62,-7.56,106.35,0.53,-8.44,110.74,-0.53,-8.61,102.74,0.82,-8.85,108.55,-2.2,-6.72,107.74,0.03,-6.35,109.05,0.63,-7.9,107.2,0.45,-8.37,111.62,-0.64,-8.47,104.64,0.0234,0.2937,0.5124,-0.063,0.3323,0.5028,0.001,0.3391,0.5183,0.0179,0.3109,0.4964,0.0127,0.3024,0.5485,-0.0182,0.3005,0.4664,0.006,0.0,0.039,0.0,0.013,0.117,0.019,0.013,0.123,0.0,0.006,0.026,0.0,0.006,0.033,0.0,0.006,0.071,0.0199,-0.4587,0.7256,-0.0598,-0.4157,0.5706,-0.0414,-0.4771,0.405,-0.0077,-0.4633,0.5538,0.0046,-0.4939,0.4847,-0.0215,-0.4449,0.4372,-0.0084,-0.0461,0.0714,-0.0007,-0.0443,0.0751,-0.0076,-0.041,0.0448,0.0004,-0.0453,0.0746,-0.0134,-0.039,0.0349,-0.0058,-0.057,0.0448,-0.1523,-0.1615,0.0305,0.0428,0.0087,0.0261,0.3009,0.5139,-0.0694,0.3374,0.4971,-0.0026,0.3429,0.5152,0.017,0.3164,0.4954,0.0115,0.3043,0.5445,-0.0167,0.3044,0.4628,0.0,0.0,-0.5976,0.0,0.0,0.0,0.0,0.0,0.0,
4.36,run,6.25,3.23,-3.49,-1.22,-0.09,-30.2,0.0,0.0,0.24,0.88,-8.88,107.4,-2.02,-7.29,106.08,0.7,-6.94,107.05,0.62,-7.91,106.61,0.53,-8.96,110.74,-0.53,-8.61,102.83,0.77,-8.98,109.0,-2.26,-6.82,108.03,-0.04,-6.59,109.25,0.62,-8.1,107.56,0.32,-8.61,111.64,-0.63,-8.68,104.8,0.0219,0.2912,0.5176,-0.0647,0.3306,0.5062,-0.0011,0.3348,0.5206,0.0177,0.3073,0.5008,0.0092,0.2979,0.5487,-0.0179,0.2968,0.4682,0.006,0.0,0.039,0.0,0.013,0.117,0.019,0.013,0.123,0.0,0.006,0.026,0.0,0.006,0.033,0.0,0.006,0.071,0.0199,-0.4648,0.7317,-0.0614,-0.4188,0.5783,-0.0414,-0.4801,0.408,-0.0077,-0.4663,0.5584,0.0046,-0.4955,0.4893,-0.0215,-0.4479,0.4433,-0.0059,-0.0552,0.0729,-0.0062,-0.0425,0.0812,-0.0053,-0.0402,0.0428,0.0003,-0.0432,0.0694,-0.0094,-0.0331,0.0416,-0.004,-0.0514,0.0543,-0.1526,-0.1621,-0.0055,0.0006,-0.027,0.0234,0.2937,0.5124,-0.063,0.3323,0.5028,0.001,0.3391,0.5183,0.0179,0.3109,0.4964,0.0127,0.3024,0.5485,-0.0182,0.3005,0.4664,0.0,0.0,-0.6048,0.0,0.0,0.0,0.0,0.0,0.0,
4.4,run,6.26,3.28,0.47,1.76,-1.3,-30.6,0.0,0.0,0.24,0.79,-9.23,107.49,-2.02,-7.29,106.44,0.7,-6.94,107.23,0.62,-8.0,106.7,0.53,-9.14,110.74,-0.53,-9.05,103.1,0.75,-9.2,109.28,-2.25,-6.93,108.24,-0.2,-6.72,109.35,0.58,-8.3,107.9,0.21,-8.86,111.8,-0.66,-9.03,105.01,0.0214,0.2873,0.5209,-0.0643,0.3286,0.5087,-0.0057,0.3325,0.5217,0.0167,0.3037,0.5047,0.006,0.2935,0.5505,-0.0188,0.2904,0.4707,0.006,0.0,0.039,0.0,0.013,0.117,0.019,0.013,0.123,0.0,0.006,0.026,0.0,0.006,0.033,0.0,0.006,0.071,0.0184,-0.4679,0.7363,-0.0629,-0.4249,0.5844,-0.0414,-0.4878,0.4126,-0.0077,-0.4725,0.563,0.0046,-0.5047,0.4893,-0.0215,-0.4479,0.4449,-0.0099,-0.0502,0.0684,-0.0101,-0.0529,0.08,-0.0037,-0.0571,0.0474,0.0002,-0.0534,0.066,-0.0065,-0.0579,0.0291,-0.0028,-0.036,0.0438,-0.1639,-0.1678,-0.0609,-0.0212,-0.0016,0.0219,0.2912,0.5176,-0.0647,0.3306,0.5062,-0.0011,0.3348,0.5206,0.0177,0.3073,0.5008,0.0092,0.2979,0.5487,-0.0179,0.2968,0.4682,0.0,0.0,-0.612,0.0,0.0,0.0,0.0,0.0,0.0,
4.44,run,6.27,3.24,0.12,-1.39,0.95,-31.0,0.0,0.0,0.24,0.79,-9.4,107.93,-2.02,-7.29,106.61,0.7,-7.29,107.31,0.62,-8.26,107.14,0.18,-9.14,110.74,-0.53,-9.32,103.36,0.64,-9.56,109.44,-2.21,-7.23,108.66,-0.08,-6.99,109.55,0.65,-8.62,108.1,0.2,-9.06,111.86,-0.65,-9.2,105.27,0.0184,0.2807,0.5228,-0.0631,0.3232,0.5136,-0.0023,0.3274,0.5242,0.0187,0.2978,0.5071,0.0058,0.2898,0.5513,-0.0186,0.2873,0.4738,0.0,0.0,0.033,0.0,0.006,0.163,0.019,0.013,0.123,0.0,0.0,0.039,0.0,0.006,0.071,0.0,0.006,0.071,0.0169,-0.474,0.7378,-0.0629,-0.4249,0.5906,-0.0414,-0.4878,0.4157,-0.0077,-0.474,0.5645,0.0046,-0.5077,0.4893,-0.0215,-0.4556,0.4495,-0.0127,-0.0581,0.0536,-0.0071,-0.037,0.0789,-0.0026,-0.04,0.0446,0.0002,-0.0431,0.0519,-0.0046,-0.052,0.0204,-0.002,-0.0538,0.0478,-0.1636,-0.1636,0.0081,0.0307,-0.0227,0.0214,0.2873,0.5209,-0.0643,0.3286,0.5087,-0.0057,0.3325,0.5217,0.0167,0.3037,0.5047,0.006,0.2935,0.5505,-0.0188,0.2904,0.4707,0.0,0.0,-0.6192,0.0,0.0,0.0,0.0,0.0,0.0,
4.48,run,6.26,3.26,-0.55,0.8,-0.36,-31.3,0.0,0.0,0.24,0.7,-9.76,108.11,-2.02,-7.65,106.7,0.7,-7.29,107.4,0.62,-8.61,107.4,0.26,-9.67,111.09,-0.53,-9.49,103.54,0.69,-9.75,109.75,-2.26,-7.47,108.85,-0.15,-7.25,109.62,0.63,-8.81,108.29,0.19,-9.32,111.89,-0.64,-9.44,105.37,0.0198,0.2772,0.5265,-0.0647,0.3187,0.5158,-0.0043,0.3227,0.525,0.018,0.2944,0.5092,0.0054,0.2851,0.5516,-0.0183,0.2829,0.4749,0.0,0.0,0.033,0.0,0.006,0.163,0.019,0.013,0.123,0.0,0.0,0.039,0.0,0.006,0.071,0.0,0.006,0.071,0.0169,-0.4771,0.7455,-0.0629,-0.4249,0.5937,-0.0414,-0.4939,0.4172,-0.0077,-0.4786,0.5722,-0.0015,-0.5077,0.4893,-0.0215,-0.4602,0.4541,-0.0089,-0.0522,0.0663,-0.005,-0.0259,0.0668,-0.0018,-0.051,0.037,0.0001,-0.0474,0.0651,-0.0262,-0.0364,0.0143,-0.0014,-0.0549,0.0508,-0.1624,-0.1675,0.002,-0.0242,0.0166,0.0184,0.2807,0.5228,-0.0631,0.3232,0.5136,-0.0023,0.3274,0.5242,0.0187,0.2978,0.5071,0.0058,0.2898,0.5513,-0.0186,0.2873,0.4738,0.0,0.0,-0.6264,0.0,0.0,0.0,0.0,0.0,0.0,
4.52,run,6.39,3.25,3.99,-0.35,-0.33,-31.7,0.0,0.0,0.24,0.62,-9.93,108.28,-2.02,-8.0,107.23,0.7,-7.73,107.67,0.62,-8.7,107.67,0.26,-9.84,111.09,-0.62,-9.67,103.89,0.6,-10.06,109.89,-2.19,-7.65,109.24,-0.16,-7.47,109.81,0.64,-9.06,108.57,0.11,-9.48,112.01,-0.68,-9.69,105.64,0.0173,0.2716,0.5281,-0.0627,0.3154,0.5205,-0.0046,0.3187,0.5272,0.0184,0.2897,0.5126,0.0032,0.2822,0.553,-0.0195,0.2784,0.4781,0.0,0.0,0.033,0.0,0.006,0.163,0.019,0.013,0.123,0.0,0.0,0.039,0.0,0.006,0.071,0.0,0.006,0.071,0.0153,-0.4832,0.7486,-0.0629,-0.431,0.5952,-0.0414,-0.4939,0.4188,-0.0077,-0.4847,0.5768,0.0,-0.517,0.4955,-0.0215,-0.4633,0.4571,-0.012,-0.0596,0.058,-0.0035,-0.0413,0.0525,-0.0013,-0.0357,0.0317,0.0001,-0.0563,0.0629,-0.0126,-0.0602,0.0331,-0.001,-0.05,0.0471,-0.1633,-0.1657,-0.0096,0.0139,-0.0064,0.0198,0.2772,0.5265,-0.0647,0.3187,0.5158,-0.0043,0.3227,0.525,0.018,0.2944,0.5092,0.0054,0.2851,0.5516,-0.0183,0.2829,0.4749,0.0,0.0,-0.6336,0.0,0.0,0.0,0.0,0.0,0.0,
4.56,run,6.35,3.25,-0.63,0.11,0.55,-32.0,0.0,0.0,0.24,0.62,-10.28,108.63,-2.02,-8.26,107.58,0.7,-8.0,107.84,0.62,-9.14,107.84,0.18,-9.84,111.09,-0.62,-9.93,103.89,0.58,-10.37,110.15,-2.22,-7.93,109.4,-0.09,-7.77,109.92,0.68,-9.31,108.59,0.12,-9.75,112.02,-0.59,-9.88,105.67,0.0166,0.266,0.5312,-0.0634,0.3104,0.5223,-0.0027,0.3133,0.5285,0.0195,0.2854,0.5128,0.0034,0.2772,0.5532,-0.017,0.2749,0.4784,0.0,0.0,0.058,0.0,0.006,0.175,0.019,0.019,0.117,0.0,0.006,0.026,0.0,0.006,0.052,0.0,0.006,0.078,0.0138,-0.4863,0.7517,-0.0629,-0.4372,0.6044,-0.0414,-0.5016,0.4234,-0.0077,-0.4863,0.5814,0.0,-0.52,0.4955,-0.023,-0.4663,0.4633,-0.0141,-0.0532,0.052,-0.0024,-0.0518,0.0711,-0.0009,-0.0536,0.0393,0.0001,-0.0452,0.0612,-0.0088,-0.0536,0.0232,-0.0064,-0.0465,0.0559,-0.1525,-0.1669,0.0697,-0.0061,-0.0057,0.0173,0.2716,0.5281,-0.0627,0.3154,0.5205,-0.0046,0.3187,0.5272,0.0184,0.2897,0.5126,0.0032,0.2822,0.553,-0.0195,0.2784,0.4781,0.0,0.0,-0.6408,0.0,0.0,0.0,0.0,0.0,0.0,
4.6,run,6.28,3.36,-2.08,3.19,-1.16,-32.4,0.0,0.0,0.24,0.62,-10.55,108.81,-2.02,-8.44,107.93,0.7,-8.09,107.84,0.62,-9.23,108.02,0.18,-10.28,111.27,-0.62,-10.02,103.89,0.55,-10.53,110.31,-2.12,-8.05,109.66,-0.18,-7.96,110.07,0.63,-9.51,108.89,0.01,-9.95,112.16,-0.66,-10.16,105.97,0.0159,0.2632,0.5331,-0.0605,0.3081,0.5254,-0.0052,0.3098,0.5303,0.0179,0.2816,0.5163,0.0002,0.2736,0.5548,-0.0189,0.2699,0.482,0.0,0.0,0.058,0.0,0.006,0.175,0.019,0.019,0.117,0.0,0.006,0.026,0.0,0.006,0.052,0.0,0.006,0.078,0.0138,-0.4924,0.7578,-0.0629,-0.4418,0.6105,-0.0414,-0.5062,0.4264,-0.0077,-0.4939,0.5844,-0.0015,-0.52,0.4955,-0.023,-0.4709,0.4633,-0.0099,-0.0602,0.0594,-0.0017,-0.0535,0.0727,-0.0006,-0.0548,0.039,0.0,-0.0603,0.0543,-0.0119,-0.0375,0.0162,-0.0045,-0.0497,0.0391,-0.1554,-0.1664,-0.0109,0.0019,0.0096,0.0166,0.266,0.5312,-0.0634,0.3104,0.5223,-0.0027,0.3133,0.5285,0.0195,0.2854,0.5128,0.0034,0.2772,0.5532,-0.017,0.2749,0.4784,0.0,0.0,-0.648,0.0,0.0,0.0,0.0,0.0,0.0,
4.64,run,6.22,3.29,-2.59,-1.75,0.45,-32.8,0.0,0.0,0.24,0.44,-10.81,109.07,-2.02,-8.7,108.11,0.7,-8.44,108.19,0.62,-9.58,108.02,0.09,-10.55,111.45,-0.62,-10.37,103.97,0.48,-10.8,110.44,-2.05,-8.23,110.04,-0.18,-8.15,110.3,0.64,-9.82,109.15,-0.06,-10.14,112.41,-0.72,-10.43,106.23,0.0138,0.2583,0.5346,-0.0587,0.3049,0.5299,-0.0052,0.3064,0.533,0.0182,0.2761,0.5194,-0.0017,0.2701,0.5577,-0.0205,0.2649,0.4851,0.0,0.0,0.058,0.0,0.006,0.175,0.019,0.019,0.117,0.0,0.006,0.026,0.0,0.006,0.052,0.0,0.006,0.078,0.0138,-0.497,0.7609,-0.0629,-0.4449,0.6167,-0.0414,-0.5077,0.4264,-0.0077,-0.4955,0.5875,-0.0015,-0.5277,0.4985,-0.023,-0.4725,0.4633,-0.0069,-0.0596,0.0532,-0.0012,-0.0491,0.0742,-0.0004,-0.0441,0.0273,0.0,-0.048,0.0497,-0.0083,-0.0553,0.023,-0.0031,-0.0406,0.0274,-0.1617,-0.157,-0.0362,0.0556,-0.0202,0.0159,0.2632,0.5331,-0.0605,0.3081,0.5254,-0.0052,0.3098,0.5303,0.0179,0.2816,0.5163,0.0002,0.2736,0.5548,-0.0189,0.2699,0.482,0.0,0.0,-0.6552,0.0,0.0,0.0,0.0,0.0,0.0,
4.68,run,6.22,3.27,0.3,-0.94,-1.42,-33.1,0.0,0.0,0.24,0.44,-10.9,109.16,-2.02,-8.96,108.46,0.7,-8.53,108.28,0.62,-9.76,108.46,-0.09,-10.55,111.45,-0.62,-10.72,104.41,0.48,-10.99,110.71,-2.1,-8.43,110.19,-0.3,-8.43,110.31,0.6,-10.06,109.4,-0.17,-10.47,112.28,-0.75,-10.68,106.44,0.0136,0.2547,0.5378,-0.0599,0.3012,0.5317,-0.0085,0.3012,0.5331,0.017,0.2717,0.5224,-0.005,0.2642,0.5562,-0.0215,0.2603,0.4875,0.0,0.0,0.065,0.0,0.013,0.182,0.026,0.0,0.117,0.0,0.0,0.033,0.0,0.0,0.052,0.0,0.0,0.084,0.0107,-0.5016,0.7655,-0.0629,-0.4495,0.6197,-0.0414,-0.5139,0.4326,-0.0077,-0.5016,0.5875,-0.0031,-0.5323,0.5016,-0.023,-0.4786,0.4648,-0.0163,-0.0589,0.0544,-0.0008,-0.0515,0.0634,-0.0003,-0.0538,0.042,0.0,-0.0565,0.0348,-0.0116,-0.0559,0.0275,-0.0022,-0.0514,0.0249,-0.1672,-0.1626,-0.0453,-0.0306,0.0078,0.0138,0.2583,0.5346,-0.0587,0.3049,0.5299,-0.0052,0.3064,0.533,0.0182,0.2761,0.5194,-0.0017,0.2701,0.5577,-0.0205,0.2649,0.4851,0.0,0.0,-0.6624,0.0,0.0,0.0,0.0,0.0,0.0,
4.72,run,6.19,3.23,-0.54,-0.84,2.15,-33.5,0.0,0.0,0.24,0.44,-11.25,109.34,-2.02,-9.05,108.63,0.7,-8.96,108.37,0.62,-10.11,108.72,-0.09,-10.99,111.45,-0.79,-10.99,104.77,0.41,-11.33,110.94,-2.08,-8.67,110.56,-0.23,-8.7,110.42,0.61,-10.31,109.54,-0.17,-10.68,112.39,-0.73,-10.9,106.63,0.0116,0.2486,0.5404,-0.0594,0.297,0.536,-0.0065,0.2964,0.5343,0.0173,0.267,0.5241,-0.0048,0.2604,0.5575,-0.0207,0.2563,0.4898,0.0,0.0,0.065,0.0,0.013,0.182,0.026,0.0,0.117,0.0,0.0,0.033,0.0,0.0,0.052,0.0,0.0,0.084,0.0107,-0.5031,0.767,-0.0629,-0.4541,0.6259,-0.0414,-0.5154,0.4341,-0.0077,-0.5047,0.5952,-0.0061,-0.5323,0.5016,-0.023,-0.4847,0.4725,-0.0114,-0.047,0.0439,-0.0006,-0.0533,0.0674,-0.0002,-0.0434,0.0352,0.0,-0.0511,0.0531,-0.0196,-0.0391,0.0193,-0.0015,-0.059,0.0462,-0.1673,-0.1646,0.0052,-0.0164,-0.0249,0.0136,0.2547,0.5378,-0.0599,0.3012,0.5317,-0.0085,0.3012,0.5331,0.017,0.2717,0.5224,-0.005,0.2642,0.5562,-0.0215,0.2603,0.4875,0.0,0.0,-0.6696,0.0,0.0,0.0,0.0,0.0,0.0,
4.76,run,6.27,3.32,2.01,2.37,0.03,-33.8,0.0,0.0,0.24,0.44,-11.43,109.69,-2.02,-9.32,108.72,0.7,-9.14,108.37,0.62,-10.2,108.9,-0.09,-11.25,111.62,-0.79,-11.25,104.94,0.43,-11.59,111.04,-2.06,-8.97,110.7,-0.3,-8.91,110.42,0.59,-10.55,109.66,-0.15,-10.87,112.41,-0.75,-11.22,106.74,0.0122,0.2438,0.5417,-0.0588,0.2915,0.5377,-0.0086,0.2926,0.5343,0.0167,0.2627,0.5254,-0.0043,0.2568,0.5577,-0.0213,0.2506,0.491,0.0,0.0,0.065,0.0,0.013,0.182,0.026,0.0,0.117,0.0,0.0,0.033,0.0,0.0,0.052,0.0,0.0,0.084,0.0107,-0.5093,0.7701,-0.0629,-0.4556,0.6289,-0.0414,-0.5231,0.4357,-0.0077,-0.5108,0.5998,-0.0061,-0.54,0.5016,-0.0261,-0.4893,0.4786,-0.008,-0.056,0.0423,-0.0004,-0.0431,0.0587,-0.0001,-0.0593,0.0304,0.0,-0.0589,0.0545,-0.0137,-0.0563,0.0135,-0.0126,-0.0586,0.0555,-0.1692,-0.168,-0.0094,-0.0147,0.0375,0.0116,0.2486,0.5404,-0.0594,0.297,0.536,-0.0065,0.2964,0.5343,0.0173,0.267,0.5241,-0.0048,0.2604,0.5575,-0.0207,0.2563,0.4898,0.0,0.0,-0.6768,0.0,0.0,0.0,0.0,0.0,0.0,
4.8,run,6.21,3.26,-1.72,-1.08,-1.12,-34.2,0.0,0.0,0.24,0.44,-11.78,109.86,-2.02,-9.58,109.16,0.7,-9.14,108.37,0.62,-10.55,108.9,-0.09,-11.34,111.8,-0.79,-11.43,104.94,0.35,-11.94,111.11,-1.98,-9.24,111.07,-0.21,-9.21,110.65,0.64,-10.87,109.79,-0.15,-11.09,112.54,-0.76,-11.43,106.9,0.01,0.2374,0.5425,-0.0567,0.2866,0.542,-0.006,0.2872,0.5371,0.0183,0.2568,0.527,-0.0043,0.2529,0.5593,-0.0218,0.2468,0.4929,0.0,0.0,0.033,0.0,0.006,0.13,0.019,0.006,0.111,0.0,0.0,0.039,0.0,0.013,0.026,0.0,0.0,0.123,0.0107,-0.5123,0.7762,-0.0629,-0.4602,0.6305,-0.0414,-0.5262,0.4357,-0.0077,-0.5123,0.6029,-0.0061,-0.5446,0.5047,-0.0261,-0.4939,0.4817,-0.0056,-0.0506,0.0524,-0.0003,-0.0473,0.0468,-0.0001,-0.0529,0.0213,0.0,-0.0469,0.0496,-0.0096,-0.0565,0.0208,-0.0088,-0.0581,0.0502,-0.1629,-0.1602,0.0351,0.0414,0.0006,0.0122,0.2438,0.5417,-0.0588,0.2915,0.5377,-0.0086,0.2926,0.5343,0.0167,0.2627,0.5254,-0.0043,0.2568,0.5577,-0.0213,0.2506,0.491,0.0,0.0,-0.684,0.0,0.0,0.0,0.0,0.0,0.0,
4.84,run,6.2,3.24,-0.62,-0.86,1.88,-34.6,0.0,0.0,0.24,0.44,-12.04,110.04,-2.02,-9.84,109.51,0.7,-9.67,108.63,0.62,-10.81,109.25,-0.09,-11.69,111.8,-0.79,-11.78,105.03,0.31,-12.06,111.41,-2.01,-9.36,111.25,-0.31,-9.45,110.72,0.62,-11.11,110.13,-0.33,-11.35,112.49,-0.79,-11.7,107.18,0.0088,0.2352,0.546,-0.0574,0.2844,0.5441,-0.0089,0.2827,0.5379,0.0176,0.2526,0.531,-0.0093,0.2483,0.5587,-0.0227,0.2419,0.4963,0.0,0.0,0.033,0.0,0.006,0.13,0.019,0.006,0.111,0.0,0.0,0.039,0.0,0.013,0.026,0.0,0.0,0.123,0.0107,-0.5185,0.7793,-0.0629,-0.4648,0.6381,-0.0414,-0.5262,0.4357,-0.0077,-0.5185,0.6029,-0.0061,-0.5461,0.5077,-0.0261,-0.497,0.4817,-0.0039,-0.0585,0.0482,-0.0002,-0.0504,0.0616,-0.0001,-0.037,0.0149,0.0,-0.0559,0.0347,-0.0067,-0.0453,0.0261,-0.0062,-0.0522,0.0352,-0.1673,-0.1657,-0.0301,-0.0188,-0.0195,0.01,0.2374,0.5425,-0.0567,0.2866,0.542,-0.006,0.2872,0.5371,0.0183,0.2568,0.527,-0.0043,0.2529,0.5593,-0.0218,0.2468,0.4929,0.0,0.0,-0.6912,0.0,0.0,0.0,0.0,0.0,0.0,
4.88,run,6.19,3.22,-0.38,-0.43,-2.71,-34.9,0.0,0.0,0.24,0.44,-12.3,110.21,-2.02,-9.93,109.78,0.62,-9.84,108.9,0.62,-11.07,109.25,-0.26,-11.78,111.8,-0.79,-11.87,105.38,0.31,-12.38,111.52,-1.95,-9.67,111.41,-0.33,-9.69,110.73,0.61,-11.34,110.15,-0.31,-11.61,112.54,-0.81,-12.0,107.31,0.0089,0.2295,0.5473,-0.0557,0.2787,0.546,-0.0095,0.2783,0.538,0.0173,0.2483,0.5312,-0.0089,0.2435,0.5593,-0.0231,0.2363,0.4978,0.0,0.0,0.033,0.0,0.006,0.13,0.019,0.006,0.111,0.0,0.0,0.039,0.0,0.013,0.026,0.0,0.0,0.123,0.0107,-0.5231,0.7823,-0.0629,-0.4694,0.6443,-0.0414,-0.5354,0.4403,-0.0077,-0.5231,0.609,-0.0061,-0.5522,0.5077,-0.0261,-0.5031,0.4832,-0.0027,-0.0582,0.0453,-0.0001,-0.0526,0.0662,-0.0001,-0.0605,0.0277,0.0,-0.0564,0.0473,-0.0047,-0.0548,0.0183,-0.0043,-0.0596,0.0304,-0.1683,-0.1671,-0.0108,-0.015,0.0328,0.0088,0.2352,0.546,-0.0574,0.2844,0.5441,-0.0089,0.2827,0.5379,0.0176,0.2526,0.531,-0.0093,0.2483,0.5587,-0.0227,0.2419,0.4963,0.0,0.0,-0.6984,0.0,0.0,0.0,0.0,0.0,0.0,
4.92,run,6.21,3.27,0.61,1.2,0.34,-35.3,0.0,0.0,0.24,0.35,-12.57,110.21,-2.02,-10.02,110.04,0.53,-10.11,108.9,0.62,-11.34,109.51,-0.26,-11.95,111.8,-0.79,-12.22,105.73,0.21,-12.63,111.84,-1.97,-9.8,111.73,-0.29,-9.92,110.9,0.63,-11.64,110.49,-0.4,-11.82,112.61,-0.78,-12.24,107.53,0.0059,0.2249,0.5511,-0.0564,0.2763,0.5497,-0.0082,0.2741,0.54,0.0179,0.2429,0.5351,-0.0115,0.2397,0.5602,-0.0224,0.232,0.5004,0.006,0.0,0.045,0.0,0.013,0.156,0.013,0.019,0.097,0.0,0.006,0.019,0.006,0.026,0.045,0.0,0.006,0.058,0.0107,-0.5277,0.7854,-0.0629,-0.4709,0.6489,-0.043,-0.5384,0.4449,-0.0077,-0.5277,0.609,-0.0092,-0.5538,0.5077,-0.0261,-0.5047,0.4893,-0.0019,-0.058,0.0432,-0.0001,-0.0425,0.0636,-0.0058,-0.0538,0.0367,0.0,-0.0568,0.0331,-0.0148,-0.0441,0.0128,-0.003,-0.0475,0.0443,-0.1698,-0.1686,-0.0067,-0.0075,-0.0474,0.0089,0.2295,0.5473,-0.0557,0.2787,0.546,-0.0095,0.2783,0.538,0.0173,0.2483,0.5312,-0.0089,0.2435,0.5593,-0.0231,0.2363,0.4978,0.0,0.0,-0.7056,0.0,0.0,0.0,0.0,0.0,0.0,
4.96,run,6.2,3.27,-0.44,0.11,1.48,-35.6,0.0,0.0,0.24,0.26,-12.83,110.57,-2.02,-10.46,110.13,0.44,-10.28,108.9,0.62,-11.51,109.69,-0.35,-12.39,111.8,-0.79,-12.48,106.0,0.22,-12.92,111.93,-1.92,-10.16,111.97,-0.28,-10.19,110.93,0.58,-11.9,110.53,-0.36,-12.02,112.68,-0.82,-12.51,107.71,0.0063,0.2197,0.5522,-0.0548,0.2697,0.5526,-0.0079,0.2692,0.5403,0.0167,0.2383,0.5357,-0.0102,0.236,0.561,-0.0233,0.2271,0.5025,0.006,0.0,0.045,0.0,0.013,0.156,0.013,0.019,0.097,0.0,0.006,0.019,0.006,0.026,0.045,0.0,0.006,0.058,0.0092,-0.5323,0.7854,-0.0629,-0.4725,0.6535,-0.0445,-0.543,0.4449,-0.0077,-0.5323,0.6136,-0.0092,-0.5568,0.5077,-0.0261,-0.5108,0.4955,-0.0071,-0.0578,0.0302,-0.0001,-0.0355,0.0617,-0.0098,-0.0549,0.0257,0.0,-0.057,0.0404,-0.0104,-0.0423,0.009,-0.0021,-0.0562,0.054,-0.1679,-0.1644,0.0107,0.021,0.0059,0.0059,0.2249,0.5511,-0.0564,0.2763,0.5497,-0.0082,0.2741,0.54,0.0179,0.2429,0.5351,-0.0115,0.2397,0.5602,-0.0224,0.232,0.5004,0.0,0.0,-0.7128,0.0,0.0,0.0,0.0,0.0,0.0,
