t_s,phase,roll_deg,pitch_deg,gyro_x_dps,gyro_y_dps,gyro_z_dps,height_ref_mm,vx_ref_mps,vy_ref_mps,max_cur_a,q0_deg,q1_deg,q2_deg,q3_deg,q4_deg,q5_deg,q6_deg,q7_deg,q8_deg,q9_deg,q10_deg,q11_deg,q12_deg,q13_deg,q14_deg,q15_deg,q16_deg,q17_deg,cmd0_deg,cmd1_deg,cmd2_deg,cmd3_deg,cmd4_deg,cmd5_deg,cmd6_deg,cmd7_deg,cmd8_deg,cmd9_deg,cmd10_deg,cmd11_deg,cmd12_deg,cmd13_deg,cmd14_deg,cmd15_deg,cmd16_deg,cmd17_deg,act0,act1,act2,act3,act4,act5,act6,act7,act8,act9,act10,act11,act12,act13,act14,act15,act16,act17,cur0_a,cur1_a,cur2_a,cur3_a,cur4_a,cur5_a,cur6_a,cur7_a,cur8_a,cur9_a,cur10_a,cur11_a,cur12_a,cur13_a,cur14_a,cur15_a,cur16_a,cur17_a,obs0,obs1,obs2,obs3,obs4,obs5,obs6,obs7,obs8,obs9,obs10,obs11,obs12,obs13,obs14,obs15,obs16,obs17,obs18,obs19,obs20,obs21,obs22,obs23,obs24,obs25,obs26,obs27,obs28,obs29,obs30,obs31,obs32,obs33,obs34,obs35,obs36,obs37,obs38,obs39,obs40,obs41,obs42,obs43,obs44,obs45,obs46,obs47,obs48,obs49,obs50,obs51,obs52,obs53,obs54,obs55,obs56,obs57,obs58,obs59,obs60,obs61,obs62,obs63,obs64,obs65,obs66,obs67,rot60_k
0.0,run,0.4,3.52,-0.05,0.01,0.01,0.0,0.0,0.0,0.026,-0.09,0.44,0.18,0.0,0.53,0.09,-0.18,0.09,0.44,0.09,0.44,0.09,-0.09,0.26,0.09,0.09,0.35,0.26,0.05,1.85,1.68,1.5,1.94,1.59,1.32,-1.41,1.94,-1.41,1.85,1.59,1.41,-1.32,1.59,1.59,1.76,1.76,0.0014,0.5866,-0.2696,0.2403,0.6944,-0.4425,0.1981,0.3664,0.0915,-0.1139,0.6497,-0.3349,0.1118,0.2824,0.0585,0.3032,0.6517,-0.3738,0.006,0.006,0.006,0.0,0.006,0.013,0.006,0.019,0.0,0.013,0.006,0.006,0.013,0.026,0.013,0.013,0.0,0.006,0.0,0.0,0.0,0.0,0.0015,0.0,0.0,0.0,0.0,0.0,0.0015,0.0,0.0,0.0015,0.0,0.0,0.0015,0.0,0.0,0.0,0.0,0.0,0.0035,0.0,0.0,0.0,0.0,0.0,0.0029,0.0,0.0,0.0029,0.0,0.0,0.0029,0.0,0.0,0.0,-0.0005,0.0003,0.0014,0.0,0.0,0.0,0.0,0.0,0.0,0.0,0.0,0.0,0.0,0.0,0.0,0.0,0.0,0.0,0.0,0.0,0.0,0.0,0.0,0.0,0.0,0.0,0.0,0.0,0.0,0.0,
0.04,run,0.38,3.52,-0.32,0.01,0.38,0.0,0.0,0.0,0.026,-0.09,0.44,0.18,0.0,0.62,0.26,-0.09,-0.18,0.62,-0.26,0.53,0.26,0.09,-0.09,0.35,0.35,0.35,0.44,1.11,3.35,3.18,3.0,3.44,3.09,2.82,-2.91,3.44,-1.75,3.35,3.09,2.91,-2.82,3.09,3.09,3.26,3.26,0.0316,0.636,-0.3197,0.2352,0.7058,-0.4302,0.2138,0.3964,0.057,-0.0499,0.6822,-0.3893,0.1482,0.3787,0.08,0.2027,0.6223,-0.2821,0.006,0.006,0.006,0.0,0.006,0.013,0.006,0.019,0.0,0.013,0.006,0.006,0.013,0.026,0.013,0.013,0.0,0.006,0.0,0.0015,0.0,0.0,0.0015,0.0,0.0,0.0,0.0,0.0,0.0015,0.0,0.0,0.0015,0.0,0.0,0.0015,0.0,0.0,0.0025,0.0,0.0,0.0024,0.0,0.0,0.0,0.0,0.0,0.002,0.0,0.0,0.002,0.0,0.0,0.002,0.0,-0.0006,0.0002,-0.0008,0.0002,0.0002,0.0014,0.5866,-0.2696,0.2403,0.6944,-0.4425,0.1981,0.3664,0.0915,-0.1139,0.6497,-0.3349,0.1118,0.2824,0.0585,0.3032,0.6517,-0.3738,0.0,0.0,0.0,0.0,0.0,0.0,0.0,0.0,0.0,
0.08,run,0.41,3.51,0.02,0.03,-0.26,0.0,0.0,0.0,0.026,0.18,1.05,0.35,0.35,1.23,1.14,0.53,-0.88,1.14,-0.97,1.14,1.14,0.97,-0.79,1.14,1.23,0.62,1.05,1.15,4.85,4.68,4.5,4.94,4.59,4.32,-4.2,4.94,-1.31,4.85,4.59,4.41,-4.32,4.59,4.59,4.76,4.76,0.0329,0.6146,-0.3208,0.2191,0.6903,-0.4325,0.2005,0.3782,0.0512,-0.0376,0.6674,-0.3901,0.135,0.3713,0.0625,0.1857,0.615,-0.2927,0.006,0.006,0.006,0.0,0.006,0.013,0.006,0.019,0.0,0.013,0.006,0.006,0.013,0.026,0.013,0.013,0.0,0.006,0.0,0.0015,0.0,0.0,0.0031,0.0031,0.0015,-0.0046,0.0031,-0.0061,0.0031,0.0031,0.0031,-0.0046,0.0046,0.0046,0.0015,0.0031,0.0,0.0017,0.0,0.0,0.0074,0.0115,0.0057,-0.0172,0.0115,-0.023,0.0072,0.0115,0.0115,-0.0215,0.0172,0.0172,0.0014,0.0115,-0.0019,-0.0001,-0.0056,0.0002,0.0066,0.0316,0.636,-0.3197,0.2352,0.7058,-0.4302,0.2138,0.3964,0.057,-0.0499,0.6822,-0.3893,0.1482,0.3787,0.08,0.2027,0.6223,-0.2821,0.0,0.0,0.0,0.0,0.0,0.0,0.0,0.0,0.0,
0.12,run,0.43,3.5,0.39,0.29,0.12,0.0,0.0,0.0,0.039,0.88,2.02,1.67,1.58,2.11,2.11,1.32,-1.67,1.41,-1.49,2.02,2.2,1.85,-1.67,2.2,2.02,1.76,1.85,1.44,6.35,6.18,6.0,6.44,6.09,5.82,-5.7,6.44,-1.22,6.35,6.09,5.53,-5.82,6.09,6.09,6.26,6.26,0.0411,0.5732,-0.4462,0.2356,0.6648,-0.571,0.2221,0.2527,-0.021,-0.0349,0.6394,-0.5259,0.1581,0.2611,-0.0333,0.2202,0.6008,-0.4547,0.006,0.006,0.006,0.006,0.006,0.019,0.013,0.039,0.033,0.006,0.006,0.006,0.013,0.033,0.006,0.013,0.0,0.013,0.0046,0.0123,0.0031,0.0061,0.0138,0.0184,0.0123,-0.0169,0.0123,-0.0184,0.0138,0.0184,0.0184,-0.0169,0.0184,0.0199,0.0061,0.0138,0.0171,0.0412,0.0114,0.0229,0.0452,0.0652,0.044,-0.0578,0.0423,-0.0618,0.045,0.0652,0.0652,-0.0608,0.0635,0.0692,0.0181,0.048,0.0008,-0.0004,0.0003,0.0005,-0.0045,0.0329,0.6146,-0.3208,0.2191,0.6903,-0.4325,0.2005,0.3782,0.0512,-0.0376,0.6674,-0.3901,0.135,0.3713,0.0625,0.1857,0.615,-0.2927,0.0,0.0,0.0,0.0,0.0,0.0,0.0,0.0,0.0,
0.16,run,0.43,3.48,-0.34,-0.24,0.73,0.0,0.0,0.0,0.039,1.14,3.16,2.81,2.72,3.16,3.34,2.46,-2.99,2.72,-1.67,3.16,3.25,3.08,-2.9,3.34,3.34,3.43,2.99,1.97,7.85,7.68,7.5,7.94,7.59,7.32,-7.2,7.94,-2.28,7.85,7.59,6.99,-7.32,7.59,7.59,7.28,7.76,0.0564,0.6107,-0.6021,0.3005,0.6751,-0.667,0.2856,0.1964,-0.048,-0.0652,0.6466,-0.6247,0.1997,0.2055,-0.077,0.3304,0.5869,-0.5474,0.006,0.006,0.006,0.006,0.006,0.019,0.013,0.039,0.033,0.006,0.006,0.006,0.013,0.033,0.006,0.013,0.0,0.013,0.0169,0.0291,0.0261,0.0276,0.0291,0.0353,0.0261,-0.0307,0.0169,-0.0276,0.0291,0.0368,0.0337,-0.0322,0.0368,0.0337,0.0261,0.0276,0.0581,0.0922,0.0944,0.0967,0.0893,0.109,0.0827,-0.0923,0.0469,-0.0778,0.0891,0.1148,0.1032,-0.1002,0.1136,0.1003,0.0876,0.0855,0.0021,-0.0015,0.0068,0.0051,0.002,0.0411,0.5732,-0.4462,0.2356,0.6648,-0.571,0.2221,0.2527,-0.021,-0.0349,0.6394,-0.5259,0.1581,0.2611,-0.0333,0.2202,0.6008,-0.4547,0.0,0.0,0.0,0.0,0.0,0.0,0.0,0.0,0.0,
0.2,run,0.44,3.53,0.02,0.59,2.05,0.0,0.0,0.0,0.039,1.32,4.39,4.04,3.69,4.39,4.66,3.69,-4.13,4.04,-1.58,4.39,4.66,4.22,-4.22,4.75,4.66,4.31,4.22,2.17,9.35,9.18,9.0,9.44,9.09,8.82,-8.7,9.44,-3.11,9.35,9.09,7.44,-8.82,9.09,9.09,6.81,9.26,0.062,0.6625,-0.6178,0.3415,0.6965,-0.6255,0.3057,0.2488,-0.0071,-0.0888,0.6675,-0.5776,0.2125,0.2492,-0.049,0.3775,0.5784,-0.4861,0.006,0.006,0.006,0.006,0.006,0.019,0.013,0.039,0.033,0.006,0.006,0.006,0.013,0.033,0.006,0.013,0.0,0.013,0.0215,0.0491,0.046,0.0476,0.0476,0.0568,0.046,-0.0537,0.0399,-0.0307,0.0491,0.0552,0.0552,-0.0537,0.0568,0.0568,0.0552,0.0476,0.058,0.1397,0.1412,0.1428,0.1318,0.1572,0.133,-0.1513,0.1195,-0.066,0.1375,0.1497,0.1531,-0.151,0.1546,0.1569,0.1711,0.1349,0.0025,-0.003,-0.0059,-0.0042,0.0127,0.0564,0.6107,-0.6021,0.3005,0.6751,-0.667,0.2856,0.1964,-0.048,-0.0652,0.6466,-0.6247,0.1997,0.2055,-0.077,0.3304,0.5869,-0.5474,0.0,0.0,0.0,0.0,0.0,0.0,0.0,0.0,0.0,
0.24,run,0.44,3.53,0.13,-0.21,-2.32,0.0,0.0,0.0,0.039,2.2,5.62,5.36,5.19,5.8,5.98,5.01,-5.54,5.36,-1.58,5.71,5.98,5.45,-5.54,6.06,5.98,5.1,5.45,2.38,10.85,10.68,10.5,10.94,10.59,10.32,-9.87,10.94,-2.61,10.85,10.59,7.59,-10.32,10.59,10.59,6.7,10.76,0.0681,0.6788,-0.6064,0.3476,0.7105,-0.6,0.3055,0.2751,0.0119,-0.0746,0.6801,-0.5494,0.2168,0.2668,-0.0258,0.3802,0.5764,-0.4581,0.006,0.013,0.013,0.006,0.006,0.006,0.013,0.019,0.019,0.019,0.0,0.013,0.0,0.033,0.006,0.006,0.0,0.019,0.0245,0.0706,0.0675,0.0644,0.069,0.0798,0.0675,-0.0736,0.0629,-0.0291,0.0706,0.0798,0.0752,-0.0767,0.0813,0.0798,0.0706,0.069,0.0521,0.178,0.179,0.1629,0.1725,0.196,0.1733,-0.1804,0.1696,-0.0405,0.1764,0.1964,0.1817,-0.1916,0.1999,0.1957,0.177,0.1747,0.003,0.0014,0.0003,0.0103,0.0358,0.062,0.6625,-0.6178,0.3415,0.6965,-0.6255,0.3057,0.2488,-0.0071,-0.0888,0.6675,-0.5776,0.2125,0.2492,-0.049,0.3775,0.5784,-0.4861,0.0,0.0,0.0,0.0,0.0,0.0,0.0,0.0,0.0,
0.28,run,0.44,3.54,-0.23,-0.16,1.26,0.0,0.0,0.0,0.039,1.93,7.03,6.77,6.5,7.12,7.38,6.42,-6.94,6.86,-2.37,7.12,7.38,6.42,-6.94,7.38,7.47,6.42,6.5,2.41,12.35,12.18,12.0,12.44,12.09,10.68,-8.37,12.44,-2.34,12.35,12.09,7.67,-8.91,12.09,12.09,6.8,12.26,0.0689,0.6932,-0.5839,0.351,0.7223,-0.5654,0.3052,0.3098,0.0337,-0.0667,0.696,-0.5183,0.2192,0.2926,-0.0051,0.3867,0.5782,-0.4261,0.006,0.013,0.013,0.006,0.006,0.006,0.013,0.019,0.019,0.019,0.0,0.013,0.0,0.033,0.006,0.006,0.0,0.019,0.0399,0.092,0.0905,0.0905,0.0936,0.1028,0.0905,-0.0982,0.0859,-0.0291,0.0936,0.1028,0.0966,-0.0997,0.1043,0.1028,0.0844,0.0905,0.0939,0.205,0.2115,0.2117,0.2126,0.2233,0.2075,-0.2182,0.2049,-0.0283,0.2097,0.2237,0.2076,-0.2203,0.2261,0.2232,0.1756,0.2027,0.0031,0.0009,0.0023,-0.0037,-0.0405,0.0681,0.6788,-0.6064,0.3476,0.7105,-0.6,0.3055,0.2751,0.0119,-0.0746,0.6801,-0.5494,0.2168,0.2668,-0.0258,0.3802,0.5764,-0.4581,0.0,0.0,0.0,0.0,0.0,0.0,0.0,0.0,0.0,
0.32,run,0.44,3.51,0.48,0.57,0.99,0.0,0.0,0.0,0.039,2.55,8.44,8.09,7.91,8.53,8.7,7.73,-8.09,8.17,-2.55,8.44,8.79,7.03,-8.17,8.79,8.7,6.68,8.09,2.61,13.47,13.68,12.13,13.94,13.59,10.73,-6.87,13.94,-1.87,13.85,13.59,7.82,-7.79,13.59,13.56,6.86,13.76,0.0746,0.6994,-0.5539,0.3467,0.7292,-0.5256,0.3067,0.3413,0.0561,-0.0535,0.7097,-0.4874,0.2236,0.313,0.0267,0.3875,0.5792,-0.3957,0.006,0.013,0.013,0.006,0.006,0.006,0.013,0.019,0.019,0.019,0.0,0.013,0.0,0.033,0.006,0.006,0.0,0.019,0.0353,0.1166,0.115,0.1135,0.1166,0.1273,0.115,-0.1227,0.112,-0.043,0.1181,0.1273,0.1135,-0.1243,0.1273,0.1289,0.1074,0.1089,0.0484,0.2356,0.2402,0.2346,0.2352,0.2485,0.2374,-0.2448,0.2413,-0.0717,0.2389,0.2487,0.2087,-0.2463,0.2446,0.2541,0.2093,0.211,0.0032,0.0017,-0.004,-0.0027,0.022,0.0689,0.6932,-0.5839,0.351,0.7223,-0.5654,0.3052,0.3098,0.0337,-0.0667,0.696,-0.5183,0.2192,0.2926,-0.0051,0.3867,0.5782,-0.4261,0.0,0.0,0.0,0.0,0.0,0.0,0.0,0.0,0.0,
0.36,run,0.45,3.52,0.05,-0.26,-2.36,0.0,0.0,0.0,0.039,2.37,9.84,9.58,9.23,9.93,10.2,8.79,-8.79,9.58,-2.46,9.84,10.2,7.56,-9.14,10.2,10.11,6.77,9.49,2.75,13.54,15.18,11.87,15.28,15.09,10.68,-5.37,15.44,-1.4,14.7,15.09,7.87,-6.95,15.09,13.46,6.95,15.26,0.0786,0.7008,-0.5282,0.3392,0.7323,-0.4943,0.3051,0.3637,0.0724,-0.0401,0.7218,-0.4688,0.2247,0.3281,0.0493,0.3847,0.581,-0.3739,0.013,0.006,0.013,0.006,0.006,0.013,0.006,0.013,0.026,0.013,0.0,0.006,0.0,0.006,0.006,0.006,0.0,0.019,0.046,0.1411,0.1381,0.1381,0.1411,0.1503,0.1381,-0.1427,0.135,-0.046,0.1411,0.1519,0.1243,-0.1457,0.1519,0.1503,0.112,0.1365,0.0742,0.257,0.2544,0.2563,0.2567,0.2602,0.2524,-0.2462,0.2552,-0.0617,0.2535,0.2661,0.1863,-0.253,0.2633,0.2584,0.1638,0.2512,0.0029,-0.0002,0.0084,0.0099,0.0172,0.0746,0.6994,-0.5539,0.3467,0.7292,-0.5256,0.3067,0.3413,0.0561,-0.0535,0.7097,-0.4874,0.2236,0.313,0.0267,0.3875,0.5792,-0.3957,0.0,0.0,0.0,0.0,0.0,0.0,0.0,0.0,0.0,
0.4,run,0.45,3.52,0.21,0.46,1.52,0.0,0.0,0.0,0.039,2.81,11.07,10.9,10.28,11.34,11.6,9.67,-9.32,10.99,-1.67,11.25,11.6,7.73,-9.67,11.69,11.34,6.86,10.99,2.85,13.65,16.68,11.59,15.54,16.59,10.57,-3.87,16.94,-1.07,15.42,16.59,7.76,-6.01,16.59,13.38,7.22,16.76,0.0815,0.7028,-0.5016,0.3311,0.737,-0.4632,0.3019,0.3877,0.0896,-0.0306,0.7349,-0.4494,0.2218,0.3453,0.0693,0.3822,0.5858,-0.3516,0.013,0.006,0.013,0.006,0.006,0.013,0.006,0.013,0.026,0.013,0.0,0.006,0.0,0.006,0.006,0.006,0.0,0.019,0.043,0.1657,0.1641,0.1611,0.1657,0.1764,0.1565,-0.1549,0.1595,-0.0445,0.1657,0.1764,0.1335,-0.1626,0.1764,0.1749,0.1135,0.1611,0.0405,0.2717,0.2757,0.2655,0.2715,0.2797,0.2456,-0.2182,0.2705,-0.0374,0.2693,0.2781,0.1649,-0.2402,0.2761,0.2727,0.1204,0.2677,0.0042,-0.0001,0.0008,-0.0046,-0.0411,0.0786,0.7008,-0.5282,0.3392,0.7323,-0.4943,0.3051,0.3637,0.0724,-0.0401,0.7218,-0.4688,0.2247,0.3281,0.0493,0.3847,0.581,-0.3739,0.0,0.0,0.0,0.0,0.0,0.0,0.0,0.0,0.0,
0.44,run,0.46,3.55,0.2,-0.03,-0.66,0.0,0.0,0.0,0.039,2.9,12.13,12.39,11.07,12.57,12.92,10.2,-9.58,12.39,-1.23,12.57,13.01,7.73,-10.02,13.01,12.3,6.86,12.39,2.93,13.72,18.18,11.13,15.6,18.09,10.37,-2.37,18.44,-0.59,15.96,18.09,7.48,-4.78,18.09,12.91,7.53,18.26,0.0837,0.7039,-0.4723,0.3181,0.7382,-0.4269,0.2962,0.4175,0.1012,-0.0169,0.7446,-0.4247,0.2137,0.3676,0.0857,0.3688,0.5915,-0.3272,0.013,0.006,0.013,0.006,0.006,0.013,0.006,0.013,0.026,0.013,0.0,0.006,0.0,0.006,0.006,0.006,0.0,0.019,0.0506,0.1871,0.1871,0.1795,0.1902,0.201,0.1718,-0.1641,0.1841,-0.0307,0.1902,0.201,0.1365,-0.1718,0.2025,0.1963,0.115,0.1871,0.0571,0.2709,0.2794,0.255,0.2823,0.288,0.2295,-0.1874,0.2816,0.0257,0.2807,0.2869,0.1269,-0.2027,0.2913,0.2716,0.09,0.2854,0.0038,0.0004,0.0037,0.0081,0.0266,0.0815,0.7028,-0.5016,0.3311,0.737,-0.4632,0.3019,0.3877,0.0896,-0.0306,0.7349,-0.4494,0.2218,0.3453,0.0693,0.3822,0.5858,-0.3516,0.0,0.0,0.0,0.0,0.0,0.0,0.0,0.0,0.0,
0.48,run,0.43,3.54,-0.27,0.04,1.01,0.0,0.0,0.0,0.039,2.72,12.92,13.8,11.6,13.8,14.41,10.37,-9.32,13.8,-1.14,13.71,14.41,7.56,-10.02,14.41,13.01,6.94,13.8,2.96,13.78,19.68,10.46,15.83,19.59,9.95,-0.87,19.94,-0.15,16.6,19.59,6.96,-3.28,19.59,12.16,7.98,19.76,0.0846,0.7051,-0.4398,0.2988,0.7424,-0.3907,0.2843,0.4529,0.1113,-0.0043,0.7563,-0.3978,0.1988,0.3955,0.0962,0.3473,0.5996,-0.3003,0.0,0.0,0.013,0.0,0.0,0.006,0.0,0.006,0.019,0.0,0.006,0.006,0.0,0.0,0.006,0.006,0.006,0.019,0.0522,0.2056,0.2132,0.1933,0.2117,0.224,0.181,-0.1687,0.2086,-0.023,0.2132,0.2255,0.1365,-0.1779,0.2255,0.2132,0.115,0.2117,0.0458,0.2587,0.2934,0.2303,0.2782,0.2879,0.1952,-0.1484,0.2892,0.0467,0.2828,0.2929,0.0889,-0.1649,0.2902,0.2534,0.063,0.2918,0.0051,0.003,0.0035,-0.0005,-0.0115,0.0837,0.7039,-0.4723,0.3181,0.7382,-0.4269,0.2962,0.4175,0.1012,-0.0169,0.7446,-0.4247,0.2137,0.3676,0.0857,0.3688,0.5915,-0.3272,0.0,0.0,0.0,0.0,0.0,0.0,0.0,0.0,0.0,
0.52,run,0.43,3.53,0.15,-0.05,-1.29,0.0,0.0,0.0,0.039,2.9,13.36,15.12,11.69,14.68,15.91,10.37,-8.7,15.21,-0.26,14.77,15.82,7.21,-9.32,15.91,13.27,7.29,15.12,2.94,13.98,21.18,9.5,16.13,21.09,9.33,0.63,21.44,0.35,17.26,21.09,6.15,-1.78,21.09,10.87,8.55,21.26,0.084,0.7088,-0.3999,0.2713,0.7478,-0.3464,0.2664,0.5017,0.119,0.0099,0.7684,-0.3598,0.1756,0.4355,0.1028,0.3105,0.6101,-0.2646,0.0,0.0,0.013,0.0,0.0,0.006,0.0,0.006,0.019,0.0,0.006,0.006,0.0,0.0,0.006,0.006,0.006,0.019,0.0491,0.2194,0.2378,0.2025,0.2332,0.25,0.1841,-0.1641,0.2332,-0.0215,0.2332,0.25,0.1335,-0.1779,0.25,0.2255,0.1166,0.2362,0.0209,0.2312,0.2945,0.1946,0.2727,0.2962,0.1478,-0.0872,0.2915,0.0383,0.2704,0.2941,0.0511,-0.1155,0.2922,0.2219,0.0497,0.2934,0.0023,0.002,-0.0048,0.0007,0.0176,0.0846,0.7051,-0.4398,0.2988,0.7424,-0.3907,0.2843,0.4529,0.1113,-0.0043,0.7563,-0.3978,0.1988,0.3955,0.0962,0.3473,0.5996,-0.3003,0.0,0.0,0.0,0.0,0.0,0.0,0.0,0.0,0.0,
0.56,run,0.46,3.55,0.26,0.1,0.24,0.0,0.0,0.0,0.039,2.9,13.71,16.61,11.69,15.29,17.23,10.37,-7.73,16.61,-0.09,15.38,17.14,6.86,-8.44,17.31,13.18,7.65,16.44,2.74,14.15,22.68,8.35,16.31,22.59,8.47,2.13,22.94,0.93,17.68,22.59,5.1,-0.28,22.59,9.37,9.21,22.76,0.0782,0.7119,-0.3569,0.2387,0.751,-0.2972,0.2421,0.5578,0.1224,0.0265,0.776,-0.3133,0.1458,0.4824,0.1048,0.2636,0.622,-0.2248,0.0,0.0,0.013,0.0,0.0,0.006,0.0,0.006,0.019,0.0,0.006,0.006,0.0,0.0,0.006,0.006,0.006,0.019,0.0522,0.227,0.2608,0.204,0.2485,0.2761,0.1841,-0.1534,0.2577,-0.0061,0.2516,0.2746,0.1273,-0.1657,0.2761,0.2301,0.1227,0.2592,0.0266,0.1917,0.2958,0.1422,0.2506,0.3089,0.1034,-0.0192,0.2997,0.0866,0.261,0.3015,0.0118,-0.033,0.3062,0.1733,0.0587,0.295,0.0027,0.0016,0.0025,-0.0009,-0.0225,0.084,0.7088,-0.3999,0.2713,0.7478,-0.3464,0.2664,0.5017,0.119,0.0099,0.7684,-0.3598,0.1756,0.4355,0.1028,0.3105,0.6101,-0.2646,0.0,0.0,0.0,0.0,0.0,0.0,0.0,0.0,0.0,
0.6,run,0.45,3.56,0.24,0.05,-0.26,0.0,0.0,0.0,0.039,2.81,13.97,18.02,11.51,15.91,18.63,9.67,-6.42,18.11,0.09,16.17,18.54,6.24,-7.38,18.72,12.83,8.09,17.84,2.39,14.21,24.18,6.96,16.26,24.09,7.42,3.63,24.44,1.47,17.8,24.09,3.95,1.22,24.09,7.87,9.81,24.26,0.0684,0.7129,-0.3066,0.1988,0.7503,-0.2409,0.2119,0.6174,0.1257,0.0421,0.7782,-0.2567,0.1128,0.5357,0.1084,0.2044,0.6329,-0.1785,0.006,0.0,0.019,0.026,0.006,0.013,0.006,0.006,0.026,0.0,0.0,0.006,0.006,0.006,0.006,0.013,0.019,0.026,0.0522,0.2332,0.2869,0.204,0.2592,0.2991,0.1841,-0.1365,0.2823,-0.0031,0.2623,0.2976,0.1212,-0.1503,0.3007,0.2286,0.1289,0.2823,0.0186,0.1571,0.3044,0.0995,0.2155,0.3022,0.0724,0.0496,0.3014,0.072,0.2228,0.297,-0.0146,0.0342,0.306,0.1156,0.064,0.2924,0.005,0.0032,0.0045,0.0017,0.0042,0.0782,0.7119,-0.3569,0.2387,0.751,-0.2972,0.2421,0.5578,0.1224,0.0265,0.776,-0.3133,0.1458,0.4824,0.1048,0.2636,0.622,-0.2248,0.0,0.0,0.0,0.0,0.0,0.0,0.0,0.0,0.0,
0.64,run,0.45,3.54,0.37,0.03,-1.71,0.0,0.0,0.0,0.039,2.46,14.15,19.42,10.37,16.08,20.13,8.88,-5.01,19.51,1.05,17.05,19.86,5.36,-5.98,20.13,11.95,8.61,19.25,1.77,13.98,25.68,5.46,15.89,25.59,6.19,5.13,25.94,2.04,17.49,25.59,2.77,2.72,25.59,6.37,10.48,25.76,0.0504,0.7088,-0.245,0.1502,0.7435,-0.1727,0.177,0.6792,0.1308,0.0582,0.7726,-0.1843,0.0793,0.5955,0.1147,0.1365,0.645,-0.1237,0.006,0.0,0.019,0.026,0.006,0.013,0.006,0.006,0.026,0.0,0.0,0.006,0.006,0.006,0.006,0.013,0.019,0.026,0.0506,0.2378,0.3114,0.201,0.27,0.3237,0.1718,-0.1135,0.3083,0.0,0.2761,0.3221,0.1104,-0.1319,0.3252,0.2224,0.1365,0.3068,0.0073,0.1272,0.3048,0.0582,0.191,0.3033,0.0048,0.1207,0.3085,0.0619,0.2075,0.2996,-0.0504,0.0927,0.3059,0.058,0.0735,0.2964,0.0037,0.0037,0.0043,0.0009,-0.0045,0.0684,0.7129,-0.3066,0.1988,0.7503,-0.2409,0.2119,0.6174,0.1257,0.0421,0.7782,-0.2567,0.1128,0.5357,0.1084,0.2044,0.6329,-0.1785,0.0,0.0,0.0,0.0,0.0,0.0,0.0,0.0,0.0,
0.68,run,0.41,3.54,-0.3,0.18,-0.05,0.0,0.0,0.0,0.039,2.2,14.15,20.83,8.61,16.08,21.53,8.09,-3.6,20.83,1.41,17.4,21.27,4.48,-4.48,21.62,10.99,9.05,20.57,0.93,13.35,27.18,3.96,15.02,27.09,4.91,6.63,27.44,2.59,16.53,27.09,1.95,4.22,27.09,4.87,11.06,27.26,0.0265,0.6972,-0.1821,0.0985,0.7276,-0.1025,0.1403,0.7302,0.1323,0.0739,0.755,-0.1074,0.0556,0.6506,0.1214,0.0686,0.6556,-0.0709,0.006,0.0,0.019,0.026,0.006,0.013,0.006,0.006,0.026,0.0,0.0,0.006,0.006,0.006,0.006,0.013,0.019,0.026,0.0445,0.2408,0.3359,0.181,0.273,0.3497,0.158,-0.089,0.3329,0.0169,0.2915,0.3451,0.0951,-0.1074,0.3497,0.2071,0.1457,0.3313,-0.018,0.1006,0.3057,-0.0342,0.1452,0.3104,-0.0485,0.1768,0.3082,0.1068,0.203,0.2963,-0.0929,0.1572,0.3064,-0.0171,0.086,0.2998,0.0041,0.0021,0.0065,0.0006,-0.0298,0.0504,0.7088,-0.245,0.1502,0.7435,-0.1727,0.177,0.6792,0.1308,0.0582,0.7726,-0.1843,0.0793,0.5955,0.1147,0.1365,0.645,-0.1237,0.0,0.0,0.0,0.0,0.0,0.0,0.0,0.0,0.0,
0.72,run,0.37,3.56,-0.72,-0.71,-1.1,0.0,0.0,0.0,0.039,1.85,14.06,22.15,7.91,16.08,23.03,7.12,-2.2,22.32,2.02,17.31,22.68,3.43,-2.99,22.94,9.58,9.58,21.97,0.24,12.71,28.68,2.46,14.23,28.59,3.86,8.13,28.94,2.88,15.6,28.59,1.58,5.72,28.59,3.37,11.63,28.76,0.0068,0.6856,-0.1281,0.0553,0.7133,-0.0469,0.1102,0.7613,0.1332,0.0823,0.7383,-0.0458,0.0451,0.6918,0.1249,0.0175,0.6661,-0.0298,0.006,0.013,0.013,0.026,0.026,0.013,0.013,0.006,0.019,0.013,0.006,0.019,0.006,0.0,0.006,0.026,0.026,0.033,0.0399,0.2408,0.3605,0.1503,0.273,0.3743,0.1442,-0.0644,0.3559,0.023,0.2976,0.3697,0.0798,-0.0813,0.3758,0.1902,0.1534,0.3543,-0.0298,0.0704,0.306,-0.139,0.1017,0.3093,-0.0858,0.2158,0.3021,0.0978,0.1651,0.2994,-0.1226,0.2079,0.3123,-0.0753,0.089,0.2962,0.0009,0.0024,-0.0052,0.0031,-0.0009,0.0265,0.6972,-0.1821,0.0985,0.7276,-0.1025,0.1403,0.7302,0.1323,0.0739,0.755,-0.1074,0.0556,0.6506,0.1214,0.0686,0.6556,-0.0709,0.0,0.0,0.0,0.0,0.0,0.0,0.0,0.0,0.0,
0.76,run,0.35,3.46,0.54,-1.62,-5.39,0.0,0.0,0.0,0.039,0.88,13.54,23.64,6.42,15.56,24.43,6.15,-0.79,23.73,2.55,17.05,24.08,2.55,-2.02,24.35,8.26,10.11,23.29,-0.22,12.47,30.18,0.96,13.99,30.09,3.17,9.63,30.44,2.91,15.09,30.09,1.39,7.22,30.09,1.87,12.27,30.26,-0.0062,0.6813,-0.0921,0.0275,0.7088,-0.0118,0.0905,0.7793,0.138,0.0831,0.7289,-0.0047,0.0397,0.7207,0.1257,-0.0116,0.6776,-0.0019,0.006,0.013,0.013,0.026,0.026,0.013,0.013,0.006,0.019,0.013,0.006,0.019,0.006,0.0,0.006,0.026,0.026,0.033,0.0337,0.2393,0.3835,0.1381,0.273,0.4004,0.1273,-0.0399,0.382,0.0337,0.2961,0.3942,0.0614,-0.0552,0.3988,0.1657,0.1626,0.3789,-0.0439,0.0435,0.3005,-0.1433,0.0712,0.3142,-0.1233,0.2431,0.3092,0.1087,0.1098,0.3016,-0.1548,0.2432,0.3049,-0.1447,0.0968,0.2993,-0.0033,0.004,-0.0126,-0.0123,-0.0193,0.0068,0.6856,-0.1281,0.0553,0.7133,-0.0469,0.1102,0.7613,0.1332,0.0823,0.7383,-0.0458,0.0451,0.6918,0.1249,0.0175,0.6661,-0.0298,0.0,0.0,0.0,0.0,0.0,0.0,0.0,0.0,0.0,
0.8,run,0.34,3.41,-0.17,-0.0,-5.33,0.0,0.0,0.0,0.039,0.35,13.1,24.96,4.48,14.94,25.75,5.1,0.62,25.14,2.72,16.26,25.49,1.93,-0.44,25.66,6.94,10.55,24.52,-0.36,12.59,31.68,0.6,14.18,31.59,2.76,11.13,31.94,2.8,15.01,31.59,1.48,8.72,31.59,0.37,12.74,31.76,-0.0104,0.6834,-0.0762,0.0172,0.7124,-0.0001,0.0789,0.7849,0.1412,0.0801,0.7274,0.0125,0.0423,0.7335,0.129,-0.0279,0.6862,0.0134,0.006,0.013,0.013,0.026,0.026,0.013,0.013,0.006,0.019,0.013,0.006,0.019,0.006,0.0,0.006,0.026,0.026,0.033,0.0169,0.2301,0.4096,0.112,0.2638,0.4249,0.1104,-0.0153,0.4065,0.043,0.2915,0.4188,0.046,-0.0383,0.4234,0.1427,0.1718,0.4019,-0.0938,-0.0039,0.3078,-0.1978,0.0154,0.3118,-0.1494,0.2619,0.3082,0.1105,0.0597,0.3029,-0.1657,0.2334,0.3052,-0.1873,0.1022,0.2956,-0.0045,-0.0047,0.0095,-0.0283,-0.094,-0.0062,0.6813,-0.0921,0.0275,0.7088,-0.0118,0.0905,0.7793,0.138,0.0831,0.7289,-0.0047,0.0397,0.7207,0.1257,-0.0116,0.6776,-0.0019,0.0,0.0,0.0,0.0,0.0,0.0,0.0,0.0,0.0,
0.84,run,0.36,3.41,1.34,0.16,-7.26,0.0,0.0,0.0,0.058,-0.18,12.57,26.37,3.69,14.5,27.16,4.22,2.11,26.54,2.64,15.64,26.89,1.49,0.88,26.98,5.54,10.99,25.93,-0.36,13.12,33.18,0.61,14.64,33.09,2.65,12.63,33.44,2.52,15.22,33.09,1.63,10.22,33.09,-1.13,13.18,33.26,-0.0102,0.6931,-0.0725,0.0174,0.7207,0.0008,0.0757,0.7848,0.1462,0.072,0.7313,0.0176,0.0464,0.7405,0.132,-0.0344,0.6942,0.0244,0.006,0.006,0.019,0.026,0.006,0.013,0.006,0.0,0.026,0.0,0.0,0.019,0.0,0.033,0.026,0.058,0.045,0.045,0.0077,0.2224,0.4326,0.0782,0.2531,0.4479,0.092,0.0092,0.431,0.046,0.2777,0.4433,0.0353,-0.0107,0.4464,0.1197,0.1795,0.4234,-0.1003,-0.0316,0.302,-0.2654,-0.0296,0.3048,-0.1738,0.2757,0.3081,0.0889,-0.0102,0.3043,-0.1564,0.2672,0.3002,-0.2177,0.1004,0.2877,-0.0055,-0.009,-0.0031,-0.0001,-0.0931,-0.0104,0.6834,-0.0762,0.0172,0.7124,-0.0001,0.0789,0.7849,0.1412,0.0801,0.7274,0.0125,0.0423,0.7335,0.129,-0.0279,0.6862,0.0134,0.0,0.0,0.0,0.0,0.0,0.0,0.0,0.0,0.0,
0.88,run,0.42,3.37,1.15,0.36,-14.39,0.0,0.0,0.0,0.058,-0.44,12.3,27.77,2.72,14.5,28.65,3.43,3.52,27.95,2.64,15.21,28.3,1.49,2.11,28.39,4.31,11.43,27.33,-0.35,13.8,34.68,0.66,15.19,34.59,2.61,14.13,34.94,2.28,15.57,34.59,1.6,11.72,34.59,-1.31,13.6,34.76,-0.01,0.7055,-0.0711,0.0188,0.7308,0.0026,0.0744,0.7903,0.1544,0.0651,0.7377,0.0232,0.0458,0.7495,0.137,-0.0375,0.7018,0.0362,0.006,0.006,0.019,0.026,0.006,0.013,0.006,0.0,0.026,0.0,0.0,0.019,0.0,0.033,0.026,0.058,0.045,0.045,-0.0015,0.2132,0.4571,0.0644,0.2454,0.4725,0.0767,0.0353,0.4556,0.0445,0.2669,0.4679,0.0276,0.0123,0.4694,0.0951,0.1871,0.4479,-0.1047,-0.0566,0.3035,-0.2376,-0.0495,0.3054,-0.1792,0.2908,0.3077,0.0565,-0.0474,0.3051,-0.1382,0.2733,0.2964,-0.2444,0.099,0.2934,-0.0036,-0.009,0.0233,0.0029,-0.1267,-0.0102,0.6931,-0.0725,0.0174,0.7207,0.0008,0.0757,0.7848,0.1462,0.072,0.7313,0.0176,0.0464,0.7405,0.132,-0.0344,0.6942,0.0244,0.0,0.0,0.0,0.0,0.0,0.0,0.0,0.0,0.0,
0.92,run,0.37,3.12,-0.59,-7.32,-14.33,0.0,0.0,0.0,0.058,-0.53,12.74,29.09,1.05,14.59,30.15,2.99,4.92,29.27,2.29,15.12,29.71,1.32,3.34,29.71,2.9,11.78,28.65,-0.32,14.46,36.18,0.73,15.74,36.09,2.55,15.63,36.44,2.06,16.0,36.09,1.56,13.22,36.09,-1.35,14.03,36.26,-0.0091,0.7175,-0.0698,0.0209,0.7406,0.0049,0.0729,0.7976,0.163,0.0587,0.7455,0.0264,0.0446,0.7574,0.1443,-0.0385,0.7096,0.0467,0.006,0.006,0.019,0.026,0.006,0.013,0.006,0.0,0.026,0.0,0.0,0.019,0.0,0.033,0.026,0.058,0.045,0.045,-0.0061,0.2086,0.4817,0.0476,0.2454,0.4985,0.0629,0.0598,0.4801,0.0445,0.2592,0.4924,0.0276,0.0337,0.4939,0.0736,0.1948,0.4725,-0.0905,-0.0569,0.3043,-0.2295,-0.0346,0.3114,-0.1771,0.2954,0.3072,0.0395,-0.0619,0.3054,-0.0968,0.2717,0.2994,-0.2515,0.098,0.2973,0.0015,-0.0126,0.02,0.0063,-0.2512,-0.01,0.7055,-0.0711,0.0188,0.7308,0.0026,0.0744,0.7903,0.1544,0.0651,0.7377,0.0232,0.0458,0.7495,0.137,-0.0375,0.7018,0.0362,0.0,0.0,0.0,0.0,0.0,0.0,0.0,0.0,0.0,
0.96,run,0.42,3.08,0.56,-0.79,-9.97,0.0,0.0,0.0,0.117,-0.53,13.18,30.5,1.32,15.03,31.46,2.81,6.33,30.76,2.11,15.21,31.03,1.49,4.57,30.94,1.58,12.22,29.97,-0.22,15.05,37.68,0.85,16.13,37.59,2.52,17.13,37.94,1.9,16.41,37.59,1.62,14.72,37.59,-1.4,14.47,37.76,-0.0063,0.7282,-0.0669,0.0244,0.7479,0.0088,0.072,0.7999,0.173,0.0543,0.753,0.0281,0.0461,0.7607,0.1543,-0.0401,0.7176,0.057,0.006,0.019,0.026,0.019,0.0,0.013,0.0,0.006,0.019,0.006,0.019,0.019,0.006,0.117,0.065,0.078,0.071,0.071,-0.0077,0.2163,0.5047,0.0184,0.247,0.5246,0.0552,0.0844,0.5031,0.0383,0.2577,0.517,0.0245,0.0552,0.517,0.0491,0.201,0.4955,-0.0691,-0.011,0.2995,-0.2701,-0.0185,0.316,-0.1528,0.299,0.3015,0.0046,-0.0491,0.306,-0.0793,0.2709,0.296,-0.2683,0.0917,0.2945,-0.0031,-0.0349,-0.0102,-0.1277,-0.25,-0.0091,0.7175,-0.0698,0.0209,0.7406,0.0049,0.0729,0.7976,0.163,0.0587,0.7455,0.0264,0.0446,0.7574,0.1443,-0.0385,0.7096,0.0467,0.0,0.0,0.0,0.0,0.0,0.0,0.0,0.0,0.0,
1.0,run,0.38,2.84,-0.47,-6.06,-12.94,0.0,0.0,0.0,0.117,-0.53,13.71,31.82,1.23,15.38,32.96,2.81,7.65,32.17,1.93,15.47,32.34,1.32,5.8,32.17,0.62,12.48,31.2,-0.26,15.56,39.18,0.93,16.35,39.09,2.68,18.63,39.44,1.81,16.55,39.09,1.48,16.22,39.09,-1.17,14.72,39.26,-0.0074,0.7374,-0.065,0.0266,0.7518,0.016,0.0767,0.8078,0.1809,0.0518,0.7554,0.0372,0.0423,0.7687,0.1575,-0.0335,0.7221,0.0649,0.006,0.019,0.026,0.019,0.0,0.013,0.0,0.006,0.019,0.006,0.019,0.019,0.006,0.117,0.065,0.078,0.071,0.071,-0.0077,0.224,0.5292,0.023,0.2546,0.5476,0.0522,0.1089,0.5292,0.0353,0.2592,0.54,0.0276,0.0767,0.5384,0.0261,0.2086,0.5185,-0.0484,0.021,0.3015,-0.1719,0.0158,0.3073,-0.1184,0.3012,0.3087,-0.0083,-0.0286,0.3004,-0.044,0.27,0.2876,-0.2739,0.0929,0.2923,0.0015,-0.0384,0.0097,-0.0138,-0.1741,-0.0063,0.7282,-0.0669,0.0244,0.7479,0.0088,0.072,0.7999,0.173,0.0543,0.753,0.0281,0.0461,0.7607,0.1543,-0.0401,0.7176,0.057,0.0,0.0,0.0,0.0,0.0,0.0,0.0,0.0,0.0,
1.04,run,0.63,2.81,6.02,-0.75,-6.99,0.0,0.0,0.0,0.117,-0.53,14.24,33.22,1.05,15.47,34.28,2.72,9.05,33.49,1.93,15.64,33.75,1.23,6.94,33.49,-0.18,12.74,32.61,-0.25,15.95,40.68,1.0,16.72,40.59,2.6,19.82,40.94,1.73,16.88,40.59,1.4,17.55,40.59,-1.15,15.09,40.76,-0.0072,0.7446,-0.0617,0.0287,0.7585,0.02,0.0742,0.815,0.1888,0.0493,0.7614,0.0401,0.0401,0.7737,0.1654,-0.0329,0.7288,0.072,0.006,0.019,0.026,0.019,0.0,0.013,0.0,0.006,0.019,0.006,0.019,0.019,0.006,0.117,0.065,0.078,0.071,0.071,-0.0077,0.2332,0.5522,0.0215,0.2608,0.5737,0.0522,0.1319,0.5538,0.0322,0.2638,0.563,0.0245,0.0982,0.5599,0.0092,0.2132,0.54,-0.0339,0.0493,0.2975,-0.1261,0.0341,0.3131,-0.0829,0.2973,0.3083,-0.0173,-0.0027,0.2967,-0.0423,0.2697,0.282,-0.2552,0.0823,0.2853,-0.0024,-0.0594,-0.0082,-0.1058,-0.2259,-0.0074,0.7374,-0.065,0.0266,0.7518,0.016,0.0767,0.8078,0.1809,0.0518,0.7554,0.0372,0.0423,0.7687,0.1575,-0.0335,0.7221,0.0649,0.0,0.0,0.0,0.0,0.0,0.0,0.0,0.0,0.0,
1.08,run,1.16,2.78,13.24,-1.1,-0.86,0.0,0.0,0.0,0.214,-0.53,14.77,34.63,1.05,15.91,35.6,2.72,10.55,34.8,1.76,15.73,35.07,1.23,8.09,34.8,-0.53,12.92,33.93,-0.15,16.39,42.18,1.21,16.92,42.09,2.82,19.93,42.44,1.66,17.0,42.09,1.53,17.65,42.09,-0.87,15.21,42.26,-0.0042,0.7525,-0.062,0.0346,0.7622,0.0236,0.0807,0.8168,0.1965,0.0473,0.7636,0.0472,0.0436,0.7755,0.1728,-0.0248,0.731,0.0793,0.019,0.026,0.039,0.0,0.013,0.026,0.0,0.006,0.033,0.0,0.026,0.045,0.013,0.214,0.136,0.033,0.104,0.084,-0.0077,0.2424,0.5768,0.0184,0.2623,0.5967,0.0506,0.1565,0.5768,0.0322,0.2669,0.5875,0.023,0.1181,0.5829,-0.0046,0.2178,0.5645,-0.0237,0.069,0.3003,-0.0998,0.0296,0.3054,-0.0638,0.3001,0.3021,-0.0121,0.0096,0.2997,-0.0354,0.2635,0.2837,-0.2304,0.0749,0.2917,0.0198,-0.0615,0.105,-0.0131,-0.122,-0.0072,0.7446,-0.0617,0.0287,0.7585,0.02,0.0742,0.815,0.1888,0.0493,0.7614,0.0401,0.0401,0.7737,0.1654,-0.0329,0.7288,0.072,0.0,0.0,0.0,0.0,0.0,0.0,0.0,0.0,0.0,
1.12,run,1.79,2.68,16.53,-3.51,-1.12,0.0,0.0,0.0,0.214,-0.44,15.12,35.95,1.05,16.26,36.91,2.72,11.95,36.21,1.76,16.0,36.47,1.23,9.4,36.21,-0.7,13.18,35.33,0.02,16.81,43.68,1.41,17.22,43.59,3.06,20.15,43.94,1.56,17.27,43.59,1.69,17.79,43.59,-0.53,15.38,43.76,0.0005,0.7602,-0.0608,0.0402,0.7676,0.0278,0.0876,0.8209,0.2068,0.0446,0.7685,0.0536,0.0484,0.778,0.1844,-0.0153,0.7342,0.0879,0.019,0.026,0.039,0.0,0.013,0.026,0.0,0.006,0.033,0.0,0.026,0.045,0.013,0.214,0.136,0.033,0.104,0.084,-0.0077,0.2516,0.6013,0.0184,0.27,0.6197,0.0506,0.1825,0.5998,0.0291,0.2684,0.6105,0.023,0.1381,0.6059,-0.0107,0.2209,0.5875,-0.0166,0.0822,0.3006,-0.0698,0.049,0.2986,-0.0447,0.3062,0.2962,-0.0198,0.0124,0.2946,-0.0248,0.258,0.2834,-0.1839,0.0637,0.289,0.0663,-0.064,0.231,-0.0191,-0.015,-0.0042,0.7525,-0.062,0.0346,0.7622,0.0236,0.0807,0.8168,0.1965,0.0473,0.7636,0.0472,0.0436,0.7755,0.1728,-0.0248,0.731,0.0793,0.0,0.0,0.0,0.0,0.0,0.0,0.0,0.0,0.0,
1.16,run,2.51,2.57,17.95,-3.0,-0.2,0.0,0.0,0.0,0.214,-0.26,15.47,37.35,1.14,16.44,38.32,2.72,13.36,37.53,1.67,16.08,37.79,1.23,10.63,37.62,-0.7,13.18,36.74,0.15,17.17,45.18,1.55,17.55,45.09,3.21,20.47,45.44,1.46,17.56,45.09,1.79,18.0,45.09,-0.25,15.6,45.26,0.0044,0.7668,-0.0595,0.0444,0.7736,0.0312,0.0917,0.8267,0.2165,0.0417,0.7738,0.0578,0.0511,0.7818,0.1949,-0.0072,0.7381,0.0955,0.019,0.026,0.039,0.0,0.013,0.026,0.0,0.006,0.033,0.0,0.026,0.045,0.013,0.214,0.136,0.033,0.104,0.084,-0.0061,0.2577,0.6243,0.0184,0.2761,0.6427,0.0506,0.2071,0.6243,0.0291,0.273,0.6351,0.023,0.1611,0.6305,-0.0138,0.2255,0.6121,-0.0058,0.081,0.2982,-0.0489,0.0577,0.2968,-0.0313,0.308,0.301,-0.0139,0.0262,0.2999,-0.0173,0.2684,0.292,-0.1404,0.0622,0.296,0.1214,-0.0728,0.2885,-0.0612,-0.0195,0.0005,0.7602,-0.0608,0.0402,0.7676,0.0278,0.0876,0.8209,0.2068,0.0446,0.7685,0.0536,0.0484,0.778,0.1844,-0.0153,0.7342,0.0879,0.0,0.0,0.0,0.0,0.0,0.0,0.0,0.0,0.0,
1.2,run,3.22,2.63,17.54,0.97,1.57,0.0,0.0,0.0,0.279,-0.09,15.82,38.67,1.32,16.61,39.64,2.81,14.5,38.85,1.58,16.26,39.2,1.58,12.04,38.85,-0.18,13.54,38.14,0.33,17.45,46.68,1.71,17.79,46.59,3.38,20.6,46.94,1.36,17.77,46.59,1.92,18.04,46.59,0.11,15.75,46.76,0.0094,0.7719,-0.0592,0.049,0.7781,0.0334,0.0966,0.8291,0.2259,0.0388,0.7776,0.061,0.0548,0.7826,0.204,0.003,0.7409,0.1011,0.0,0.052,0.039,0.0,0.019,0.039,0.0,0.039,0.045,0.006,0.039,0.058,0.0,0.279,0.189,0.0,0.111,0.091,-0.0031,0.2638,0.6489,0.0199,0.2792,0.6673,0.0506,0.2316,0.6473,0.0276,0.2746,0.6581,0.023,0.1825,0.655,-0.0138,0.2255,0.6366,0.0075,0.0797,0.3007,-0.0285,0.0519,0.2997,-0.0219,0.3075,0.2969,-0.0154,0.0241,0.2961,-0.0121,0.2683,0.2964,-0.0983,0.0435,0.2991,0.1842,-0.0822,0.3134,-0.0523,-0.0034,0.0044,0.7668,-0.0595,0.0444,0.7736,0.0312,0.0917,0.8267,0.2165,0.0417,0.7738,0.0578,0.0511,0.7818,0.1949,-0.0072,0.7381,0.0955,0.0,0.0,0.0,0.0,0.0,0.0,0.0,0.0,0.0,
1.24,run,3.71,2.67,12.91,1.31,-0.64,0.0,0.0,0.0,0.279,0.18,16.08,40.08,1.49,16.79,41.04,2.9,15.64,40.17,1.49,16.52,40.61,1.67,13.27,40.17,-0.09,13.71,39.55,0.43,17.68,48.18,1.82,18.04,48.09,3.53,20.98,48.44,1.27,17.99,48.09,1.95,18.32,48.09,0.45,15.97,48.26,0.0122,0.776,-0.0557,0.0519,0.7826,0.0381,0.1008,0.836,0.2338,0.0364,0.7816,0.0662,0.0558,0.7877,0.211,0.0129,0.7449,0.1058,0.0,0.052,0.039,0.0,0.019,0.039,0.0,0.039,0.045,0.006,0.039,0.058,0.0,0.279,0.189,0.0,0.111,0.091,0.0,0.27,0.6719,0.023,0.2823,0.6903,0.0522,0.2516,0.6703,0.0261,0.2777,0.6826,0.0291,0.2071,0.6765,-0.0046,0.2316,0.6611,0.0167,0.0788,0.2969,-0.0084,0.0478,0.2962,-0.0096,0.2901,0.2942,-0.0166,0.0284,0.2994,0.0145,0.28,0.2881,-0.0342,0.0535,0.3015,0.2459,-0.0776,0.3062,0.0169,0.0274,0.0094,0.7719,-0.0592,0.049,0.7781,0.0334,0.0966,0.8291,0.2259,0.0388,0.7776,0.061,0.0548,0.7826,0.204,0.003,0.7409,0.1011,0.0,0.0,0.0,0.0,0.0,0.0,0.0,0.0,0.0,
1.28,run,4.06,2.76,8.38,1.58,-1.95,0.0,0.0,0.0,0.279,0.26,16.26,41.4,1.58,16.88,42.36,3.08,16.88,41.4,1.23,16.61,42.01,1.67,14.24,41.57,0.18,13.71,40.78,0.47,17.79,49.68,1.84,18.2,49.59,3.52,21.25,49.94,1.23,18.14,49.59,1.93,18.51,49.59,0.65,16.22,49.76,0.0133,0.7779,-0.0521,0.0526,0.7855,0.0421,0.1006,0.8409,0.2408,0.0351,0.7844,0.069,0.0552,0.7911,0.2158,0.0187,0.7494,0.1089,0.0,0.052,0.039,0.0,0.019,0.039,0.0,0.039,0.045,0.006,0.039,0.058,0.0,0.279,0.189,0.0,0.111,0.091,0.0046,0.2746,0.6964,0.0261,0.2853,0.7148,0.0537,0.2715,0.6934,0.0245,0.2823,0.7072,0.0307,0.2286,0.6995,-0.0031,0.2347,0.6857,0.029,0.0724,0.2999,0.0056,0.045,0.2994,-0.0009,0.2779,0.2923,-0.0174,0.0371,0.3016,0.0159,0.2765,0.2879,-0.0182,0.049,0.3031,0.2886,-0.0737,0.2253,0.0229,-0.0111,0.0122,0.776,-0.0557,0.0519,0.7826,0.0381,0.1008,0.836,0.2338,0.0364,0.7816,0.0662,0.0558,0.7877,0.211,0.0129,0.7449,0.1058,0.0,0.0,0.0,0.0,0.0,0.0,0.0,0.0,0.0,
1.32,run,4.34,2.86,7.92,2.06,-0.48,0.0,0.0,0.0,0.299,0.26,16.35,42.71,1.58,17.05,43.68,3.25,17.93,42.71,1.32,16.7,43.33,1.67,15.03,42.8,0.53,13.97,42.19,0.49,17.84,51.18,1.86,18.32,51.09,3.49,21.48,51.44,1.21,18.29,51.09,1.93,18.67,51.09,0.79,16.46,51.26,0.0141,0.779,-0.0477,0.0532,0.7877,0.0462,0.0997,0.8451,0.2469,0.0345,0.7872,0.0716,0.0553,0.794,0.2203,0.0227,0.7539,0.1116,0.006,0.058,0.078,0.0,0.039,0.071,0.006,0.091,0.078,0.0,0.065,0.097,0.006,0.299,0.195,0.0,0.156,0.111,0.0061,0.2777,0.7194,0.0276,0.2869,0.7378,0.0568,0.293,0.7148,0.0199,0.2838,0.7317,0.0307,0.2454,0.724,0.0015,0.2347,0.7072,0.026,0.0622,0.296,0.0097,0.0372,0.2957,0.0108,0.2749,0.285,-0.0294,0.0317,0.303,0.0112,0.2567,0.2934,0.0045,0.0343,0.2926,0.3187,-0.0656,0.1463,0.0275,-0.0341,0.0133,0.7779,-0.0521,0.0526,0.7855,0.0421,0.1006,0.8409,0.2408,0.0351,0.7844,0.069,0.0552,0.7911,0.2158,0.0187,0.7494,0.1089,0.0,0.0,0.0,0.0,0.0,0.0,0.0,0.0,0.0,
1.36,run,4.78,2.92,11.46,1.67,-0.15,0.0,0.0,0.0,0.299,0.26,16.35,44.12,1.67,17.05,45.0,3.25,18.81,43.86,1.32,16.96,44.74,1.67,15.64,44.21,0.62,14.24,43.59,0.55,17.97,52.68,1.91,18.48,52.59,3.5,21.81,52.94,1.17,18.44,52.59,1.98,18.93,52.59,0.88,16.7,52.76,0.0158,0.7812,-0.0424,0.0547,0.7905,0.0523,0.0999,0.851,0.2528,0.0336,0.7898,0.0774,0.0566,0.7987,0.2261,0.025,0.7581,0.1163,0.006,0.058,0.078,0.0,0.039,0.071,0.006,0.091,0.078,0.0,0.065,0.097,0.006,0.299,0.195,0.0,0.156,0.111,0.0061,0.2792,0.7424,0.0276,0.2899,0.7609,0.0598,0.3114,0.7378,0.0215,0.2853,0.7547,0.0307,0.2592,0.7455,0.0077,0.2393,0.7317,0.0182,0.0493,0.2937,0.0068,0.0376,0.2934,0.0191,0.2616,0.2859,-0.0148,0.028,0.2986,0.0078,0.2316,0.2861,0.0262,0.0413,0.297,0.3435,-0.0571,0.1382,0.0359,-0.0083,0.0141,0.779,-0.0477,0.0532,0.7877,0.0462,0.0997,0.8451,0.2469,0.0345,0.7872,0.0716,0.0553,0.794,0.2203,0.0227,0.7539,0.1116,0.0,0.0,0.0,0.0,0.0,0.0,0.0,0.0,0.0,
1.4,run,5.31,2.99,12.56,1.99,-1.2,0.0,0.0,0.0,0.299,0.26,16.35,45.44,1.67,17.05,46.32,3.25,19.34,45.09,1.23,16.96,46.05,1.67,15.82,45.62,0.88,14.24,44.91,0.65,18.08,54.18,1.97,18.58,54.09,3.55,21.98,54.44,1.16,18.52,54.09,2.07,19.03,54.09,1.02,16.83,54.26,0.0185,0.7832,-0.0397,0.0562,0.7923,0.0565,0.1013,0.8542,0.2585,0.033,0.7912,0.0821,0.0593,0.8006,0.2317,0.0291,0.7606,0.1202,0.006,0.058,0.078,0.0,0.039,0.071,0.006,0.091,0.078,0.0,0.065,0.097,0.006,0.299,0.195,0.0,0.156,0.111,0.0061,0.2792,0.767,0.0291,0.2899,0.7839,0.0598,0.3267,0.7578,0.0215,0.2899,0.7793,0.0307,0.27,0.7701,0.0092,0.2439,0.7563,0.0128,0.0345,0.2975,0.0105,0.0263,0.2916,0.0134,0.2406,0.2749,-0.0104,0.0368,0.301,0.0055,0.2023,0.2922,0.0241,0.0461,0.2999,0.3821,-0.0523,0.2,0.0291,-0.0026,0.0158,0.7812,-0.0424,0.0547,0.7905,0.0523,0.0999,0.851,0.2528,0.0336,0.7898,0.0774,0.0566,0.7987,0.2261,0.025,0.7581,0.1163,0.0,0.0,0.0,0.0,0.0,0.0,0.0,0.0,0.0,
1.44,run,5.69,3.05,9.5,0.66,-0.61,0.0,0.0,0.0,0.709,0.26,16.35,46.76,1.67,17.05,47.72,3.25,19.78,46.32,1.32,17.05,47.46,1.93,15.82,46.93,0.97,14.41,46.23,0.75,18.14,55.68,2.01,18.64,55.59,3.56,22.17,55.94,1.13,18.58,55.59,2.16,19.15,55.59,1.15,16.94,55.76,0.0215,0.7844,-0.0371,0.0573,0.7935,0.0605,0.1018,0.8577,0.2629,0.0323,0.7923,0.086,0.0617,0.8027,0.2361,0.033,0.7625,0.1233,0.019,0.078,0.071,0.006,0.071,0.143,0.006,0.227,0.136,0.006,0.052,0.071,0.006,0.709,0.24,0.006,0.123,0.156,0.0061,0.2792,0.79,0.0291,0.2899,0.8069,0.0598,0.3359,0.7793,0.0199,0.2899,0.8023,0.0307,0.273,0.7946,0.0138,0.2439,0.7793,0.0089,0.0242,0.2946,0.0073,0.0184,0.2905,0.0094,0.203,0.273,-0.013,0.0258,0.297,0.0038,0.1532,0.2967,0.0341,0.0323,0.2963,0.4282,-0.046,0.2192,0.0347,-0.021,0.0185,0.7832,-0.0397,0.0562,0.7923,0.0565,0.1013,0.8542,0.2585,0.033,0.7912,0.0821,0.0593,0.8006,0.2317,0.0291,0.7606,0.1202,0.0,0.0,0.0,0.0,0.0,0.0,0.0,0.0,0.0,
1.48,run,5.92,3.17,6.95,2.52,-0.39,0.0,0.0,0.0,0.709,0.26,16.35,48.16,1.76,16.96,48.96,3.34,19.95,47.72,1.23,17.05,48.78,1.93,15.82,48.43,1.14,14.59,47.55,0.78,18.12,57.18,1.99,18.63,57.09,3.53,22.36,57.44,1.12,18.61,57.09,2.16,19.31,57.09,1.21,17.09,57.26,0.0222,0.784,-0.0331,0.0569,0.7933,0.065,0.1008,0.8611,0.2658,0.0321,0.793,0.0888,0.0616,0.8056,0.2383,0.0345,0.7653,0.1244,0.019,0.078,0.071,0.006,0.071,0.143,0.006,0.227,0.136,0.006,0.052,0.071,0.006,0.709,0.24,0.006,0.123,0.156,0.0061,0.2792,0.813,0.0291,0.2899,0.8314,0.0598,0.3436,0.8007,0.0215,0.2915,0.8268,0.0353,0.273,0.8176,0.0153,0.247,0.8023,0.0062,0.0169,0.2925,0.0051,0.0129,0.2954,0.0066,0.1708,0.2716,-0.0034,0.0238,0.2999,0.0199,0.1072,0.2939,0.0296,0.0341,0.2937,0.4614,-0.0411,0.1659,0.0115,-0.0106,0.0215,0.7844,-0.0371,0.0573,0.7935,0.0605,0.1018,0.8577,0.2629,0.0323,0.7923,0.086,0.0617,0.8027,0.2361,0.033,0.7625,0.1233,0.0,0.0,0.0,0.0,0.0,0.0,0.0,0.0,0.0,
1.52,run,6.32,3.24,10.45,2.1,-3.09,0.0,0.0,0.0,0.709,0.62,16.26,49.48,1.76,16.96,50.27,3.34,20.13,48.96,1.23,17.05,50.19,1.93,15.82,49.75,1.14,14.59,48.87,0.77,18.09,58.68,1.98,18.62,58.59,3.48,22.56,58.94,1.12,18.63,58.59,2.12,19.5,58.59,1.26,17.23,58.76,0.0219,0.7835,-0.0293,0.0565,0.793,0.0695,0.0995,0.8647,0.2675,0.0321,0.7933,0.0921,0.0607,0.8091,0.239,0.0359,0.7679,0.1249,0.019,0.078,0.071,0.006,0.071,0.143,0.006,0.227,0.136,0.006,0.052,0.071,0.006,0.709,0.24,0.006,0.123,0.156,0.0061,0.2792,0.8376,0.0307,0.2884,0.8529,0.0614,0.3467,0.8253,0.0199,0.2915,0.8498,0.0353,0.273,0.8437,0.0184,0.25,0.8253,0.0044,0.0118,0.2966,0.0093,0.0033,0.2871,0.0103,0.1311,0.2819,-0.0081,0.0167,0.296,0.014,0.075,0.3033,0.0322,0.0354,0.2916,0.4812,-0.03,0.1214,0.044,-0.0069,0.0222,0.784,-0.0331,0.0569,0.7933,0.065,0.1008,0.8611,0.2658,0.0321,0.793,0.0888,0.0616,0.8056,0.2383,0.0345,0.7653,0.1244,0.0,0.0,0.0,0.0,0.0,0.0,0.0,0.0,0.0,
1.56,run,6.72,3.12,9.82,-3.33,0.75,0.0,0.0,0.0,0.838,0.62,16.26,50.8,1.76,16.88,51.59,3.43,20.21,50.19,1.23,17.05,51.59,1.93,15.82,51.15,1.14,14.59,50.27,0.85,18.11,60.18,1.98,18.62,60.09,3.47,22.63,60.44,1.12,18.62,60.09,2.18,19.5,60.09,1.33,17.28,60.26,0.0243,0.7838,-0.0284,0.0567,0.7931,0.0718,0.0992,0.866,0.2698,0.0319,0.7931,0.0943,0.0624,0.8091,0.2408,0.0381,0.7688,0.1271,0.006,0.091,0.123,0.006,0.078,0.149,0.0,0.351,0.208,0.0,0.071,0.136,0.013,0.838,0.182,0.006,0.221,0.143,0.0123,0.2777,0.8606,0.0307,0.2884,0.8759,0.0614,0.3497,0.8468,0.0199,0.2915,0.8744,0.0353,0.273,0.8667,0.0184,0.25,0.8483,0.0261,0.0025,0.294,0.0065,0.0023,0.2874,0.0072,0.1033,0.278,-0.0057,0.0117,0.2994,0.0098,0.0525,0.2988,0.0226,0.0247,0.2906,0.5163,-0.0241,0.1824,0.0366,-0.0539,0.0219,0.7835,-0.0293,0.0565,0.793,0.0695,0.0995,0.8647,0.2675,0.0321,0.7933,0.0921,0.0607,0.8091,0.239,0.0359,0.7679,0.1249,0.0,0.0,0.0,0.0,0.0,0.0,0.0,0.0,0.0,
1.6,run,7.11,3.1,9.02,-0.66,-1.74,0.0,0.0,0.0,0.838,0.62,16.26,52.12,1.85,16.88,52.91,3.43,20.21,51.42,1.32,17.05,52.91,1.93,15.82,52.65,1.14,14.59,51.77,0.88,17.99,61.68,1.99,18.56,61.59,3.5,22.5,61.94,1.13,18.61,61.59,2.26,19.38,61.59,1.41,17.34,61.76,0.025,0.7817,-0.0272,0.057,0.7919,0.0722,0.1,0.8636,0.2719,0.0323,0.7928,0.0934,0.0646,0.8068,0.2428,0.0402,0.7698,0.1262,0.006,0.091,0.123,0.006,0.078,0.149,0.0,0.351,0.208,0.0,0.071,0.136,0.013,0.838,0.182,0.006,0.221,0.143,0.0123,0.2777,0.8836,0.0307,0.2869,0.8989,0.0629,0.3513,0.8682,0.0199,0.2915,0.8989,0.0353,0.273,0.8912,0.0184,0.25,0.8728,0.0183,0.0018,0.2921,0.0046,-0.0041,0.2875,0.0108,0.078,0.2752,-0.004,0.0082,0.3017,0.0068,0.0368,0.3012,0.0158,0.0173,0.2955,0.5513,-0.0347,0.1713,-0.0581,0.0131,0.0243,0.7838,-0.0284,0.0567,0.7931,0.0718,0.0992,0.866,0.2698,0.0319,0.7931,0.0943,0.0624,0.8091,0.2408,0.0381,0.7688,0.1271,0.0,0.0,0.0,0.0,0.0,0.0,0.0,0.0,0.0,
1.64,run,7.41,3.14,7.55,1.32,-1.47,0.0,0.0,0.0,0.838,0.62,16.26,53.44,1.85,16.88,54.23,3.43,20.21,52.65,1.23,17.05,54.4,1.93,15.82,54.05,1.23,14.59,53.0,0.89,17.95,62.62,1.99,18.48,63.09,3.51,22.51,63.44,1.15,18.54,63.09,2.25,19.35,63.09,1.51,17.32,63.26,0.0254,0.7809,-0.0279,0.0568,0.7906,0.0736,0.1003,0.8639,0.2724,0.0329,0.7916,0.0942,0.0642,0.8064,0.2419,0.0431,0.7695,0.1261,0.006,0.091,0.123,0.006,0.078,0.149,0.0,0.351,0.208,0.0,0.071,0.136,0.013,0.838,0.182,0.006,0.221,0.143,0.0123,0.2777,0.9066,0.0322,0.2869,0.9219,0.0629,0.3513,0.8897,0.0215,0.2915,0.9219,0.0353,0.273,0.9173,0.0184,0.25,0.8989,0.0128,0.0012,0.2907,0.0089,-0.0029,0.2875,0.0076,0.0546,0.2731,0.003,0.0057,0.2974,0.0048,0.0257,0.3085,0.0111,0.0121,0.3045,0.5852,-0.0364,0.1575,-0.0115,-0.0303,0.025,0.7817,-0.0272,0.057,0.7919,0.0722,0.1,0.8636,0.2719,0.0323,0.7928,0.0934,0.0646,0.8068,0.2428,0.0402,0.7698,0.1262,0.0,0.0,0.0,0.0,0.0,0.0,0.0,0.0,0.0,
1.68,run,7.54,3.15,2.77,-0.1,-2.1,0.0,0.0,0.0,0.838,0.62,16.26,54.84,1.85,16.79,55.55,3.43,20.21,53.96,1.32,17.05,55.63,1.93,15.82,55.37,1.41,14.59,54.4,0.89,17.86,62.7,1.98,18.41,64.59,3.53,22.48,64.94,1.17,18.5,64.59,2.25,19.31,64.59,1.61,17.36,64.76,0.0255,0.7793,-0.0271,0.0566,0.7892,0.0748,0.1007,0.8633,0.273,0.0334,0.7908,0.0944,0.0644,0.8055,0.2416,0.046,0.7701,0.125,0.006,0.058,0.13,0.0,0.058,0.267,0.0,0.364,0.254,0.006,0.045,0.143,0.006,0.715,0.221,0.006,0.189,0.169,0.0123,0.2777,0.9296,0.0322,0.2869,0.9449,0.0629,0.3513,0.9112,0.0199,0.2915,0.948,0.0353,0.273,0.9419,0.0199,0.25,0.9204,0.009,0.0009,0.2899,0.0063,-0.002,0.2876,0.0053,0.0382,0.2718,-0.0037,0.004,0.3061,0.0034,0.018,0.3082,0.0135,0.0085,0.2938,0.6116,-0.033,0.1318,0.023,-0.0257,0.0254,0.7809,-0.0279,0.0568,0.7906,0.0736,0.1003,0.8639,0.2724,0.0329,0.7916,0.0942,0.0642,0.8064,0.2419,0.0431,0.7695,0.1261,0.0,0.0,0.0,0.0,0.0,0.0,0.0,0.0,0.0,
1.72,run,7.65,3.21,3.01,1.15,-1.99,0.0,0.0,0.0,0.838,0.62,16.17,56.25,1.85,16.79,56.95,3.43,20.21,55.28,1.23,16.96,57.04,1.93,15.82,56.78,1.49,14.59,55.72,0.83,17.75,62.89,1.93,18.36,66.09,3.44,22.55,66.44,1.21,18.49,66.09,2.2,19.38,66.09,1.58,17.47,66.26,0.0238,0.7773,-0.0248,0.0552,0.7884,0.0766,0.0984,0.8645,0.2732,0.0344,0.7907,0.0948,0.0629,0.8068,0.2407,0.045,0.7722,0.1242,0.006,0.058,0.13,0.0,0.058,0.267,0.0,0.364,0.254,0.006,0.045,0.143,0.006,0.715,0.221,0.006,0.189,0.169,0.0123,0.2777,0.9541,0.0322,0.2853,0.9679,0.0629,0.3513,0.9342,0.0215,0.2915,0.9695,0.0353,0.273,0.9649,0.023,0.25,0.9449,0.0063,0.0006,0.2948,0.0044,-0.0072,0.2875,0.0037,0.0268,0.2764,0.0032,0.0028,0.2946,0.0023,0.0126,0.3018,0.0209,0.0059,0.2975,0.6224,-0.0316,0.0484,-0.0018,-0.0366,0.0255,0.7793,-0.0271,0.0566,0.7892,0.0748,0.1007,0.8633,0.273,0.0334,0.7908,0.0944,0.0644,0.8055,0.2416,0.046,0.7701,0.125,0.0,0.0,0.0,0.0,0.0,0.0,0.0,0.0,0.0,
1.76,run,7.72,3.39,1.77,4.94,-2.49,0.0,0.0,0.0,0.838,0.62,16.17,57.57,1.85,16.79,58.27,3.43,20.21,56.69,1.23,16.96,58.45,1.93,15.82,58.18,1.49,14.59,57.04,0.83,17.68,62.98,1.92,18.3,67.59,3.44,22.52,67.94,1.23,18.46,67.59,2.2,19.33,67.59,1.61,17.51,67.76,0.0238,0.7761,-0.0237,0.0548,0.7873,0.0779,0.0982,0.864,0.2735,0.0351,0.7902,0.0952,0.063,0.8061,0.2405,0.0461,0.773,0.1237,0.006,0.058,0.13,0.0,0.058,0.267,0.0,0.364,0.254,0.006,0.045,0.143,0.006,0.715,0.221,0.006,0.189,0.169,0.0123,0.2761,0.9787,0.0322,0.2853,0.9925,0.0629,0.3513,0.9572,0.0199,0.2899,0.994,0.0353,0.273,0.9894,0.0245,0.25,0.9679,0.0044,-0.0053,0.2982,0.0031,-0.005,0.2931,0.0026,0.0187,0.2796,-0.0035,-0.0038,0.2981,0.0016,0.0088,0.3031,0.0204,0.0042,0.2944,0.6328,-0.0268,0.0525,0.0201,-0.0347,0.0238,0.7773,-0.0248,0.0552,0.7884,0.0766,0.0984,0.8645,0.2732,0.0344,0.7907,0.0948,0.0629,0.8068,0.2407,0.045,0.7722,0.1242,0.0,0.0,0.0,0.0,0.0,0.0,0.0,0.0,0.0,
1.8,run,7.7,3.41,-0.37,0.92,-3.29,0.0,0.0,0.0,0.838,0.62,16.17,58.89,1.85,16.79,59.68,3.43,20.21,58.18,1.32,16.96,59.94,1.93,15.82,59.59,1.41,14.59,58.45,0.8,17.61,63.13,1.89,18.22,69.09,3.41,22.53,69.44,1.25,18.42,69.09,2.16,19.35,69.09,1.65,17.57,69.26,0.0229,0.7748,-0.022,0.054,0.7859,0.0801,0.0975,0.8641,0.2738,0.0358,0.7894,0.0963,0.0616,0.8063,0.2397,0.0471,0.7739,0.123,0.006,0.058,0.111,0.0,0.052,0.267,0.0,0.384,0.267,0.0,0.071,0.117,0.006,0.656,0.319,0.013,0.26,0.201,0.0123,0.2761,1.0017,0.0322,0.2853,1.0155,0.0629,0.3513,0.9817,0.0199,0.2899,1.0186,0.0353,0.273,1.014,0.0245,0.25,0.991,0.0031,-0.0037,0.2953,0.0021,-0.0035,0.2917,0.0018,0.0131,0.288,-0.0025,-0.0026,0.301,0.0011,0.0062,0.3045,0.0143,0.0029,0.2926,0.6381,-0.011,0.0309,0.0863,-0.0434,0.0238,0.7761,-0.0237,0.0548,0.7873,0.0779,0.0982,0.864,0.2735,0.0351,0.7902,0.0952,0.063,0.8061,0.2405,0.0461,0.773,0.1237,0.0,0.0,0.0,0.0,0.0,0.0,0.0,0.0,0.0,
1.84,run,7.67,3.48,-1.64,1.38,-2.52,0.0,0.0,0.0,0.838,0.62,16.17,59.94,1.85,16.79,61.17,3.43,20.21,59.59,1.32,16.96,61.44,1.93,15.82,61.17,1.49,14.59,60.03,0.74,17.48,63.35,1.82,18.15,70.59,3.32,22.53,70.94,1.3,18.41,70.59,2.11,19.37,70.59,1.56,17.68,70.76,0.0212,0.7723,-0.0194,0.052,0.7846,0.0817,0.0947,0.8642,0.2738,0.0371,0.7893,0.0961,0.0604,0.8067,0.239,0.0447,0.776,0.1224,0.006,0.058,0.111,0.0,0.052,0.267,0.0,0.384,0.267,0.0,0.071,0.117,0.006,0.656,0.319,0.013,0.26,0.201,0.0123,0.2761,1.0247,0.0322,0.2853,1.04,0.0629,0.3513,1.0078,0.0215,0.2899,1.0446,0.0353,0.273,1.0385,0.023,0.25,1.0155,0.0022,-0.0026,0.293,0.0015,-0.0025,0.2963,0.0013,0.0092,0.2994,0.004,-0.0019,0.3085,0.0008,0.0043,0.3052,0.0042,0.002,0.2969,0.6371,-0.0093,-0.0065,0.0161,-0.0574,0.0229,0.7748,-0.022,0.054,0.7859,0.0801,0.0975,0.8641,0.2738,0.0358,0.7894,0.0963,0.0616,0.8063,0.2397,0.0471,0.7739,0.123,0.0,0.0,0.0,0.0,0.0,0.0,0.0,0.0,0.0,
1.88,run,7.56,3.49,-3.5,0.67,-3.44,0.0,0.0,0.0,0.838,0.53,16.17,60.82,1.85,16.79,62.67,3.43,20.21,61.08,1.32,16.96,62.93,1.93,15.82,62.67,1.41,14.85,61.44,0.68,17.36,63.5,1.78,18.07,72.05,3.27,22.49,72.44,1.33,18.39,72.09,2.07,19.35,72.09,1.55,17.74,72.26,0.0195,0.7703,-0.0177,0.0508,0.7831,0.0829,0.0936,0.8635,0.2737,0.0381,0.789,0.0959,0.0592,0.8063,0.2382,0.0444,0.7771,0.121,0.006,0.058,0.111,0.0,0.052,0.267,0.0,0.384,0.267,0.0,0.071,0.117,0.006,0.656,0.319,0.013,0.26,0.201,0.0123,0.2761,1.0431,0.0322,0.2853,1.0661,0.0629,0.3513,1.0324,0.0215,0.2899,1.0707,0.0353,0.273,1.0661,0.0245,0.25,1.0431,0.0015,-0.0018,0.2741,0.0011,-0.0017,0.3051,0.0009,0.0064,0.3016,0.0028,-0.0013,0.3137,0.0006,0.003,0.3171,0.0087,0.0014,0.3113,0.634,-0.0036,-0.0286,0.0241,-0.0439,0.0212,0.7723,-0.0194,0.052,0.7846,0.0817,0.0947,0.8642,0.2738,0.0371,0.7893,0.0961,0.0604,0.8067,0.239,0.0447,0.776,0.1224,0.0,0.0,0.0,0.0,0.0,0.0,0.0,0.0,0.0,
1.92,run,7.49,3.46,-2.04,-0.88,-3.95,0.0,0.0,0.0,0.838,0.53,16.17,61.52,1.85,16.79,64.16,3.43,20.21,62.58,1.32,16.96,64.42,1.93,15.82,64.16,1.41,15.12,62.84,0.62,17.27,63.7,1.72,18.0,72.25,3.19,22.55,73.94,1.37,18.38,73.23,2.0,19.44,73.59,1.48,17.82,73.76,0.0176,0.7685,-0.0153,0.0492,0.7818,0.0853,0.091,0.8646,0.2732,0.0392,0.7887,0.0968,0.0571,0.808,0.2369,0.0422,0.7785,0.1207,0.006,0.026,0.052,0.0,0.033,0.189,0.006,0.442,0.214,0.0,0.052,0.071,0.0,0.728,0.195,0.0,0.208,0.175,0.0107,0.2761,1.0584,0.0322,0.2853,1.0922,0.0629,0.3513,1.0584,0.0215,0.2899,1.0968,0.0353,0.273,1.0922,0.023,0.2546,1.0677,-0.0047,-0.0013,0.2494,0.0007,-0.0012,0.3113,0.0006,0.0045,0.3088,0.002,-0.0009,0.3173,0.0004,0.0021,0.3197,0.0004,0.0182,0.3099,0.6245,-0.0025,-0.0611,0.0117,-0.06,0.0195,0.7703,-0.0177,0.0508,0.7831,0.0829,0.0936,0.8635,0.2737,0.0381,0.789,0.0959,0.0592,0.8063,0.2382,0.0444,0.7771,0.121,0.0,0.0,0.0,0.0,0.0,0.0,0.0,0.0,0.0,
1.96,run,7.43,3.49,-2.29,0.5,-2.08,0.0,0.0,0.0,0.838,0.53,16.17,61.96,1.85,16.79,65.65,3.43,20.21,64.07,1.32,16.96,65.83,1.85,15.82,65.65,1.41,15.12,64.34,0.58,17.19,63.9,1.68,17.94,72.42,3.12,22.6,75.44,1.4,18.38,73.31,1.97,19.49,75.09,1.41,17.88,75.26,0.0165,0.767,-0.013,0.048,0.7808,0.0873,0.0891,0.8654,0.2728,0.0401,0.7887,0.0977,0.0562,0.8089,0.2365,0.0403,0.7797,0.1209,0.006,0.026,0.052,0.0,0.033,0.189,0.006,0.442,0.214,0.0,0.052,0.071,0.0,0.728,0.195,0.0,0.208,0.175,0.0107,0.2761,1.0707,0.0322,0.2853,1.1183,0.0629,0.3513,1.0845,0.0215,0.2899,1.1229,0.0353,0.273,1.1183,0.023,0.2592,1.0922,-0.0033,-0.0009,0.2206,0.0005,-0.0008,0.3158,0.0004,0.0031,0.3141,0.0014,-0.0006,0.32,0.0003,0.0015,0.3217,0.0002,0.03,0.3091,0.618,-0.0051,-0.0356,-0.0154,-0.069,0.0176,0.7685,-0.0153,0.0492,0.7818,0.0853,0.091,0.8646,0.2732,0.0392,0.7887,0.0968,0.0571,0.808,0.2369,0.0422,0.7785,0.1207,0.0,0.0,0.0,0.0,0.0,0.0,0.0,0.0,0.0,
2.0,run,7.44,3.67,0.33,4.06,-2.56,0.0,0.0,0.0,0.838,0.53,16.17,62.31,1.85,16.79,67.15,3.43,20.21,65.57,1.32,16.96,67.24,1.85,15.91,67.06,1.32,15.12,65.74,0.53,17.09,63.99,1.66,17.86,72.49,3.1,22.51,76.94,1.43,18.34,73.28,1.94,19.43,76.59,1.43,17.89,75.17,0.0153,0.7653,-0.0119,0.0474,0.7792,0.0881,0.0886,0.8638,0.2727,0.0408,0.7881,0.0974,0.0554,0.8079,0.236,0.0409,0.7799,0.1197,0.006,0.026,0.052,0.0,0.033,0.189,0.006,0.442,0.214,0.0,0.052,0.071,0.0,0.728,0.195,0.0,0.208,0.175,0.0107,0.2761,1.0784,0.0322,0.2853,1.1443,0.0629,0.3513,1.1106,0.0215,0.2899,1.1474,0.0337,0.273,1.1443,0.023,0.2592,1.1183,-0.0023,-0.0006,0.1832,0.0004,-0.0006,0.3187,0.0003,0.0022,0.3175,0.001,-0.0004,0.3159,-0.0056,0.001,0.3229,0.0002,0.021,0.314,0.6134,-0.0023,-0.04,0.0087,-0.0363,0.0165,0.767,-0.013,0.048,0.7808,0.0873,0.0891,0.8654,0.2728,0.0401,0.7887,0.0977,0.0562,0.8089,0.2365,0.0403,0.7797,0.1209,0.0,0.0,0.0,0.0,0.0,0.0,0.0,0.0,0.0,
2.04,run,7.37,3.76,-2.11,2.86,-2.01,0.0,0.0,0.0,0.838,0.62,16.17,62.58,1.85,16.79,68.38,3.43,20.21,66.97,1.32,16.96,68.82,1.76,15.91,68.47,1.32,15.12,67.06,0.52,17.03,64.09,1.63,17.77,72.61,3.09,22.45,78.44,1.45,18.3,73.32,1.91,19.39,78.09,1.47,17.88,75.15,0.0148,0.7641,-0.0107,0.0467,0.7776,0.0896,0.0882,0.8628,0.2728,0.0414,0.7873,0.0979,0.0545,0.8071,0.2358,0.042,0.7796,0.1195,0.006,0.026,0.045,0.0,0.026,0.149,0.0,0.331,0.26,0.0,0.045,0.111,0.006,0.741,0.214,0.006,0.182,0.208,0.0107,0.2761,1.0845,0.0322,0.2853,1.1704,0.0629,0.3513,1.1367,0.0215,0.2899,1.172,0.0337,0.2746,1.1689,0.0215,0.2592,1.1428,-0.0016,-0.0004,0.1512,0.0003,-0.0004,0.3208,0.0002,0.0015,0.3199,0.0007,-0.0003,0.3131,-0.0039,0.0065,0.3179,-0.0056,0.0147,0.3117,0.6142,0.013,0.0057,0.0708,-0.0447,0.0153,0.7653,-0.0119,0.0474,0.7792,0.0881,0.0886,0.8638,0.2727,0.0408,0.7881,0.0974,0.0554,0.8079,0.236,0.0409,0.7799,0.1197,0.0,0.0,0.0,0.0,0.0,0.0,0.0,0.0,0.0,
2.08,run,7.43,3.8,1.63,1.08,-3.64,0.0,0.0,0.0,0.838,0.7,16.17,62.67,1.85,16.7,69.43,3.43,20.21,68.29,1.32,16.96,70.05,1.85,15.91,69.79,1.41,15.12,68.47,0.44,16.91,64.28,1.59,17.7,72.73,3.02,22.45,79.94,1.47,18.31,73.29,1.84,19.45,79.59,1.45,17.94,75.08,0.0126,0.762,-0.0085,0.0454,0.7764,0.0909,0.0863,0.8628,0.2732,0.0419,0.7874,0.0975,0.0526,0.8081,0.2352,0.0413,0.7808,0.1186,0.006,0.026,0.045,0.0,0.026,0.149,0.0,0.331,0.26,0.0,0.045,0.111,0.006,0.741,0.214,0.006,0.182,0.208,0.0123,0.2761,1.0891,0.0322,0.2853,1.1919,0.0629,0.3513,1.1612,0.0215,0.2899,1.1996,0.0322,0.2746,1.1934,0.0215,0.2592,1.1658,0.0046,-0.0003,0.1231,0.0002,-0.0003,0.3054,0.0001,0.0011,0.3163,0.0005,-0.0002,0.323,-0.0085,0.0045,0.3149,-0.0039,0.0103,0.3048,0.6077,0.0216,-0.0368,0.0499,-0.035,0.0148,0.7641,-0.0107,0.0467,0.7776,0.0896,0.0882,0.8628,0.2728,0.0414,0.7873,0.0979,0.0545,0.8071,0.2358,0.042,0.7796,0.1195,0.0,0.0,0.0,0.0,0.0,0.0,0.0,0.0,0.0,
2.12,run,7.4,3.93,-0.76,3.56,-4.2,0.0,0.0,0.0,0.838,0.53,16.17,62.75,1.85,16.7,70.31,3.34,20.21,69.61,1.32,16.96,71.1,1.67,15.91,71.19,1.32,15.12,69.7,0.41,16.85,64.41,1.55,17.67,72.82,2.96,22.51,81.44,1.49,18.33,73.3,1.82,19.49,81.09,1.41,17.98,75.11,0.0118,0.7609,-0.007,0.0444,0.7758,0.092,0.0847,0.8637,0.2731,0.0427,0.7877,0.0977,0.052,0.809,0.2355,0.0402,0.7814,0.1189,0.006,0.026,0.045,0.0,0.026,0.149,0.0,0.331,0.26,0.0,0.045,0.111,0.006,0.741,0.214,0.006,0.182,0.208,0.0138,0.2761,1.0907,0.0322,0.2838,1.2103,0.0629,0.3513,1.1842,0.0215,0.2899,1.221,0.0337,0.2746,1.2164,0.023,0.2592,1.1904,0.009,-0.0002,0.0919,0.0001,-0.0059,0.2826,0.0001,0.0008,0.3075,0.0003,-0.0002,0.3065,-0.0002,0.0032,0.3066,0.003,0.0072,0.3052,0.613,0.025,0.0284,0.0189,-0.0635,0.0126,0.762,-0.0085,0.0454,0.7764,0.0909,0.0863,0.8628,0.2732,0.0419,0.7874,0.0975,0.0526,0.8081,0.2352,0.0413,0.7808,0.1186,0.0,0.0,0.0,0.0,0.0,0.0,0.0,0.0,0.0,
2.16,run,7.48,3.81,2.95,-2.58,-2.95,0.0,0.0,0.0,0.838,0.7,16.17,63.02,1.85,16.7,70.93,3.34,20.21,71.02,1.32,16.96,71.89,1.67,15.91,72.6,1.32,15.12,70.93,0.36,16.79,64.45,1.54,17.6,72.94,2.94,22.51,82.94,1.5,18.31,73.33,1.76,19.56,82.59,1.44,17.97,75.05,0.0101,0.7599,-0.0065,0.044,0.7746,0.0934,0.0839,0.8639,0.2737,0.0428,0.7874,0.098,0.0504,0.8102,0.2353,0.041,0.7813,0.1182,0.006,0.013,0.033,0.006,0.019,0.208,0.006,0.338,0.247,0.0,0.058,0.039,0.0,0.819,0.299,0.0,0.24,0.169,0.0107,0.2761,1.0922,0.0322,0.2838,1.2257,0.0614,0.3513,1.2072,0.0215,0.2899,1.2395,0.0307,0.2746,1.241,0.0215,0.2592,1.2118,-0.0052,-0.0002,0.0701,0.0001,-0.0042,0.2554,-0.0057,0.0005,0.3016,0.0002,-0.0001,0.2836,-0.0117,0.0022,0.3067,-0.0037,0.005,0.2942,0.611,0.0363,-0.0133,0.0622,-0.0734,0.0118,0.7609,-0.007,0.0444,0.7758,0.092,0.0847,0.8637,0.2731,0.0427,0.7877,0.0977,0.052,0.809,0.2355,0.0402,0.7814,0.1189,0.0,0.0,0.0,0.0,0.0,0.0,0.0,0.0,0.0,
2.2,run,7.33,3.87,-3.66,0.03,-2.49,0.0,0.0,0.0,0.838,0.53,16.17,63.28,1.85,16.7,71.19,3.34,20.21,72.42,1.41,17.05,72.42,1.58,15.91,74.09,1.32,15.12,71.89,0.33,16.72,64.56,1.51,17.58,72.96,2.9,22.51,84.44,1.51,18.33,73.29,1.78,19.56,84.09,1.38,18.02,75.05,0.0093,0.7585,-0.0052,0.0432,0.7741,0.0937,0.0828,0.8638,0.2739,0.0432,0.7878,0.0975,0.051,0.8101,0.236,0.0395,0.7821,0.1182,0.006,0.013,0.033,0.006,0.019,0.208,0.006,0.338,0.247,0.0,0.058,0.039,0.0,0.819,0.299,0.0,0.24,0.169,0.0138,0.2761,1.0968,0.0322,0.2838,1.2364,0.0614,0.3513,1.2318,0.0215,0.2899,1.2533,0.0307,0.2746,1.2655,0.0215,0.2592,1.2333,0.0079,-0.0001,0.0664,0.0001,-0.0029,0.2191,-0.004,0.0004,0.3033,0.0002,-0.0001,0.2504,-0.0082,0.0016,0.3068,-0.0026,0.0035,0.2866,0.6175,0.0256,0.0516,-0.0451,-0.0515,0.0101,0.7599,-0.0065,0.044,0.7746,0.0934,0.0839,0.8639,0.2737,0.0428,0.7874,0.098,0.0504,0.8102,0.2353,0.041,0.7813,0.1182,0.0,0.0,0.0,0.0,0.0,0.0,0.0,0.0,0.0,
2.24,run,7.59,4.07,6.73,6.29,-2.87,0.0,0.0,0.0,0.838,0.44,16.17,63.37,1.85,16.7,71.46,3.34,20.21,73.92,1.41,17.14,72.6,1.58,15.91,75.59,1.32,15.12,72.6,0.22,16.69,64.61,1.5,17.55,73.18,2.84,22.64,85.94,1.49,18.34,73.42,1.68,19.81,85.03,1.36,18.04,75.01,0.0063,0.758,-0.0045,0.043,0.7736,0.0963,0.0812,0.8662,0.2747,0.0427,0.7879,0.099,0.0479,0.8146,0.2356,0.0389,0.7825,0.1177,0.006,0.013,0.033,0.006,0.019,0.208,0.006,0.338,0.247,0.0,0.058,0.039,0.0,0.819,0.299,0.0,0.24,0.169,0.0107,0.2761,1.1014,0.0322,0.2838,1.241,0.0614,0.3513,1.2563,0.023,0.2915,1.2625,0.0291,0.2746,1.2916,0.0215,0.2592,1.2502,-0.006,-0.0001,0.0637,0.0,-0.002,0.1706,-0.0028,0.0003,0.3043,0.0059,0.0057,0.2098,-0.0115,0.0011,0.3126,-0.0018,0.0025,0.2639,0.6046,0.0311,-0.0638,0.0005,-0.0435,0.0093,0.7585,-0.0052,0.0432,0.7741,0.0937,0.0828,0.8638,0.2739,0.0432,0.7878,0.0975,0.051,0.8101,0.236,0.0395,0.7821,0.1182,0.0,0.0,0.0,0.0,0.0,0.0,0.0,0.0,0.0,
2.28,run,7.68,3.92,2.75,-4.74,-3.62,0.0,0.0,0.0,0.838,0.44,16.17,63.37,1.85,16.7,71.72,3.34,20.21,75.32,1.32,17.31,72.69,1.58,16.52,77.08,1.32,15.12,72.86,0.29,16.73,64.73,1.52,17.51,73.37,2.92,22.71,87.44,1.48,18.29,73.67,1.72,19.83,85.27,1.47,17.98,75.12,0.0081,0.7587,-0.0032,0.0434,0.773,0.0984,0.0834,0.8674,0.2754,0.0422,0.7872,0.102,0.0492,0.815,0.2384,0.0419,0.7815,0.119,0.006,0.013,0.045,0.006,0.019,0.111,0.006,0.403,0.234,0.006,0.026,0.033,0.006,0.422,0.273,0.006,0.254,0.091,0.0092,0.2761,1.1029,0.0322,0.2838,1.2456,0.0614,0.3513,1.2824,0.023,0.293,1.2655,0.0291,0.2746,1.3177,0.0215,0.2592,1.2625,-0.01,-0.0001,0.0504,0.0,-0.0014,0.1368,-0.0019,0.0002,0.3111,0.0041,0.0098,0.1584,-0.008,0.0008,0.3169,-0.0013,0.0017,0.2309,0.6275,0.0482,0.1175,0.1099,-0.0501,0.0063,0.758,-0.0045,0.043,0.7736,0.0963,0.0812,0.8662,0.2747,0.0427,0.7879,0.099,0.0479,0.8146,0.2356,0.0389,0.7825,0.1177,0.0,0.0,0.0,0.0,0.0,0.0,0.0,0.0,0.0,
2.32,run,7.9,4.23,5.33,5.73,-4.49,0.0,0.0,0.0,0.838,0.44,16.26,63.46,1.85,16.7,71.98,3.34,20.21,76.64,1.41,17.4,73.04,1.67,17.23,78.49,1.41,15.21,73.12,0.17,16.63,64.95,1.44,17.57,73.52,2.82,22.97,88.54,1.46,18.39,73.74,1.68,20.12,85.35,1.37,18.09,75.21,0.0048,0.757,-0.0006,0.0412,0.7739,0.1003,0.0805,0.8723,0.277,0.0416,0.789,0.1028,0.0479,0.8204,0.2394,0.0391,0.7834,0.1201,0.006,0.013,0.045,0.006,0.019,0.111,0.006,0.403,0.234,0.006,0.026,0.033,0.006,0.422,0.273,0.006,0.254,0.091,0.0092,0.2761,1.1029,0.0322,0.2838,1.2502,0.0614,0.3513,1.307,0.0215,0.2961,1.2671,0.0291,0.2853,1.3438,0.0215,0.2592,1.2671,-0.007,-0.0,0.0353,0.0,-0.001,0.1129,-0.0014,0.0001,0.3096,-0.0029,0.0183,0.1166,-0.0056,0.0407,0.3193,-0.0009,0.0012,0.1788,0.635,0.0356,0.048,-0.0828,-0.0632,0.0081,0.7587,-0.0032,0.0434,0.773,0.0984,0.0834,0.8674,0.2754,0.0422,0.7872,0.102,0.0492,0.815,0.2384,0.0419,0.7815,0.119,0.0,0.0,0.0,0.0,0.0,0.0,0.0,0.0,0.0,
2.36,run,7.98,4.44,1.97,5.36,-4.2,0.0,0.0,0.0,0.838,0.44,16.26,63.72,1.85,16.7,72.16,3.34,20.21,78.05,1.41,17.49,73.3,1.49,17.23,79.89,1.32,15.47,73.12,0.18,16.68,65.02,1.47,17.57,73.71,2.9,23.09,88.7,1.41,18.37,73.98,1.65,20.25,85.53,1.55,18.04,75.26,0.005,0.7577,0.0002,0.0421,0.7739,0.1025,0.0828,0.8744,0.2788,0.0403,0.7885,0.1056,0.0471,0.8227,0.2415,0.0443,0.7826,0.1207,0.006,0.013,0.045,0.006,0.019,0.111,0.006,0.403,0.234,0.006,0.026,0.033,0.006,0.422,0.273,0.006,0.254,0.091,0.0092,0.2777,1.1045,0.0322,0.2838,1.2548,0.0614,0.3513,1.33,0.023,0.2976,1.2732,0.0307,0.2976,1.3683,0.023,0.2608,1.2717,-0.0049,0.0058,0.0305,0.0,-0.0007,0.0964,-0.001,0.0001,0.3035,0.0038,0.0186,0.1048,0.0019,0.0748,0.3161,0.0052,0.0066,0.1425,0.6541,0.0621,0.093,0.1,-0.0784,0.0048,0.757,-0.0006,0.0412,0.7739,0.1003,0.0805,0.8723,0.277,0.0416,0.789,0.1028,0.0479,0.8204,0.2394,0.0391,0.7834,0.1201,0.0,0.0,0.0,0.0,0.0,0.0,0.0,0.0,0.0,
2.4,run,8.13,4.64,5.34,4.32,-2.13,0.0,0.0,0.0,0.838,0.44,16.26,63.9,1.85,16.7,72.16,3.34,20.21,79.45,1.32,17.58,73.56,1.58,17.23,81.3,1.41,15.47,73.12,0.12,16.68,65.37,1.46,17.63,74.1,2.86,23.43,88.89,1.36,18.43,74.36,1.6,20.62,85.75,1.52,18.14,75.46,0.0036,0.7579,0.0044,0.0416,0.7751,0.1071,0.0818,0.8806,0.2811,0.0389,0.7896,0.1101,0.0457,0.8295,0.2442,0.0434,0.7844,0.1231,0.013,0.006,0.033,0.006,0.026,0.182,0.006,0.604,0.273,0.0,0.019,0.019,0.0,0.559,0.195,0.006,0.214,0.123,0.0092,0.2777,1.1091,0.0322,0.2838,1.2579,0.0614,0.3513,1.3545,0.023,0.2991,1.2778,0.0276,0.2976,1.3929,0.0215,0.2654,1.2717,-0.0034,0.004,0.0385,0.0,-0.0005,0.0789,-0.0007,0.0001,0.3038,0.0026,0.0187,0.0905,-0.0101,0.0523,0.3127,-0.0021,0.0218,0.0998,0.6609,0.0802,0.0344,0.0936,-0.0734,0.005,0.7577,0.0002,0.0421,0.7739,0.1025,0.0828,0.8744,0.2788,0.0403,0.7885,0.1056,0.0471,0.8227,0.2415,0.0443,0.7826,0.1207,0.0,0.0,0.0,0.0,0.0,0.0,0.0,0.0,0.0,
2.44,run,8.08,4.82,-1.4,5.16,-4.98,0.0,0.0,0.0,0.838,0.44,16.26,64.16,1.76,16.7,72.6,3.34,20.13,80.77,1.32,17.75,73.83,1.49,17.31,82.44,1.41,15.47,73.3,0.1,16.7,65.74,1.43,17.7,74.39,2.87,23.71,89.05,1.32,18.52,74.63,1.6,20.9,86.07,1.53,18.26,75.57,0.003,0.7581,0.0087,0.0409,0.7764,0.1104,0.0821,0.8857,0.2829,0.0376,0.7912,0.1133,0.0458,0.8345,0.2479,0.0438,0.7865,0.1244,0.013,0.006,0.033,0.006,0.026,0.182,0.006,0.604,0.273,0.0,0.019,0.019,0.0,0.559,0.195,0.006,0.214,0.123,0.0092,0.2777,1.1121,0.0322,0.2838,1.2579,0.0614,0.3513,1.379,0.0215,0.3007,1.2824,0.0291,0.2976,1.4174,0.023,0.2654,1.2717,-0.0024,0.0028,0.0384,0.0,-0.0003,0.0552,-0.0005,0.0,0.3046,-0.0039,0.0189,0.0806,-0.0013,0.0366,0.3108,0.0043,0.0152,0.0698,0.6744,0.0978,0.0933,0.0755,-0.0373,0.0036,0.7579,0.0044,0.0416,0.7751,0.1071,0.0818,0.8806,0.2811,0.0389,0.7896,0.1101,0.0457,0.8295,0.2442,0.0434,0.7844,0.1231,0.0,0.0,0.0,0.0,0.0,0.0,0.0,0.0,0.0,
2.48,run,8.17,5.0,2.5,4.27,-3.11,0.0,0.0,0.0,0.838,0.44,16.26,64.34,1.76,16.7,72.86,3.34,20.3,82.27,1.32,18.02,74.09,1.41,17.31,83.41,1.41,15.47,73.65,0.03,16.74,65.98,1.42,17.78,74.78,2.8,24.14,89.23,1.27,18.6,75.0,1.5,21.36,86.2,1.46,18.36,75.78,0.0009,0.7589,0.0115,0.0404,0.7778,0.1151,0.08,0.8934,0.2851,0.0363,0.7927,0.1177,0.043,0.8428,0.2494,0.0418,0.7883,0.1268,0.013,0.006,0.033,0.006,0.026,0.182,0.006,0.604,0.273,0.0,0.019,0.019,0.0,0.559,0.195,0.006,0.214,0.123,0.0092,0.2777,1.1167,0.0307,0.2838,1.2655,0.0614,0.3497,1.4021,0.0215,0.3037,1.287,0.0276,0.2991,1.4373,0.023,0.2654,1.2747,-0.0017,0.002,0.0442,-0.0058,-0.0002,0.0675,-0.0003,-0.0057,0.2996,-0.0027,0.0247,0.0737,-0.0067,0.0314,0.2924,0.003,0.0107,0.0604,0.6697,0.1136,-0.0244,0.0901,-0.087,0.003,0.7581,0.0087,0.0409,0.7764,0.1104,0.0821,0.8857,0.2829,0.0376,0.7912,0.1133,0.0458,0.8345,0.2479,0.0438,0.7865,0.1244,0.0,0.0,0.0,0.0,0.0,0.0,0.0,0.0,0.0,
2.52,run,8.1,5.27,-2.07,6.92,-4.07,0.0,0.0,0.0,0.903,0.44,16.26,64.69,1.76,16.7,73.21,3.34,20.92,83.58,1.32,18.19,74.53,1.41,17.31,84.11,1.41,15.47,73.83,0.03,16.74,66.28,1.4,17.83,74.97,2.82,24.3,89.37,1.25,18.66,75.2,1.53,21.48,86.47,1.46,18.46,75.84,0.0008,0.7589,0.0151,0.0399,0.7788,0.1173,0.0805,0.8963,0.2867,0.0358,0.7938,0.12,0.0437,0.8452,0.2525,0.0418,0.7902,0.1275,0.006,0.006,0.045,0.006,0.033,0.149,0.013,0.572,0.24,0.0,0.006,0.019,0.0,0.903,0.227,0.0,0.254,0.149,0.0092,0.2777,1.1198,0.0307,0.2838,1.2701,0.0614,0.3528,1.4281,0.0215,0.3083,1.2916,0.0261,0.2991,1.4542,0.023,0.2654,1.2809,-0.0012,0.0014,0.0424,-0.004,-0.0002,0.0645,-0.0002,0.0075,0.3076,-0.0019,0.0346,0.0688,-0.0104,0.022,0.268,0.0021,0.0075,0.0653,0.6774,0.1296,0.0437,0.0745,-0.0543,0.0009,0.7589,0.0115,0.0404,0.7778,0.1151,0.08,0.8934,0.2851,0.0363,0.7927,0.1177,0.043,0.8428,0.2494,0.0418,0.7883,0.1268,0.0,0.0,0.0,0.0,0.0,0.0,0.0,0.0,0.0,
2.56,run,8.05,5.35,-2.19,2.35,-3.85,0.0,0.0,0.0,0.903,0.18,16.26,64.95,1.76,16.7,73.65,3.34,21.01,84.73,1.32,18.19,74.88,1.41,17.31,84.64,1.41,15.47,74.09,-0.01,16.76,66.55,1.37,17.88,75.3,2.79,24.56,89.55,1.22,18.71,75.5,1.46,21.78,86.59,1.43,18.56,75.99,-0.0004,0.7593,0.0183,0.0391,0.7797,0.1212,0.0796,0.901,0.2888,0.0349,0.7948,0.1235,0.0418,0.8505,0.254,0.0409,0.792,0.1293,0.006,0.006,0.045,0.006,0.033,0.149,0.013,0.572,0.24,0.0,0.006,0.019,0.0,0.903,0.227,0.0,0.254,0.149,0.0092,0.2777,1.1259,0.0307,0.2838,1.2763,0.0614,0.3636,1.4511,0.0215,0.3114,1.2993,0.0261,0.2991,1.4665,0.023,0.2654,1.2839,-0.0008,0.001,0.0527,-0.0028,-0.0001,0.0682,-0.0002,0.0455,0.3016,-0.0013,0.0357,0.077,-0.0073,0.0154,0.2337,0.0015,0.0052,0.0572,0.6714,0.1534,-0.0361,0.1208,-0.0711,0.0008,0.7589,0.0151,0.0399,0.7788,0.1173,0.0805,0.8963,0.2867,0.0358,0.7938,0.12,0.0437,0.8452,0.2525,0.0418,0.7902,0.1275,0.0,0.0,0.0,0.0,0.0,0.0,0.0,0.0,0.0,
2.6,run,8.09,5.36,2.84,-0.45,-2.2,0.0,0.0,0.0,0.903,0.18,16.26,65.21,1.76,16.7,73.83,3.34,21.09,85.61,1.32,18.19,75.15,1.41,17.67,85.08,1.41,15.47,74.18,-0.04,16.77,66.81,1.35,17.95,75.51,2.73,24.78,89.64,1.2,18.8,75.66,1.46,21.99,86.75,1.35,18.68,76.07,-0.0011,0.7594,0.0213,0.0385,0.7809,0.1236,0.0779,0.9052,0.2899,0.0344,0.7964,0.1254,0.0416,0.8544,0.2559,0.0385,0.7943,0.1303,0.006,0.006,0.045,0.006,0.033,0.149,0.013,0.572,0.24,0.0,0.006,0.019,0.0,0.903,0.227,0.0,0.254,0.149,0.0046,0.2777,1.1305,0.0307,0.2838,1.2839,0.0614,0.3651,1.4711,0.0215,0.3114,1.3054,0.0261,0.2991,1.4757,0.023,0.2654,1.2885,-0.0178,0.0007,0.0542,-0.002,-0.0001,0.0765,-0.0001,0.0376,0.2859,-0.0009,0.025,0.0769,-0.0051,0.0108,0.1981,0.001,0.0037,0.0573,0.6673,0.1603,-0.0382,0.041,-0.0672,-0.0004,0.7593,0.0183,0.0391,0.7797,0.1212,0.0796,0.901,0.2888,0.0349,0.7948,0.1235,0.0418,0.8505,0.254,0.0409,0.792,0.1293,0.0,0.0,0.0,0.0,0.0,0.0,0.0,0.0,0.0,
2.64,run,8.27,5.26,5.35,-3.21,-4.01,0.0,0.0,0.0,0.903,0.18,16.26,65.48,1.76,16.7,74.18,3.25,21.09,86.13,1.32,18.37,75.41,1.41,18.72,85.25,1.41,15.82,74.18,-0.02,16.78,66.92,1.35,17.98,75.52,2.73,24.79,89.69,1.2,18.83,75.68,1.5,21.95,86.9,1.36,18.74,76.06,-0.0005,0.7596,0.0226,0.0386,0.7814,0.1237,0.0781,0.9054,0.2904,0.0342,0.7968,0.1257,0.0429,0.8537,0.2576,0.0389,0.7952,0.1301,0.006,0.006,0.033,0.0,0.045,0.071,0.013,0.832,0.221,0.0,0.0,0.006,0.0,0.442,0.189,0.0,0.156,0.117,0.0046,0.2777,1.1351,0.0307,0.2838,1.287,0.0614,0.3666,1.4864,0.0215,0.3114,1.31,0.0261,0.3053,1.4834,0.023,0.2654,1.2901,-0.0125,0.0005,0.0553,-0.0014,-0.0001,0.0651,-0.0001,0.0321,0.258,-0.0007,0.0175,0.0712,-0.0036,0.0307,0.1676,0.0007,0.0026,0.0459,0.6704,0.1608,0.0496,-0.0078,-0.0383,-0.0011,0.7594,0.0213,0.0385,0.7809,0.1236,0.0779,0.9052,0.2899,0.0344,0.7964,0.1254,0.0416,0.8544,0.2559,0.0385,0.7943,0.1303,0.0,0.0,0.0,0.0,0.0,0.0,0.0,0.0,0.0,
2.68,run,8.1,5.64,-3.36,7.53,-1.4,0.0,0.0,0.0,0.903,0.18,16.26,65.74,1.67,16.7,74.36,3.25,21.09,86.4,1.32,18.54,75.5,1.41,19.16,85.25,1.41,16.08,74.18,-0.0,16.74,66.95,1.36,17.99,75.47,2.74,24.77,89.71,1.21,18.8,75.68,1.53,21.88,86.92,1.4,18.74,76.09,-0.0001,0.7589,0.0229,0.0389,0.7816,0.1232,0.0782,0.9049,0.2907,0.0345,0.7964,0.1256,0.0437,0.8524,0.2579,0.04,0.7953,0.1305,0.006,0.006,0.033,0.0,0.045,0.071,0.013,0.832,0.221,0.0,0.0,0.006,0.0,0.442,0.189,0.0,0.156,0.117,0.0046,0.2777,1.1397,0.0307,0.2838,1.2931,0.0598,0.3666,1.4956,0.0215,0.3145,1.3146,0.0261,0.3237,1.4864,0.023,0.2715,1.2901,-0.0087,0.0003,0.0558,-0.001,-0.0,0.0684,-0.0058,0.0225,0.2149,-0.0005,0.0237,0.067,-0.0025,0.09,0.1287,0.0005,0.0246,0.0321,0.6863,0.1525,0.0934,-0.056,-0.07,-0.0005,0.7596,0.0226,0.0386,0.7814,0.1237,0.0781,0.9054,0.2904,0.0342,0.7968,0.1257,0.0429,0.8537,0.2576,0.0389,0.7952,0.1301,0.0,0.0,0.0,0.0,0.0,0.0,0.0,0.0,0.0,
2.72,run,8.2,5.62,2.67,0.16,-1.14,0.0,0.0,0.0,0.903,0.18,16.26,65.74,1.67,16.7,74.36,3.16,21.09,86.84,1.32,18.54,75.5,1.41,19.16,85.25,1.41,16.08,74.18,-0.05,16.89,66.84,1.43,18.05,75.58,2.76,24.85,89.9,1.15,18.81,75.81,1.43,22.06,86.96,1.56,18.73,76.05,-0.0014,0.7616,0.0216,0.041,0.7827,0.1245,0.0789,0.9063,0.293,0.0329,0.7965,0.1272,0.0408,0.8556,0.2584,0.0446,0.7951,0.1299,0.006,0.006,0.033,0.0,0.045,0.071,0.013,0.832,0.221,0.0,0.0,0.006,0.0,0.442,0.189,0.0,0.156,0.117,0.0046,0.2777,1.1443,0.0291,0.2838,1.2962,0.0598,0.3666,1.5002,0.0215,0.3175,1.3162,0.0261,0.3313,1.4864,0.023,0.2761,1.2901,-0.0061,0.0002,0.0536,-0.0055,-0.0,0.0576,-0.004,0.0157,0.1649,-0.0003,0.0263,0.0517,-0.0018,0.0873,0.0901,0.0004,0.0318,0.0225,0.6721,0.1852,-0.0586,0.1314,-0.0245,-0.0001,0.7589,0.0229,0.0389,0.7816,0.1232,0.0782,0.9049,0.2907,0.0345,0.7964,0.1256,0.0437,0.8524,0.2579,0.04,0.7953,0.1305,0.0,0.0,0.0,0.0,0.0,0.0,0.0,0.0,0.0,
2.76,run,8.23,5.71,0.66,2.41,-1.21,0.0,0.0,0.0,0.903,0.18,16.26,65.74,1.67,16.7,74.36,3.16,21.09,87.01,1.23,18.54,75.5,1.41,19.25,85.25,1.41,16.08,74.18,-0.01,16.88,67.09,1.41,18.08,75.64,2.73,24.93,89.89,1.17,18.85,75.89,1.49,22.06,87.12,1.48,18.83,76.1,-0.0004,0.7614,0.0245,0.0402,0.7833,0.1252,0.0779,0.9079,0.2928,0.0334,0.7973,0.1281,0.0426,0.8556,0.2602,0.0424,0.797,0.1306,0.006,0.019,0.045,0.006,0.052,0.111,0.013,0.897,0.234,0.0,0.0,0.013,0.0,0.455,0.247,0.0,0.182,0.091,0.0046,0.2777,1.1443,0.0291,0.2838,1.2962,0.0583,0.3666,1.5079,0.0215,0.3175,1.3162,0.0261,0.3313,1.4864,0.023,0.2761,1.2901,-0.0043,0.0002,0.0375,-0.0039,-0.0,0.0403,-0.0085,0.011,0.144,-0.0002,0.0184,0.0362,-0.0012,0.0611,0.0631,0.0002,0.0223,0.0157,0.6807,0.1834,0.0466,0.0027,-0.0199,-0.0014,0.7616,0.0216,0.041,0.7827,0.1245,0.0789,0.9063,0.293,0.0329,0.7965,0.1272,0.0408,0.8556,0.2584,0.0446,0.7951,0.1299,0.0,0.0,0.0,0.0,0.0,0.0,0.0,0.0,0.0,
2.8,run,8.39,5.66,4.4,-1.51,-1.04,0.0,0.0,0.0,0.903,0.18,16.26,65.74,1.67,16.7,74.44,3.16,21.09,87.01,1.23,18.54,75.5,1.41,19.25,85.52,1.41,16.17,74.18,-0.02,16.94,67.06,1.43,18.12,75.7,2.73,25.03,89.94,1.15,18.87,75.96,1.46,22.16,87.16,1.53,18.84,76.12,-0.0005,0.7626,0.0242,0.0408,0.784,0.1259,0.0779,0.9096,0.2935,0.0329,0.7977,0.129,0.0418,0.8575,0.2607,0.0437,0.7971,0.1308,0.006,0.019,0.045,0.006,0.052,0.111,0.013,0.897,0.234,0.0,0.0,0.013,0.0,0.455,0.247,0.0,0.182,0.091,0.0046,0.2777,1.1443,0.0291,0.2838,1.2962,0.0583,0.3666,1.511,0.0199,0.3175,1.3162,0.0261,0.3329,1.4864,0.023,0.2761,1.2901,-0.003,0.0001,0.0263,-0.0027,-0.0,0.0282,-0.006,0.0077,0.1122,-0.0059,0.0129,0.0253,-0.0009,0.0485,0.0442,0.0002,0.0156,0.011,0.6827,0.1911,0.0116,0.042,-0.0211,-0.0004,0.7614,0.0245,0.0402,0.7833,0.1252,0.0779,0.9079,0.2928,0.0334,0.7973,0.1281,0.0426,0.8556,0.2602,0.0424,0.797,0.1306,0.0,0.0,0.0,0.0,0.0,0.0,0.0,0.0,0.0,
2.84,run,8.37,5.64,0.11,-1.1,-0.86,0.0,0.0,0.0,0.903,0.18,16.26,65.83,1.67,16.7,74.53,3.16,21.09,87.01,1.23,18.54,75.5,1.41,19.25,85.61,1.41,16.17,74.18,0.02,16.92,67.18,1.43,18.13,75.69,2.73,25.04,89.92,1.16,18.88,75.98,1.52,22.12,87.25,1.51,18.88,76.13,0.0005,0.7623,0.0256,0.0407,0.7841,0.1258,0.0779,0.9099,0.2931,0.0332,0.7979,0.1292,0.0434,0.8567,0.2618,0.0431,0.7978,0.131,0.006,0.019,0.045,0.006,0.052,0.111,0.013,0.897,0.234,0.0,0.0,0.013,0.0,0.455,0.247,0.0,0.182,0.091,0.0046,0.2777,1.1443,0.0291,0.2838,1.2977,0.0583,0.3666,1.511,0.0199,0.3175,1.3162,0.0261,0.3329,1.491,0.023,0.2777,1.2901,-0.0021,0.0001,0.0184,-0.0019,-0.0,0.0255,-0.0042,0.0054,0.0785,-0.0041,0.009,0.0177,-0.0006,0.0339,0.0482,0.0001,0.0167,0.0077,0.6967,0.1869,0.0768,-0.0264,-0.0182,-0.0005,0.7626,0.0242,0.0408,0.784,0.1259,0.0779,0.9096,0.2935,0.0329,0.7977,0.129,0.0418,0.8575,0.2607,0.0437,0.7971,0.1308,0.0,0.0,0.0,0.0,0.0,0.0,0.0,0.0,0.0,
2.88,run,8.35,5.69,-0.74,1.08,-0.63,0.0,0.0,0.0,0.962,0.18,16.26,65.92,1.67,16.7,74.53,3.16,21.09,87.01,1.23,18.54,75.85,1.41,19.25,85.61,1.41,16.17,74.18,-0.01,16.95,67.14,1.44,18.15,75.73,2.71,25.12,89.96,1.15,18.9,76.02,1.49,22.22,87.23,1.51,18.89,76.16,-0.0002,0.7628,0.0251,0.0412,0.7846,0.1263,0.0774,0.9113,0.2937,0.0328,0.7982,0.1296,0.0424,0.8585,0.2616,0.0431,0.7979,0.1312,0.006,0.013,0.039,0.0,0.078,0.111,0.013,0.962,0.254,0.0,0.006,0.006,0.0,0.507,0.208,0.0,0.182,0.13,0.0046,0.2777,1.1459,0.0291,0.2838,1.2993,0.0583,0.3666,1.511,0.0199,0.3175,1.3162,0.0261,0.3329,1.4926,0.023,0.2777,1.2901,-0.0015,0.0001,0.0186,-0.0013,-0.0,0.0236,-0.0029,0.0038,0.055,-0.0029,0.0063,0.0124,-0.0004,0.0237,0.0395,0.0001,0.0117,0.0054,0.6951,0.1858,0.0019,-0.0191,-0.015,0.0005,0.7623,0.0256,0.0407,0.7841,0.1258,0.0779,0.9099,0.2931,0.0332,0.7979,0.1292,0.0434,0.8567,0.2618,0.0431,0.7978,0.131,0.0,0.0,0.0,0.0,0.0,0.0,0.0,0.0,0.0,
2.92,run,8.36,5.66,0.43,-0.23,-0.17,0.0,0.0,0.0,0.962,0.18,16.26,66.01,1.67,16.7,74.53,3.16,21.09,87.28,1.23,18.54,75.85,1.41,19.25,85.61,1.41,16.17,74.18,-0.0,16.97,67.1,1.46,18.16,75.7,2.72,25.1,89.98,1.14,18.9,75.99,1.48,22.21,87.24,1.54,18.89,76.12,-0.0,0.7631,0.0247,0.0418,0.7847,0.1259,0.0776,0.9108,0.2939,0.0327,0.7981,0.1293,0.0422,0.8584,0.2616,0.0441,0.798,0.1308,0.006,0.013,0.039,0.0,0.078,0.111,0.013,0.962,0.254,0.0,0.006,0.006,0.0,0.507,0.208,0.0,0.182,0.13,0.0046,0.2777,1.1474,0.0291,0.2838,1.2993,0.0583,0.3666,1.511,0.0199,0.3175,1.3223,0.0261,0.3329,1.4926,0.023,0.2777,1.2901,-0.001,0.0,0.0188,-0.0009,-0.0,0.0165,-0.002,0.0026,0.0385,-0.002,0.0044,0.0317,-0.0003,0.0166,0.0276,0.0001,0.0082,0.0038,0.6934,0.1898,-0.0129,0.0189,-0.011,-0.0002,0.7628,0.0251,0.0412,0.7846,0.1263,0.0774,0.9113,0.2937,0.0328,0.7982,0.1296,0.0424,0.8585,0.2616,0.0431,0.7979,0.1312,0.0,0.0,0.0,0.0,0.0,0.0,0.0,0.0,0.0,
2.96,run,8.35,5.64,0.38,-0.63,-0.82,0.0,0.0,0.0,0.962,0.18,16.26,66.01,1.67,16.7,74.53,3.16,21.09,87.36,1.23,18.54,75.85,1.41,19.25,85.69,1.41,16.17,74.18,0.01,16.97,67.15,1.46,18.16,75.73,2.71,25.11,89.98,1.15,18.9,76.02,1.49,22.21,87.27,1.52,18.91,76.15,0.0003,0.7631,0.0253,0.0418,0.7848,0.1263,0.0775,0.9112,0.2939,0.0327,0.7982,0.1297,0.0425,0.8584,0.2621,0.0435,0.7983,0.1311,0.006,0.013,0.039,0.0,0.078,0.111,0.013,0.962,0.254,0.0,0.006,0.006,0.0,0.507,0.208,0.0,0.182,0.13,0.0046,0.2777,1.149,0.0291,0.2838,1.2993,0.0583,0.3666,1.5156,0.0199,0.3175,1.3223,0.0261,0.3329,1.4926,0.023,0.2777,1.2901,-0.0007,0.0,0.0189,-0.0006,-0.0,0.0116,-0.0014,0.0019,0.0443,-0.0014,0.0031,0.0222,-0.0002,0.0116,0.0193,0.0,0.0057,0.0026,0.6944,0.1873,0.0075,-0.0041,-0.0029,-0.0,0.7631,0.0247,0.0418,0.7847,0.1259,0.0776,0.9108,0.2939,0.0327,0.7981,0.1293,0.0422,0.8584,0.2616,0.0441,0.798,0.1308,0.0,0.0,0.0,0.0,0.0,0.0,0.0,0.0,0.0,
3.0,run,8.33,5.65,-0.33,0.0,-0.45,0.0,0.0,0.0,0.962,0.18,16.26,66.09,1.67,16.7,74.53,3.16,21.09,87.36,1.23,18.54,75.85,1.41,19.25,85.69,1.41,16.17,74.18,0.01,16.98,67.16,1.46,18.17,75.78,2.7,25.16,89.98,1.14,18.91,76.07,1.48,22.26,87.28,1.5,18.91,76.18,0.0002,0.7633,0.0255,0.0417,0.7849,0.1268,0.0771,0.9121,0.2938,0.0327,0.7983,0.1302,0.0423,0.8593,0.2622,0.0429,0.7984,0.1315,0.006,0.019,0.033,0.006,0.078,0.117,0.006,0.936,0.189,0.0,0.006,0.006,0.0,0.461,0.195,0.0,0.182,0.123,0.0046,0.2777,1.149,0.0291,0.2838,1.2993,0.0583,0.3666,1.5171,0.0199,0.3175,1.3223,0.0261,0.3329,1.4941,0.023,0.2777,1.2901,-0.0005,0.0,0.0133,-0.0005,-0.0,0.0081,-0.001,0.0013,0.0367,-0.001,0.0022,0.0155,-0.0001,0.0081,0.0192,0.0,0.004,0.0019,0.6938,0.1855,0.0067,-0.011,-0.0143,0.0003,0.7631,0.0253,0.0418,0.7848,0.1263,0.0775,0.9112,0.2939,0.0327,0.7982,0.1297,0.0425,0.8584,0.2621,0.0435,0.7983,0.1311,0.0,0.0,0.0,0.0,0.0,0.0,0.0,0.0,0.0,
3.04,run,8.33,5.68,-0.02,0.61,-0.64,0.0,0.0,0.0,0.962,0.18,16.26,66.09,1.67,16.7,74.62,3.16,21.09,87.36,1.23,18.54,75.85,1.41,19.25,85.69,1.41,16.17,74.18,0.01,17.0,67.15,1.47,18.18,75.77,2.7,25.17,89.99,1.14,18.91,76.07,1.48,22.27,87.29,1.51,18.92,76.16,0.0002,0.7636,0.0252,0.042,0.785,0.1267,0.0771,0.9122,0.294,0.0325,0.7984,0.1303,0.0422,0.8595,0.2622,0.0432,0.7985,0.1313,0.006,0.019,0.033,0.006,0.078,0.117,0.006,0.936,0.189,0.0,0.006,0.006,0.0,0.461,0.195,0.0,0.182,0.123,0.0046,0.2777,1.1505,0.0291,0.2838,1.2993,0.0583,0.3666,1.5171,0.0199,0.3175,1.3223,0.0261,0.3329,1.4941,0.023,0.2777,1.2901,-0.0004,0.0,0.015,-0.0003,-0.0,0.0057,-0.0007,0.0009,0.0257,-0.0007,0.0015,0.0109,-0.0001,0.0057,0.0135,0.0,0.0028,0.0013,0.6915,0.1866,-0.0057,0.0001,-0.0078,0.0002,0.7633,0.0255,0.0417,0.7849,0.1268,0.0771,0.9121,0.2938,0.0327,0.7983,0.1302,0.0423,0.8593,0.2622,0.0429,0.7984,0.1315,0.0,0.0,0.0,0.0,0.0,0.0,0.0,0.0,0.0,
3.08,run,8.35,5.68,0.63,0.15,-0.45,0.0,0.0,0.0,0.962,0.18,16.26,66.09,1.67,16.7,74.62,3.16,21.09,87.36,1.23,18.54,75.85,1.41,19.25,85.69,1.41,16.17,74.18,0.01,17.01,67.15,1.47,18.17,75.78,2.7,25.18,89.98,1.14,18.91,76.09,1.48,22.27,87.29,1.52,18.91,76.17,0.0004,0.7638,0.0253,0.0421,0.785,0.1269,0.0772,0.9123,0.2939,0.0326,0.7983,0.1305,0.0422,0.8595,0.2623,0.0434,0.7984,0.1314,0.006,0.019,0.033,0.006,0.078,0.117,0.006,0.936,0.189,0.0,0.006,0.006,0.0,0.461,0.195,0.0,0.182,0.123,0.0046,0.2777,1.1505,0.0291,0.2838,1.3008,0.0583,0.3666,1.5171,0.0199,0.3175,1.3223,0.0261,0.3329,1.4941,0.023,0.2777,1.2901,-0.0002,0.0,0.0105,-0.0002,-0.0,0.0097,-0.0005,0.0006,0.018,-0.0005,0.0011,0.0076,-0.0001,0.004,0.0094,0.0,0.002,0.0009,0.6915,0.1888,-0.0004,0.0107,-0.0111,0.0002,0.7636,0.0252,0.042,0.785,0.1267,0.0771,0.9122,0.294,0.0325,0.7984,0.1303,0.0422,0.8595,0.2622,0.0432,0.7985,0.1313,0.0,0.0,0.0,0.0,0.0,0.0,0.0,0.0,0.0,
3.12,run,8.35,5.67,0.55,-0.23,-0.59,0.0,0.0,0.0,0.962,0.18,16.26,66.09,1.67,16.7,74.62,3.16,21.09,87.36,1.23,18.54,75.85,1.41,19.25,85.69,1.41,16.17,74.18,0.02,17.01,67.16,1.47,18.18,75.78,2.7,25.17,89.98,1.14,18.91,76.09,1.48,22.26,87.31,1.52,18.92,76.17,0.0005,0.7638,0.0255,0.0421,0.785,0.1268,0.0772,0.9122,0.2939,0.0326,0.7983,0.1305,0.0424,0.8593,0.2625,0.0435,0.7985,0.1314,0.006,0.019,0.026,0.0,0.052,0.104,0.006,0.936,0.201,0.0,0.006,0.006,0.0,0.513,0.195,0.0,0.182,0.117,0.0046,0.2777,1.1505,0.0291,0.2838,1.3008,0.0583,0.3666,1.5171,0.0199,0.3175,1.3223,0.0261,0.3329,1.4941,0.023,0.2777,1.2901,-0.0002,0.0,0.0074,-0.0002,-0.0,0.0068,-0.0003,0.0004,0.0126,-0.0003,0.0007,0.0053,-0.0,0.0028,0.0066,0.0,0.0014,0.0006,0.6934,0.189,0.0111,0.0026,-0.0078,0.0004,0.7638,0.0253,0.0421,0.785,0.1269,0.0772,0.9123,0.2939,0.0326,0.7983,0.1305,0.0422,0.8595,0.2623,0.0434,0.7984,0.1314,0.0,0.0,0.0,0.0,0.0,0.0,0.0,0.0,0.0,
3.16,run,8.34,5.69,0.1,0.19,-0.34,0.0,0.0,0.0,0.962,0.18,16.26,66.09,1.67,16.7,74.62,3.16,21.09,87.36,1.23,18.54,75.85,1.41,19.25,85.69,1.41,16.17,74.18,0.02,17.01,67.17,1.47,18.18,75.79,2.7,25.19,89.98,1.14,18.91,76.1,1.48,22.27,87.31,1.52,18.92,76.18,0.0005,0.7638,0.0255,0.0421,0.7851,0.1269,0.0771,0.9125,0.2939,0.0326,0.7984,0.1306,0.0424,0.8595,0.2625,0.0433,0.7986,0.1315,0.006,0.019,0.026,0.0,0.052,0.104,0.006,0.936,0.201,0.0,0.006,0.006,0.0,0.513,0.195,0.0,0.182,0.117,0.0046,0.2777,1.1505,0.0291,0.2838,1.3008,0.0583,0.3666,1.5171,0.0199,0.3175,1.3223,0.0261,0.3329,1.4941,0.023,0.2777,1.2901,-0.0001,0.0,0.0052,-0.0001,-0.0,0.0048,-0.0002,0.0003,0.0088,-0.0002,0.0005,0.0037,-0.0,0.002,0.0046,0.0,0.001,0.0004,0.6935,0.1882,0.0096,-0.0041,-0.0103,0.0005,0.7638,0.0255,0.0421,0.785,0.1268,0.0772,0.9122,0.2939,0.0326,0.7983,0.1305,0.0424,0.8593,0.2625,0.0435,0.7985,0.1314,0.0,0.0,0.0,0.0,0.0,0.0,0.0,0.0,0.0,
3.2,run,8.35,5.7,0.28,0.36,-0.5,0.0,0.0,0.0,0.962,0.18,16.26,66.09,1.67,16.7,74.62,3.16,21.09,87.36,1.23,18.54,75.85,1.41,19.25,85.69,1.41,16.17,74.18,0.01,17.02,67.16,1.48,18.18,75.79,2.7,25.19,89.99,1.14,18.91,76.1,1.48,22.28,87.31,1.52,18.92,76.17,0.0004,0.764,0.0254,0.0422,0.7852,0.1269,0.0771,0.9125,0.294,0.0325,0.7984,0.1306,0.0422,0.8596,0.2625,0.0436,0.7985,0.1314,0.006,0.019,0.026,0.0,0.052,0.104,0.006,0.936,0.201,0.0,0.006,0.006,0.0,0.513,0.195,0.0,0.182,0.117,0.0046,0.2777,1.1505,0.0291,0.2838,1.3008,0.0583,0.3666,1.5171,0.0199,0.3175,1.3223,0.0261,0.3329,1.4941,0.023,0.2777,1.2901,-0.0001,0.0,0.0036,-0.0001,-0.0,0.0033,-0.0002,0.0002,0.0062,-0.0002,0.0004,0.0026,-0.0,0.0014,0.0032,0.0,0.0007,0.0003,0.6928,0.1897,0.0017,0.0033,-0.006,0.0005,0.7638,0.0255,0.0421,0.7851,0.1269,0.0771,0.9125,0.2939,0.0326,0.7984,0.1306,0.0424,0.8595,0.2625,0.0433,0.7986,0.1315,0.0,0.0,0.0,0.0,0.0,0.0,0.0,0.0,0.0,
3.24,run,8.37,5.7,0.53,0.1,-0.57,0.0,0.0,0.0,0.962,0.18,16.26,66.09,1.67,16.7,74.62,3.16,21.09,87.36,1.23,18.54,75.85,1.41,19.25,85.69,1.41,16.17,74.18,0.02,17.02,67.16,1.48,18.19,75.79,2.7,25.19,89.99,1.14,18.91,76.11,1.48,22.28,87.32,1.53,18.92,76.17,0.0005,0.7641,0.0255,0.0422,0.7852,0.127,0.0772,0.9126,0.294,0.0325,0.7984,0.1307,0.0422,0.8597,0.2626,0.0437,0.7986,0.1315,0.006,0.019,0.033,0.0,0.052,0.091,0.013,0.89,0.163,0.0,0.006,0.013,0.0,0.592,0.189,0.0,0.214,0.104,0.0046,0.2777,1.1505,0.0291,0.2838,1.3008,0.0583,0.3666,1.5171,0.0199,0.3175,1.3223,0.0261,0.3329,1.4941,0.023,0.2777,1.2901,-0.0001,0.0,0.0025,-0.0001,-0.0,0.0023,-0.0001,0.0002,0.0043,-0.0001,0.0003,0.0018,-0.0,0.001,0.0023,0.0,0.0005,0.0002,0.6939,0.191,0.0049,0.0062,-0.0087,0.0004,0.764,0.0254,0.0422,0.7852,0.1269,0.0771,0.9125,0.294,0.0325,0.7984,0.1306,0.0422,0.8596,0.2625,0.0436,0.7985,0.1314,0.0,0.0,0.0,0.0,0.0,0.0,0.0,0.0,0.0,
3.28,run,8.36,5.7,0.17,-0.04,-0.52,0.0,0.0,0.0,0.962,0.18,16.26,66.09,1.67,16.7,74.62,3.16,21.09,87.36,1.23,18.54,75.85,1.41,19.25,85.69,1.41,16.17,74.18,0.02,17.02,67.17,1.47,18.19,75.79,2.7,25.2,89.99,1.14,18.91,76.11,1.48,22.28,87.32,1.53,18.92,76.18,0.0006,0.764,0.0255,0.0421,0.7852,0.127,0.0772,0.9127,0.294,0.0325,0.7984,0.1308,0.0424,0.8596,0.2626,0.0437,0.7986,0.1315,0.006,0.019,0.033,0.0,0.052,0.091,0.013,0.89,0.163,0.0,0.006,0.013,0.0,0.592,0.189,0.0,0.214,0.104,0.0046,0.2777,1.1505,0.0291,0.2838,1.3008,0.0583,0.3666,1.5171,0.0199,0.3175,1.3223,0.0261,0.3329,1.4941,0.023,0.2777,1.2901,-0.0,0.0,0.0018,-0.0,-0.0,0.0016,-0.0001,0.0001,0.003,-0.0001,0.0002,0.0013,-0.0,0.0007,0.0016,0.0,0.0003,0.0002,0.6952,0.191,0.0093,0.0018,-0.0099,0.0005,0.7641,0.0255,0.0422,0.7852,0.127,0.0772,0.9126,0.294,0.0325,0.7984,0.1307,0.0422,0.8597,0.2626,0.0437,0.7986,0.1315,0.0,0.0,0.0,0.0,0.0,0.0,0.0,0.0,0.0,
3.32,run,8.35,5.71,-0.14,0.06,-0.61,0.0,0.0,0.0,0.962,0.18,16.26,66.09,1.67,16.7,74.62,3.16,21.09,87.36,1.23,18.54,75.85,1.41,19.25,85.69,1.41,16.17,74.18,0.02,17.02,67.17,1.47,18.19,75.8,2.7,25.2,89.99,1.14,18.92,76.12,1.48,22.29,87.32,1.52,18.93,76.18,0.0005,0.7641,0.0255,0.0421,0.7853,0.127,0.0771,0.9128,0.294,0.0325,0.7985,0.1308,0.0423,0.8598,0.2626,0.0436,0.7986,0.1315,0.006,0.019,0.033,0.0,0.052,0.091,0.013,0.89,0.163,0.0,0.006,0.013,0.0,0.592,0.189,0.0,0.214,0.104,0.0046,0.2777,1.1505,0.0291,0.2838,1.3008,0.0583,0.3666,1.5171,0.0199,0.3175,1.3223,0.0261,0.3329,1.4941,0.023,0.2777,1.2901,-0.0,0.0,0.0012,-0.0,-0.0,0.0011,-0.0001,0.0001,0.0021,-0.0001,0.0001,0.0009,-0.0,0.0005,0.0011,0.0,0.0002,0.0001,0.6945,0.1907,0.0029,-0.0007,-0.0091,0.0006,0.764,0.0255,0.0421,0.7852,0.127,0.0772,0.9127,0.294,0.0325,0.7984,0.1308,0.0424,0.8596,0.2626,0.0437,0.7986,0.1315,0.0,0.0,0.0,0.0,0.0,0.0,0.0,0.0,0.0,
3.36,run,8.36,5.71,0.18,0.02,-0.49,0.0,0.0,0.0,0.962,0.18,16.26,66.09,1.67,16.7,74.62,3.16,21.09,87.36,1.23,18.54,75.85,1.41,19.25,85.69,1.41,16.17,74.27,0.01,17.03,67.17,1.47,18.19,75.8,2.69,25.21,90.0,1.14,18.92,76.12,1.47,22.3,87.32,1.52,18.93,76.18,0.0004,0.7641,0.0255,0.0421,0.7853,0.1271,0.077,0.9129,0.2941,0.0325,0.7985,0.1308,0.0421,0.86,0.2626,0.0435,0.7987,0.1315,0.006,0.019,0.026,0.006,0.058,0.071,0.006,0.923,0.169,0.0,0.006,0.006,0.0,0.52,0.189,0.0,0.208,0.084,0.0046,0.2777,1.1505,0.0291,0.2838,1.3008,0.0583,0.3666,1.5171,0.0199,0.3175,1.3223,0.0261,0.3329,1.4941,0.023,0.2777,1.2901,-0.0,0.0,0.0009,-0.0,-0.0,0.0008,-0.0,0.0001,0.0015,-0.0,0.0001,0.0006,-0.0,0.0003,0.0008,0.0,0.0002,0.0001,0.6934,0.1911,-0.0024,0.001,-0.0106,0.0005,0.7641,0.0255,0.0421,0.7853,0.127,0.0771,0.9128,0.294,0.0325,0.7985,0.1308,0.0423,0.8598,0.2626,0.0436,0.7986,0.1315,0.0,0.0,0.0,0.0,0.0,0.0,0.0,0.0,0.0,
3.4,run,8.36,5.71,0.44,0.05,-0.56,0.0,0.0,0.0,0.962,0.18,16.26,66.09,1.67,16.7,74.62,3.16,21.09,87.36,1.23,18.54,75.85,1.41,19.25,85.69,1.41,16.17,74.27,0.02,17.02,67.16,1.48,18.19,75.78,2.7,25.19,89.99,1.14,18.91,76.1,1.48,22.28,87.32,1.53,18.93,76.16,0.0004,0.764,0.0254,0.0422,0.7852,0.1268,0.0771,0.9125,0.294,0.0326,0.7985,0.1306,0.0423,0.8596,0.2625,0.0436,0.7986,0.1313,0.006,0.019,0.026,0.006,0.058,0.071,0.006,0.923,0.169,0.0,0.006,0.006,0.0,0.52,0.189,0.0,0.208,0.084,0.0046,0.2777,1.1505,0.0291,0.2838,1.3008,0.0583,0.3666,1.5171,0.0199,0.3175,1.3223,0.0261,0.3329,1.4941,0.023,0.2777,1.2916,-0.0,0.0,0.0006,-0.0,-0.0,0.0006,-0.0,0.0,0.001,-0.0,0.0001,0.0004,-0.0,0.0002,0.0005,0.0,0.0001,0.0058,0.6942,0.1912,0.0031,0.0003,-0.0085,0.0004,0.7641,0.0255,0.0421,0.7853,0.1271,0.077,0.9129,0.2941,0.0325,0.7985,0.1308,0.0421,0.86,0.2626,0.0435,0.7987,0.1315,0.0,0.0,0.0,0.0,0.0,0.0,0.0,0.0,0.0,
3.44,run,8.36,5.7,0.21,-0.07,-0.62,0.0,0.0,0.0,0.962,0.18,16.26,66.09,1.67,16.7,74.62,3.16,21.09,87.36,1.23,18.54,75.85,1.41,19.25,85.69,1.41,16.17,74.36,0.02,17.02,67.16,1.48,18.19,75.78,2.7,25.19,89.99,1.14,18.91,76.1,1.48,22.27,87.32,1.53,18.92,76.17,0.0005,0.764,0.0254,0.0421,0.7852,0.1269,0.0771,0.9125,0.294,0.0326,0.7984,0.1306,0.0423,0.8595,0.2626,0.0436,0.7986,0.1314,0.006,0.019,0.026,0.006,0.058,0.071,0.006,0.923,0.169,0.0,0.006,0.006,0.0,0.52,0.189,0.0,0.208,0.084,0.0046,0.2777,1.1505,0.0291,0.2838,1.3008,0.0583,0.3666,1.5171,0.0199,0.3175,1.3223,0.0261,0.3329,1.4941,0.023,0.2777,1.2916,-0.0,0.0,0.0004,-0.0,-0.0,0.0004,-0.0,0.0,0.0007,-0.0,0.0,0.0003,-0.0,0.0002,0.0004,0.0,0.0001,0.0041,0.6945,0.1914,0.0076,0.0009,-0.0098,0.0004,0.764,0.0254,0.0422,0.7852,0.1268,0.0771,0.9125,0.294,0.0326,0.7985,0.1306,0.0423,0.8596,0.2625,0.0436,0.7986,0.1313,0.0,0.0,0.0,0.0,0.0,0.0,0.0,0.0,0.0,
3.48,run,8.36,5.7,0.06,-0.2,-0.62,0.0,0.0,0.0,0.962,0.18,16.26,66.09,1.67,16.7,74.62,3.16,21.09,87.36,1.23,18.54,75.85,1.41,19.25,85.69,1.41,16.17,74.36,0.02,17.02,67.15,1.48,18.18,75.77,2.7,25.18,89.99,1.14,18.91,76.09,1.48,22.27,87.31,1.52,18.92,76.16,0.0004,0.764,0.0253,0.0422,0.7851,0.1267,0.077,0.9123,0.294,0.0326,0.7984,0.1304,0.0423,0.8594,0.2624,0.0436,0.7986,0.1313,0.006,0.019,0.033,0.006,0.052,0.091,0.006,0.897,0.163,0.0,0.006,0.006,0.0,0.572,0.182,0.0,0.175,0.104,0.0046,0.2777,1.1505,0.0291,0.2838,1.3008,0.0583,0.3666,1.5171,0.0199,0.3175,1.3223,0.0261,0.3329,1.4941,0.023,0.2777,1.2931,-0.0,0.0,0.0003,-0.0,-0.0,0.0003,-0.0,0.0,0.0005,-0.0,0.0,0.0002,-0.0,0.0001,0.0003,0.0,0.0001,0.0086,0.6944,0.1908,0.0037,-0.0013,-0.0107,0.0005,0.764,0.0254,0.0421,0.7852,0.1269,0.0771,0.9125,0.294,0.0326,0.7984,0.1306,0.0423,0.8595,0.2626,0.0436,0.7986,0.1314,0.0,0.0,0.0,0.0,0.0,0.0,0.0,0.0,0.0,
3.52,run,8.36,5.71,0.15,0.13,-0.46,0.0,0.0,0.0,0.962,0.18,16.26,66.09,1.67,16.7,74.62,3.16,21.09,87.36,1.23,18.54,75.85,1.41,19.25,85.69,1.41,16.17,74.36,0.01,17.02,67.15,1.48,18.18,75.77,2.69,25.18,89.99,1.14,18.91,76.09,1.48,22.27,87.3,1.52,18.92,76.16,0.0004,0.764,0.0253,0.0421,0.7852,0.1268,0.077,0.9124,0.294,0.0326,0.7984,0.1305,0.0422,0.8595,0.2624,0.0435,0.7986,0.1313,0.006,0.019,0.033,0.006,0.052,0.091,0.006,0.897,0.163,0.0,0.006,0.006,0.0,0.572,0.182,0.0,0.175,0.104,0.0046,0.2777,1.1505,0.0291,0.2838,1.3008,0.0583,0.3666,1.5171,0.0199,0.3175,1.3223,0.0261,0.3329,1.4941,0.023,0.2777,1.2931,-0.0,0.0,0.0002,-0.0,-0.0,0.0002,-0.0,0.0,0.0004,-0.0,0.0,0.0002,-0.0,0.0001,0.0002,0.0,0.0,0.006,0.6942,0.1902,0.0011,-0.0035,-0.0107,0.0004,0.764,0.0253,0.0422,0.7851,0.1267,0.077,0.9123,0.294,0.0326,0.7984,0.1304,0.0423,0.8594,0.2624,0.0436,0.7986,0.1313,0.0,0.0,0.0,0.0,0.0,0.0,0.0,0.0,0.0,
3.56,run,8.36,5.71,0.32,0.13,-0.61,0.0,0.0,0.0,0.962,0.18,16.26,66.09,1.67,16.7,74.62,3.16,21.09,87.36,1.23,18.54,75.85,1.41,19.25,85.69,1.41,16.17,74.36,0.02,17.02,67.14,1.48,18.18,75.77,2.7,25.18,89.99,1.14,18.91,76.09,1.48,22.27,87.31,1.53,18.92,76.16,0.0004,0.764,0.0252,0.0422,0.7852,0.1267,0.0771,0.9123,0.294,0.0326,0.7984,0.1304,0.0423,0.8594,0.2625,0.0437,0.7985,0.1313,0.006,0.019,0.033,0.006,0.052,0.091,0.006,0.897,0.163,0.0,0.006,0.006,0.0,0.572,0.182,0.0,0.175,0.104,0.0046,0.2777,1.1505,0.0291,0.2838,1.3008,0.0583,0.3666,1.5171,0.0199,0.3175,1.3223,0.0261,0.3329,1.4941,0.023,0.2777,1.2931,-0.0,0.0,0.0001,-0.0,-0.0,0.0001,-0.0,0.0,0.0002,-0.0,0.0,0.0001,-0.0,0.0001,0.0001,0.0,0.0,0.0042,0.6943,0.1914,0.0027,0.0023,-0.0079,0.0004,0.764,0.0253,0.0421,0.7852,0.1268,0.077,0.9124,0.294,0.0326,0.7984,0.1305,0.0422,0.8595,0.2624,0.0435,0.7986,0.1313,0.0,0.0,0.0,0.0,0.0,0.0,0.0,0.0,0.0,
3.6,run,8.36,5.7,0.23,-0.09,-0.47,0.0,0.0,0.0,0.962,0.18,16.26,66.09,1.67,16.7,74.62,3.16,21.09,87.36,1.23,18.54,75.85,1.41,19.25,85.69,1.41,16.17,74.36,0.02,17.02,67.15,1.48,18.18,75.78,2.7,25.18,89.99,1.14,18.91,76.09,1.48,22.27,87.31,1.53,18.92,76.16,0.0005,0.764,0.0253,0.0422,0.7851,0.1268,0.0771,0.9124,0.294,0.0326,0.7984,0.1305,0.0423,0.8594,0.2625,0.0437,0.7985,0.1313,0.006,0.019,0.026,0.006,0.058,0.078,0.013,0.845,0.169,0.0,0.006,0.013,0.0,0.539,0.175,0.0,0.182,0.111,0.0046,0.2777,1.1505,0.0291,0.2838,1.3008,0.0583,0.3666,1.5171,0.0199,0.3175,1.3223,0.0261,0.3329,1.4941,0.023,0.2777,1.2931,-0.0,0.0,0.0001,-0.0,-0.0,0.0001,-0.0,0.0,0.0002,-0.0,0.0,0.0001,-0.0,0.0,0.0001,0.0,0.0,0.0029,0.6945,0.1915,0.0056,0.0023,-0.0106,0.0004,0.764,0.0252,0.0422,0.7852,0.1267,0.0771,0.9123,0.294,0.0326,0.7984,0.1304,0.0423,0.8594,0.2625,0.0437,0.7985,0.1313,0.0,0.0,0.0,0.0,0.0,0.0,0.0,0.0,0.0,
3.64,run,8.36,5.7,0.13,-0.15,-0.72,0.0,0.0,0.0,0.962,0.18,16.26,66.09,1.67,16.7,74.62,3.16,21.09,87.36,1.23,18.54,75.85,1.41,19.25,85.69,1.41,16.17,74.36,0.02,17.02,67.15,1.48,18.18,75.77,2.7,25.18,89.99,1.14,18.91,76.09,1.48,22.27,87.31,1.53,18.92,76.16,0.0004,0.764,0.0253,0.0422,0.7852,0.1267,0.0771,0.9123,0.294,0.0326,0.7984,0.1305,0.0423,0.8594,0.2625,0.0437,0.7986,0.1313,0.006,0.019,0.026,0.006,0.058,0.078,0.013,0.845,0.169,0.0,0.006,0.013,0.0,0.539,0.175,0.0,0.182,0.111,0.0046,0.2777,1.1505,0.0291,0.2838,1.3008,0.0583,0.3666,1.5171,0.0199,0.3175,1.3223,0.0261,0.3329,1.4941,0.023,0.2777,1.2931,-0.0,0.0,0.0001,-0.0,-0.0,0.0001,-0.0,0.0,0.0001,-0.0,0.0,0.0001,-0.0,0.0,0.0001,0.0,0.0,0.0021,0.6945,0.1908,0.004,-0.0015,-0.0082,0.0005,0.764,0.0253,0.0422,0.7851,0.1268,0.0771,0.9124,0.294,0.0326,0.7984,0.1305,0.0423,0.8594,0.2625,0.0437,0.7985,0.1313,0.0,0.0,0.0,0.0,0.0,0.0,0.0,0.0,0.0,
3.68,run,8.36,5.7,0.15,0.02,-0.42,0.0,0.0,0.0,0.962,0.18,16.26,66.09,1.67,16.7,74.62,3.16,21.09,87.36,1.23,18.54,75.85,1.41,19.25,85.69,1.41,16.17,74.36,0.01,17.02,67.15,1.47,18.18,75.78,2.69,25.19,89.99,1.14,18.91,76.1,1.48,22.28,87.31,1.52,18.92,76.17,0.0004,0.764,0.0253,0.0421,0.7852,0.1268,0.077,0.9125,0.294,0.0326,0.7984,0.1305,0.0422,0.8596,0.2624,0.0435,0.7986,0.1314,0.006,0.019,0.026,0.006,0.058,0.078,0.013,0.845,0.169,0.0,0.006,0.013,0.0,0.539,0.175,0.0,0.182,0.111,0.0046,0.2777,1.1505,0.0291,0.2838,1.3008,0.0583,0.3666,1.5171,0.0199,0.3175,1.3223,0.0261,0.3329,1.4941,0.023,0.2777,1.2931,-0.0,0.0,0.0,-0.0,-0.0,0.0,-0.0,0.0,0.0001,-0.0,0.0,0.0,-0.0,0.0,0.0,0.0,0.0,0.0014,0.694,0.1904,0.0023,-0.0026,-0.0126,0.0004,0.764,0.0253,0.0422,0.7852,0.1267,0.0771,0.9123,0.294,0.0326,0.7984,0.1305,0.0423,0.8594,0.2625,0.0437,0.7986,0.1313,0.0,0.0,0.0,0.0,0.0,0.0,0.0,0.0,0.0,
3.72,run,8.37,5.71,0.3,0.14,-0.58,0.0,0.0,0.0,0.962,0.18,16.26,66.09,1.67,16.7,74.62,3.16,21.09,87.36,1.23,18.54,75.85,1.41,19.25,85.69,1.41,16.17,74.44,0.02,17.02,67.14,1.48,18.18,75.77,2.7,25.18,89.99,1.14,18.91,76.09,1.48,22.27,87.31,1.53,18.92,76.16,0.0004,0.764,0.0252,0.0422,0.7852,0.1267,0.0771,0.9123,0.2941,0.0326,0.7984,0.1304,0.0423,0.8594,0.2625,0.0437,0.7986,0.1312,0.006,0.019,0.026,0.0,0.052,0.111,0.006,0.845,0.163,0.0,0.006,0.013,0.0,0.507,0.143,0.0,0.221,0.065,0.0046,0.2777,1.1505,0.0291,0.2838,1.3008,0.0583,0.3666,1.5171,0.0199,0.3175,1.3223,0.0261,0.3329,1.4941,0.023,0.2777,1.2931,-0.0,0.0,0.0,-0.0,-0.0,0.0,-0.0,0.0,0.0001,-0.0,0.0,0.0,-0.0,0.0,0.0,0.0,0.0,0.001,0.6942,0.191,0.0025,0.0003,-0.0073,0.0004,0.764,0.0253,0.0421,0.7852,0.1268,0.077,0.9125,0.294,0.0326,0.7984,0.1305,0.0422,0.8596,0.2624,0.0435,0.7986,0.1314,0.0,0.0,0.0,0.0,0.0,0.0,0.0,0.0,0.0,
3.76,run,8.36,5.71,0.15,0.03,-0.56,0.0,0.0,0.0,0.962,0.18,16.26,66.09,1.67,16.7,74.62,3.16,21.09,87.36,1.23,18.54,75.85,1.41,19.25,85.69,1.41,16.17,74.44,0.02,17.02,67.13,1.48,18.18,75.76,2.7,25.16,89.99,1.14,18.91,76.08,1.48,22.25,87.3,1.53,18.92,76.15,0.0005,0.764,0.0251,0.0422,0.7851,0.1266,0.0771,0.9121,0.294,0.0327,0.7983,0.1303,0.0423,0.8591,0.2624,0.0437,0.7985,0.1312,0.006,0.019,0.026,0.0,0.052,0.111,0.006,0.845,0.163,0.0,0.006,0.013,0.0,0.507,0.143,0.0,0.221,0.065,0.0046,0.2777,1.1505,0.0291,0.2838,1.3008,0.0583,0.3666,1.5171,0.0199,0.3175,1.3223,0.0261,0.3329,1.4941,0.023,0.2777,1.2947,-0.0,0.0,0.0,-0.0,-0.0,0.0,-0.0,0.0,0.0,-0.0,0.0,0.0,-0.0,0.0,0.0,0.0,0.0,0.0065,0.6948,0.1914,0.0052,0.0025,-0.0101,0.0004,0.764,0.0252,0.0422,0.7852,0.1267,0.0771,0.9123,0.2941,0.0326,0.7984,0.1304,0.0423,0.8594,0.2625,0.0437,0.7986,0.1312,0.0,0.0,0.0,0.0,0.0,0.0,0.0,0.0,0.0,
3.8,run,8.35,5.71,0.1,-0.05,-0.55,0.0,0.0,0.0,0.962,0.18,16.26,66.09,1.67,16.7,74.62,3.16,21.09,87.36,1.23,18.54,75.85,1.41,19.25,85.69,1.41,16.17,74.44,0.01,17.02,67.14,1.48,18.18,75.77,2.7,25.17,89.99,1.14,18.91,76.08,1.48,22.26,87.3,1.53,18.92,76.15,0.0004,0.764,0.0251,0.0421,0.7851,0.1267,0.0771,0.9121,0.294,0.0326,0.7984,0.1303,0.0422,0.8592,0.2624,0.0437,0.7985,0.1312,0.006,0.019,0.026,0.0,0.052,0.111,0.006,0.845,0.163,0.0,0.006,0.013,0.0,0.507,0.143,0.0,0.221,0.065,0.0046,0.2777,1.1505,0.0291,0.2838,1.3008,0.0583,0.3666,1.5171,0.0199,0.3175,1.3223,0.0261,0.3329,1.4941,0.023,0.2777,1.2947,-0.0,0.0,0.0,-0.0,-0.0,0.0,-0.0,0.0,0.0,-0.0,0.0,0.0,-0.0,0.0,0.0,0.0,0.0,0.0045,0.6943,0.1913,0.0027,0.0005,-0.0098,0.0005,0.764,0.0251,0.0422,0.7851,0.1266,0.0771,0.9121,0.294,0.0327,0.7983,0.1303,0.0423,0.8591,0.2624,0.0437,0.7985,0.1312,0.0,0.0,0.0,0.0,0.0,0.0,0.0,0.0,0.0,
3.84,run,8.36,5.71,0.18,0.05,-0.59,0.0,0.0,0.0,0.962,0.18,16.26,66.09,1.67,16.7,74.62,3.16,21.09,87.36,1.23,18.54,75.85,1.41,19.25,85.69,1.41,16.17,74.44,0.01,17.02,67.14,1.47,18.18,75.77,2.7,25.17,89.99,1.14,18.91,76.08,1.48,22.26,87.3,1.53,18.92,76.15,0.0004,0.764,0.0251,0.0421,0.7851,0.1267,0.077,0.9122,0.294,0.0326,0.7984,0.1303,0.0422,0.8593,0.2624,0.0437,0.7985,0.1312,0.006,0.026,0.026,0.0,0.065,0.111,0.006,0.851,0.189,0.0,0.006,0.013,0.0,0.566,0.195,0.0,0.182,0.071,0.0046,0.2777,1.1505,0.0291,0.2838,1.3008,0.0583,0.3666,1.5171,0.0199,0.3175,1.3223,0.0261,0.3329,1.4941,0.023,0.2777,1.2947,-0.0,0.0,0.0,-0.0,-0.0,0.0,-0.0,0.0,0.0,-0.0,0.0,0.0,-0.0,0.0,0.0,0.0,0.0,0.0032,0.6939,0.1913,0.0017,-0.0009,-0.0095,0.0004,0.764,0.0251,0.0421,0.7851,0.1267,0.0771,0.9121,0.294,0.0326,0.7984,0.1303,0.0422,0.8592,0.2624,0.0437,0.7985,0.1312,0.0,0.0,0.0,0.0,0.0,0.0,0.0,0.0,0.0,
3.88,run,8.35,5.71,0.18,0.09,-0.49,0.0,0.0,0.0,0.962,0.18,16.26,66.09,1.67,16.7,74.62,3.16,21.09,87.36,1.23,18.54,75.85,1.41,19.25,85.69,1.41,16.17,74.44,0.01,17.02,67.14,1.47,18.18,75.77,2.7,25.17,89.99,1.14,18.91,76.08,1.48,22.26,87.3,1.53,18.92,76.15,0.0004,0.764,0.0251,0.0421,0.7851,0.1267,0.077,0.9122,0.294,0.0326,0.7984,0.1304,0.0422,0.8593,0.2624,0.0437,0.7985,0.1312,0.006,0.026,0.026,0.0,0.065,0.111,0.006,0.851,0.189,0.0,0.006,0.013,0.0,0.566,0.195,0.0,0.182,0.071,0.0046,0.2777,1.1505,0.0291,0.2838,1.3008,0.0583,0.3666,1.5171,0.0199,0.3175,1.3223,0.0261,0.3329,1.4941,0.023,0.2777,1.2947,-0.0,0.0,0.0,-0.0,-0.0,0.0,-0.0,0.0,0.0,-0.0,0.0,0.0,-0.0,0.0,0.0,0.0,0.0,0.0022,0.694,0.1917,0.0032,0.0009,-0.0103,0.0004,0.764,0.0251,0.0421,0.7851,0.1267,0.077,0.9122,0.294,0.0326,0.7984,0.1303,0.0422,0.8593,0.2624,0.0437,0.7985,0.1312,0.0,0.0,0.0,0.0,0.0,0.0,0.0,0.0,0.0,
3.92,run,8.35,5.71,0.15,0.05,-0.63,0.0,0.0,0.0,0.962,0.18,16.26,66.09,1.67,16.7,74.62,3.16,21.09,87.36,1.23,18.54,75.85,1.41,19.25,85.69,1.41,16.17,74.44,0.01,17.02,67.14,1.48,18.18,75.77,2.7,25.17,89.99,1.14,18.91,76.08,1.48,22.26,87.3,1.53,18.92,76.15,0.0004,0.764,0.0251,0.0421,0.7851,0.1267,0.0771,0.9122,0.2941,0.0326,0.7984,0.1303,0.0422,0.8593,0.2624,0.0438,0.7985,0.1312,0.006,0.026,0.026,0.0,0.065,0.111,0.006,0.851,0.189,0.0,0.006,0.013,0.0,0.566,0.195,0.0,0.182,0.071,0.0046,0.2777,1.1505,0.0291,0.2838,1.3008,0.0583,0.3666,1.5171,0.0199,0.3175,1.3223,0.0261,0.3329,1.4941,0.023,0.2777,1.2947,-0.0,0.0,0.0,-0.0,-0.0,0.0,-0.0,0.0,0.0,-0.0,0.0,0.0,-0.0,0.0,0.0,0.0,0.0,0.0015,0.6938,0.1918,0.0031,0.0015,-0.0085,0.0004,0.764,0.0251,0.0421,0.7851,0.1267,0.077,0.9122,0.294,0.0326,0.7984,0.1304,0.0422,0.8593,0.2624,0.0437,0.7985,0.1312,0.0,0.0,0.0,0.0,0.0,0.0,0.0,0.0,0.0,
3.96,run,8.35,5.71,0.11,-0.05,-0.51,0.0,0.0,0.0,0.962,0.18,16.26,66.09,1.67,16.7,74.62,3.16,21.09,87.36,1.23,18.54,75.85,1.41,19.25,85.69,1.41,16.17,74.44,0.01,17.02,67.14,1.47,18.18,75.77,2.7,25.17,89.99,1.14,18.91,76.08,1.48,22.27,87.3,1.53,18.92,76.15,0.0004,0.764,0.0251,0.0421,0.7851,0.1267,0.077,0.9123,0.294,0.0326,0.7984,0.1304,0.0422,0.8594,0.2624,0.0437,0.7985,0.1312,0.006,0.019,0.033,0.006,0.058,0.111,0.013,0.864,0.163,0.0,0.006,0.013,0.0,0.507,0.136,0.0,0.214,0.065,0.0046,0.2777,1.1505,0.0291,0.2838,1.3008,0.0583,0.3666,1.5171,0.0199,0.3175,1.3223,0.0261,0.3329,1.4941,0.023,0.2777,1.2947,-0.0,0.0,0.0,-0.0,-0.0,0.0,-0.0,0.0,0.0,-0.0,0.0,0.0,-0.0,0.0,0.0,0.0,0.0,0.0011,0.6937,0.1917,0.0025,0.0009,-0.011,0.0004,0.764,0.0251,0.0421,0.7851,0.1267,0.0771,0.9122,0.2941,0.0326,0.7984,0.1303,0.0422,0.8593,0.2624,0.0438,0.7985,0.1312,0.0,0.0,0.0,0.0,0.0,0.0,0.0,0.0,0.0,
4.0,run,8.35,5.71,0.19,0.03,-0.55,0.0,0.0,0.0,0.962,0.18,16.26,66.09,1.67,16.7,74.62,3.16,21.09,87.36,1.23,18.54,75.85,1.41,19.25,85.69,1.41,16.17,74.44,0.01,17.02,67.14,1.47,18.18,75.77,2.7,25.17,89.99,1.14,18.91,76.08,1.48,22.26,87.3,1.53,18.92,76.15,0.0004,0.764,0.0251,0.0421,0.7851,0.1267,0.077,0.9122,0.2941,0.0326,0.7984,0.1304,0.0422,0.8593,0.2624,0.0437,0.7986,0.1312,0.006,0.019,0.033,0.006,0.058,0.111,0.013,0.864,0.163,0.0,0.006,0.013,0.0,0.507,0.136,0.0,0.214,0.065,0.0046,0.2777,1.1505,0.0291,0.2838,1.3008,0.0583,0.3666,1.5171,0.0199,0.3175,1.3223,0.0261,0.3329,1.4941,0.023,0.2777,1.2947,-0.0,0.0,0.0,-0.0,-0.0,0.0,-0.0,0.0,0.0,-0.0,0.0,0.0,-0.0,0.0,0.0,0.0,0.0,0.0008,0.6935,0.1916,0.0019,-0.0009,-0.0089,0.0004,0.764,0.0251,0.0421,0.7851,0.1267,0.077,0.9123,0.294,0.0326,0.7984,0.1304,0.0422,0.8594,0.2624,0.0437,0.7985,0.1312,0.0,0.0,0.0,0.0,0.0,0.0,0.0,0.0,0.0,
4.04,run,8.35,5.72,0.21,0.13,-0.55,0.0,0.0,0.0,0.962,0.18,16.26,66.09,1.67,16.7,74.62,3.16,21.09,87.36,1.23,18.54,75.85,1.41,19.25,85.69,1.41,16.17,74.44,0.01,17.02,67.14,1.47,18.18,75.77,2.7,25.17,89.99,1.14,18.91,76.08,1.48,22.26,87.3,1.53,18.92,76.15,0.0004,0.764,0.0252,0.0421,0.7851,0.1267,0.077,0.9122,0.294,0.0326,0.7984,0.1304,0.0422,0.8593,0.2624,0.0437,0.7985,0.1312,0.006,0.019,0.033,0.006,0.058,0.111,0.013,0.864,0.163,0.0,0.006,0.013,0.0,0.507,0.136,0.0,0.214,0.065,0.0046,0.2777,1.1505,0.0291,0.2838,1.3008,0.0583,0.3666,1.5171,0.0199,0.3175,1.3223,0.0261,0.3329,1.4941,0.023,0.2777,1.2947,-0.0,0.0,0.0,-0.0,-0.0,0.0,-0.0,0.0,0.0,-0.0,0.0,0.0,-0.0,0.0,0.0,0.0,0.0,0.0005,0.6937,0.1918,0.0033,0.0005,-0.0095,0.0004,0.764,0.0251,0.0421,0.7851,0.1267,0.077,0.9122,0.2941,0.0326,0.7984,0.1304,0.0422,0.8593,0.2624,0.0437,0.7986,0.1312,0.0,0.0,0.0,0.0,0.0,0.0,0.0,0.0,0.0,
4.08,run,8.35,5.72,0.15,0.07,-0.47,0.0,0.0,0.0,0.962,0.18,16.26,66.09,1.67,16.7,74.62,3.16,21.09,87.36,1.23,18.54,75.85,1.41,19.25,85.69,1.41,16.17,74.44,0.01,17.02,67.14,1.47,18.18,75.77,2.7,25.17,90.0,1.14,18.91,76.08,1.48,22.26,87.31,1.53,18.92,76.15,0.0004,0.764,0.0252,0.0421,0.7851,0.1267,0.0771,0.9122,0.2941,0.0326,0.7984,0.1304,0.0422,0.8594,0.2624,0.0438,0.7985,0.1312,0.006,0.019,0.033,0.006,0.058,0.071,0.013,0.949,0.208,0.0,0.006,0.013,0.0,0.526,0.175,0.0,0.195,0.071,0.0046,0.2777,1.1505,0.0291,0.2838,1.3008,0.0583,0.3666,1.5171,0.0199,0.3175,1.3223,0.0261,0.3329,1.4941,0.023,0.2777,1.2947,-0.0,0.0,0.0,-0.0,-0.0,0.0,-0.0,0.0,0.0,-0.0,0.0,0.0,-0.0,0.0,0.0,0.0,0.0,0.0004,0.6939,0.1926,0.0036,0.0023,-0.0095,0.0004,0.764,0.0252,0.0421,0.7851,0.1267,0.077,0.9122,0.294,0.0326,0.7984,0.1304,0.0422,0.8593,0.2624,0.0437,0.7985,0.1312,0.0,0.0,0.0,0.0,0.0,0.0,0.0,0.0,0.0,
4.12,run,8.35,5.72,0.13,-0.1,-0.61,0.0,0.0,0.0,0.962,0.18,16.26,66.09,1.67,16.7,74.62,3.16,21.09,87.36,1.23,18.54,75.85,1.41,19.25,85.69,1.41,16.17,74.44,0.01,17.02,67.14,1.47,18.18,75.77,2.7,25.17,90.0,1.14,18.91,76.08,1.48,22.27,87.31,1.53,18.92,76.15,0.0004,0.764,0.0252,0.0421,0.7852,0.1267,0.077,0.9123,0.2941,0.0326,0.7984,0.1304,0.0422,0.8594,0.2624,0.0437,0.7986,0.1312,0.006,0.019,0.033,0.006,0.058,0.071,0.013,0.949,0.208,0.0,0.006,0.013,0.0,0.526,0.175,0.0,0.195,0.071,0.0046,0.2777,1.1505,0.0291,0.2838,1.3008,0.0583,0.3666,1.5171,0.0199,0.3175,1.3223,0.0261,0.3329,1.4941,0.023,0.2777,1.2947,-0.0,0.0,0.0,-0.0,-0.0,0.0,-0.0,0.0,0.0,-0.0,0.0,0.0,-0.0,0.0,0.0,0.0,0.0,0.0003,0.6935,0.1926,0.0027,0.0011,-0.0082,0.0004,0.764,0.0252,0.0421,0.7851,0.1267,0.0771,0.9122,0.2941,0.0326,0.7984,0.1304,0.0422,0.8594,0.2624,0.0438,0.7985,0.1312,0.0,0.0,0.0,0.0,0.0,0.0,0.0,0.0,0.0,
4.16,run,8.35,5.73,0.18,0.05,-0.52,0.0,0.0,0.0,0.962,0.18,16.26,66.09,1.67,16.7,74.62,3.16,21.09,87.36,1.23,18.54,75.85,1.41,19.25,85.69,1.41,16.17,74.44,0.01,17.02,67.14,1.47,18.18,75.77,2.69,25.18,90.0,1.14,18.91,76.09,1.48,22.27,87.31,1.53,18.92,76.16,0.0004,0.764,0.0252,0.0421,0.7852,0.1268,0.077,0.9124,0.2941,0.0326,0.7985,0.1304,0.0422,0.8595,0.2624,0.0436,0.7986,0.1312,0.006,0.019,0.033,0.006,0.058,0.071,0.013,0.949,0.208,0.0,0.006,0.013,0.0,0.526,0.175,0.0,0.195,0.071,0.0046,0.2777,1.1505,0.0291,0.2838,1.3008,0.0583,0.3666,1.5171,0.0199,0.3175,1.3223,0.0261,0.3329,1.4941,0.023,0.2777,1.2947,-0.0,0.0,0.0,-0.0,-0.0,0.0,-0.0,0.0,0.0,-0.0,0.0,0.0,-0.0,0.0,0.0,0.0,0.0,0.0002,0.6934,0.1924,0.0023,-0.0018,-0.0106,0.0004,0.764,0.0252,0.0421,0.7852,0.1267,0.077,0.9123,0.2941,0.0326,0.7984,0.1304,0.0422,0.8594,0.2624,0.0437,0.7986,0.1312,0.0,0.0,0.0,0.0,0.0,0.0,0.0,0.0,0.0,
4.2,run,8.35,5.73,0.17,0.1,-0.53,0.0,0.0,0.0,0.962,0.18,16.26,66.09,1.67,16.7,74.62,3.16,21.09,87.36,1.23,18.54,75.85,1.41,19.25,85.69,1.41,16.17,74.44,0.01,17.02,67.14,1.47,18.18,75.77,2.7,25.18,90.0,1.14,18.91,76.08,1.48,22.27,87.31,1.53,18.92,76.15,0.0004,0.7641,0.0252,0.0421,0.7852,0.1267,0.077,0.9123,0.2941,0.0326,0.7984,0.1304,0.0422,0.8594,0.2624,0.0437,0.7986,0.1312,0.006,0.019,0.033,0.0,0.052,0.111,0.006,0.864,0.163,0.0,0.0,0.013,0.0,0.474,0.149,0.0,0.208,0.071,0.0046,0.2777,1.1505,0.0291,0.2838,1.3008,0.0583,0.3666,1.5171,0.0199,0.3175,1.3223,0.0261,0.3329,1.4941,0.023,0.2777,1.2947,-0.0,0.0,0.0,-0.0,-0.0,0.0,-0.0,0.0,0.0,-0.0,0.0,0.0,-0.0,0.0,0.0,0.0,0.0,0.0001,0.6932,0.1928,0.0032,0.0009,-0.009,0.0004,0.764,0.0252,0.0421,0.7852,0.1268,0.077,0.9124,0.2941,0.0326,0.7985,0.1304,0.0422,0.8595,0.2624,0.0436,0.7986,0.1312,0.0,0.0,0.0,0.0,0.0,0.0,0.0,0.0,0.0,
4.24,run,8.34,5.73,0.15,0.07,-0.61,0.0,0.0,0.0,0.962,0.18,16.26,66.09,1.67,16.7,74.62,3.16,21.09,87.36,1.23,18.54,75.85,1.41,19.25,85.69,1.41,16.17,74.44,0.01,17.02,67.14,1.47,18.18,75.78,2.7,25.18,90.0,1.14,18.91,76.09,1.48,22.27,87.31,1.53,18.92,76.15,0.0004,0.7641,0.0252,0.0421,0.7852,0.1268,0.077,0.9123,0.2941,0.0326,0.7984,0.1304,0.0422,0.8595,0.2624,0.0437,0.7986,0.1312,0.006,0.019,0.033,0.0,0.052,0.111,0.006,0.864,0.163,0.0,0.0,0.013,0.0,0.474,0.149,0.0,0.208,0.071,0.0046,0.2777,1.1505,0.0291,0.2838,1.3008,0.0583,0.3666,1.5171,0.0199,0.3175,1.3223,0.0261,0.3329,1.4941,0.023,0.2777,1.2947,-0.0,0.0,0.0,-0.0,-0.0,0.0,-0.0,0.0,0.0,-0.0,0.0,0.0,-0.0,0.0,0.0,0.0,0.0,0.0001,0.6931,0.1932,0.0029,0.0018,-0.0093,0.0004,0.7641,0.0252,0.0421,0.7852,0.1267,0.077,0.9123,0.2941,0.0326,0.7984,0.1304,0.0422,0.8594,0.2624,0.0437,0.7986,0.1312,0.0,0.0,0.0,0.0,0.0,0.0,0.0,0.0,0.0,
4.28,run,8.34,5.73,0.18,-0.11,-0.64,0.0,0.0,0.0,0.962,0.18,16.26,66.09,1.67,16.7,74.62,3.16,21.09,87.36,1.23,18.54,75.85,1.41,19.25,85.69,1.41,16.17,74.44,0.01,17.02,67.15,1.47,18.19,75.78,2.69,25.18,90.0,1.14,18.92,76.09,1.47,22.27,87.31,1.53,18.92,76.15,0.0003,0.7641,0.0252,0.0421,0.7852,0.1268,0.077,0.9124,0.2941,0.0326,0.7985,0.1305,0.0421,0.8595,0.2624,0.0437,0.7986,0.1312,0.006,0.019,0.033,0.0,0.052,0.111,0.006,0.864,0.163,0.0,0.0,0.013,0.0,0.474,0.149,0.0,0.208,0.071,0.0046,0.2777,1.1505,0.0291,0.2838,1.3008,0.0583,0.3666,1.5171,0.0199,0.3175,1.3223,0.0261,0.3329,1.4941,0.023,0.2777,1.2947,-0.0,0.0,0.0,-0.0,-0.0,0.0,-0.0,0.0,0.0,-0.0,0.0,0.0,-0.0,0.0,0.0,0.0,0.0,0.0001,0.6928,0.1932,0.0025,0.0013,-0.0106,0.0004,0.7641,0.0252,0.0421,0.7852,0.1268,0.077,0.9123,0.2941,0.0326,0.7984,0.1304,0.0422,0.8595,0.2624,0.0437,0.7986,0.1312,0.0,0.0,0.0,0.0,0.0,0.0,0.0,0.0,0.0,
4.32,run,8.35,5.73,0.24,-0.02,-0.55,0.0,0.0,0.0,0.962,0.18,16.26,66.09,1.67,16.7,74.62,3.16,21.09,87.36,1.23,18.54,75.85,1.41,19.25,85.69,1.41,16.17,74.44,0.01,17.02,67.15,1.47,18.19,75.78,2.69,25.18,90.0,1.14,18.92,76.09,1.48,22.27,87.31,1.53,18.93,76.16,0.0003,0.7641,0.0253,0.042,0.7852,0.1268,0.0769,0.9124,0.2941,0.0326,0.7985,0.1305,0.0422,0.8595,0.2624,0.0436,0.7987,0.1312,0.006,0.019,0.026,0.006,0.071,0.071,0.013,0.897,0.163,0.0,0.006,0.013,0.0,0.566,0.189,0.0,0.189,0.071,0.0046,0.2777,1.1505,0.0291,0.2838,1.3008,0.0583,0.3666,1.5171,0.0199,0.3175,1.3223,0.0261,0.3329,1.4941,0.023,0.2777,1.2947,-0.0,0.0,0.0,-0.0,-0.0,0.0,-0.0,0.0,0.0,-0.0,0.0,0.0,-0.0,0.0,0.0,0.0,0.0,0.0,0.6929,0.1931,0.0031,-0.0019,-0.0111,0.0003,0.7641,0.0252,0.0421,0.7852,0.1268,0.077,0.9124,0.2941,0.0326,0.7985,0.1305,0.0421,0.8595,0.2624,0.0437,0.7986,0.1312,0.0,0.0,0.0,0.0,0.0,0.0,0.0,0.0,0.0,
4.36,run,8.35,5.73,0.2,0.07,-0.49,0.0,0.0,0.0,0.962,0.18,16.26,66.09,1.67,16.7,74.62,3.16,21.09,87.36,1.23,18.54,75.85,1.41,19.25,85.69,1.41,16.17,74.44,0.01,17.02,67.15,1.47,18.19,75.77,2.69,25.18,90.0,1.14,18.92,76.09,1.48,22.27,87.31,1.53,18.92,76.15,0.0004,0.7641,0.0253,0.0421,0.7852,0.1268,0.077,0.9123,0.2941,0.0326,0.7985,0.1304,0.0422,0.8594,0.2624,0.0437,0.7986,0.1312,0.006,0.019,0.026,0.006,0.071,0.071,0.013,0.897,0.163,0.0,0.006,0.013,0.0,0.566,0.189,0.0,0.189,0.071,0.0046,0.2777,1.1505,0.0291,0.2838,1.3008,0.0583,0.3666,1.5171,0.0199,0.3175,1.3223,0.0261,0.3329,1.4941,0.023,0.2777,1.2947,-0.0,0.0,0.0,-0.0,-0.0,0.0,-0.0,0.0,0.0,-0.0,0.0,0.0,-0.0,0.0,0.0,0.0,0.0,0.0,0.6932,0.1931,0.0041,-0.0003,-0.0095,0.0003,0.7641,0.0253,0.042,0.7852,0.1268,0.0769,0.9124,0.2941,0.0326,0.7985,0.1305,0.0422,0.8595,0.2624,0.0436,0.7987,0.1312,0.0,0.0,0.0,0.0,0.0,0.0,0.0,0.0,0.0,
4.4,run,8.34,5.73,0.21,0.11,-0.58,0.0,0.0,0.0,0.962,0.18,16.26,66.09,1.67,16.7,74.62,3.16,21.09,87.36,1.23,18.54,75.85,1.41,19.25,85.69,1.41,16.17,74.44,0.01,17.02,67.14,1.47,18.19,75.77,2.7,25.18,90.0,1.14,18.91,76.09,1.48,22.27,87.31,1.53,18.92,76.15,0.0004,0.7641,0.0252,0.0421,0.7852,0.1268,0.077,0.9123,0.2941,0.0326,0.7984,0.1304,0.0422,0.8594,0.2624,0.0437,0.7986,0.1312,0.006,0.019,0.026,0.006,0.071,0.071,0.013,0.897,0.163,0.0,0.006,0.013,0.0,0.566,0.189,0.0,0.189,0.071,0.0046,0.2777,1.1505,0.0291,0.2838,1.3008,0.0583,0.3666,1.5171,0.0199,0.3175,1.3223,0.0261,0.3329,1.4941,0.023,0.2777,1.2947,-0.0,0.0,0.0,-0.0,-0.0,0.0,-0.0,0.0,0.0,-0.0,0.0,0.0,-0.0,0.0,0.0,0.0,0.0,0.0,0.693,0.1932,0.0035,0.0013,-0.0086,0.0004,0.7641,0.0253,0.0421,0.7852,0.1268,0.077,0.9123,0.2941,0.0326,0.7985,0.1304,0.0422,0.8594,0.2624,0.0437,0.7986,0.1312,0.0,0.0,0.0,0.0,0.0,0.0,0.0,0.0,0.0,
4.44,run,8.34,5.73,0.14,-0.03,-0.52,0.0,0.0,0.0,0.962,0.18,16.26,66.09,1.67,16.7,74.62,3.16,21.09,87.36,1.23,18.54,75.85,1.41,19.25,85.69,1.41,16.17,74.44,0.01,17.02,67.15,1.47,18.18,75.78,2.69,25.18,90.0,1.14,18.91,76.09,1.48,22.27,87.31,1.53,18.92,76.15,0.0004,0.7641,0.0252,0.0421,0.7852,0.1268,0.077,0.9124,0.2941,0.0326,0.7984,0.1305,0.0421,0.8595,0.2624,0.0437,0.7986,0.1312,0.006,0.026,0.026,0.006,0.058,0.084,0.006,0.923,0.175,0.0,0.006,0.013,0.0,0.468,0.182,0.0,0.175,0.071,0.0046,0.2777,1.1505,0.0291,0.2838,1.3008,0.0583,0.3666,1.5171,0.0199,0.3175,1.3223,0.0261,0.3329,1.4941,0.023,0.2777,1.2947,-0.0,0.0,0.0,-0.0,-0.0,0.0,-0.0,0.0,0.0,-0.0,0.0,0.0,-0.0,0.0,0.0,0.0,0.0,0.0,0.6929,0.1934,0.0036,0.0019,-0.0101,0.0004,0.7641,0.0252,0.0421,0.7852,0.1268,0.077,0.9123,0.2941,0.0326,0.7984,0.1304,0.0422,0.8594,0.2624,0.0437,0.7986,0.1312,0.0,0.0,0.0,0.0,0.0,0.0,0.0,0.0,0.0,
4.48,run,8.34,5.73,0.18,0.03,-0.52,0.0,0.0,0.0,0.962,0.18,16.26,66.09,1.67,16.7,74.62,3.16,21.09,87.36,1.23,18.54,75.85,1.41,19.25,85.69,1.41,16.17,74.44,0.01,17.02,67.15,1.47,18.19,75.78,2.69,25.18,90.0,1.14,18.92,76.09,1.48,22.27,87.31,1.53,18.92,76.15,0.0003,0.7641,0.0253,0.0421,0.7852,0.1268,0.077,0.9124,0.2941,0.0326,0.7985,0.1304,0.0421,0.8595,0.2624,0.0437,0.7986,0.1312,0.006,0.026,0.026,0.006,0.058,0.084,0.006,0.923,0.175,0.0,0.006,0.013,0.0,0.468,0.182,0.0,0.175,0.071,0.0046,0.2777,1.1505,0.0291,0.2838,1.3008,0.0583,0.3666,1.5171,0.0199,0.3175,1.3223,0.0261,0.3329,1.4941,0.023,0.2777,1.2947,-0.0,0.0,0.0,-0.0,-0.0,0.0,-0.0,0.0,0.0,-0.0,0.0,0.0,-0.0,0.0,0.0,0.0,0.0,0.0,0.6927,0.1933,0.0024,-0.0005,-0.009,0.0004,0.7641,0.0252,0.0421,0.7852,0.1268,0.077,0.9124,0.2941,0.0326,0.7984,0.1305,0.0421,0.8595,0.2624,0.0437,0.7986,0.1312,0.0,0.0,0.0,0.0,0.0,0.0,0.0,0.0,0.0,
4.52,run,8.34,5.73,0.19,0.07,-0.55,0.0,0.0,0.0,0.962,0.18,16.26,66.09,1.67,16.7,74.62,3.16,21.09,87.36,1.23,18.54,75.85,1.41,19.25,85.69,1.41,16.17,74.44,0.01,17.02,67.15,1.47,18.19,75.78,2.69,25.18,90.0,1.14,18.92,76.09,1.48,22.27,87.31,1.53,18.92,76.15,0.0003,0.7641,0.0252,0.0421,0.7852,0.1268,0.077,0.9124,0.2941,0.0326,0.7985,0.1304,0.0421,0.8595,0.2624,0.0437,0.7986,0.1312,0.006,0.026,0.026,0.006,0.058,0.084,0.006,0.923,0.175,0.0,0.006,0.013,0.0,0.468,0.182,0.0,0.175,0.071,0.0046,0.2777,1.1505,0.0291,0.2838,1.3008,0.0583,0.3666,1.5171,0.0199,0.3175,1.3223,0.0261,0.3329,1.4941,0.023,0.2777,1.2947,-0.0,0.0,0.0,-0.0,-0.0,0.0,-0.0,0.0,0.0,-0.0,0.0,0.0,-0.0,0.0,0.0,0.0,0.0,0.0,0.6925,0.1931,0.0032,0.0005,-0.0091,0.0003,0.7641,0.0253,0.0421,0.7852,0.1268,0.077,0.9124,0.2941,0.0326,0.7985,0.1304,0.0421,0.8595,0.2624,0.0437,0.7986,0.1312,0.0,0.0,0.0,0.0,0.0,0.0,0.0,0.0,0.0,
4.56,run,8.34,5.73,0.26,0.01,-0.52,0.0,0.0,0.0,0.962,0.18,16.26,66.09,1.67,16.7,74.62,3.16,21.09,87.36,1.23,18.54,75.85,1.41,19.25,85.69,1.41,16.17,74.44,0.01,17.02,67.15,1.47,18.18,75.78,2.69,25.18,90.0,1.14,18.92,76.09,1.47,22.27,87.31,1.53,18.92,76.15,0.0003,0.7641,0.0252,0.0421,0.7852,0.1268,0.077,0.9124,0.2941,0.0326,0.7985,0.1305,0.0421,0.8595,0.2624,0.0437,0.7986,0.1312,0.006,0.019,0.026,0.006,0.058,0.104,0.006,0.838,0.214,0.0,0.006,0.013,0.0,0.5,0.189,0.0,0.221,0.091,0.0046,0.2777,1.1505,0.0291,0.2838,1.3008,0.0583,0.3666,1.5171,0.0199,0.3175,1.3223,0.0261,0.3329,1.4941,0.023,0.2777,1.2947,-0.0,0.0,0.0,-0.0,-0.0,0.0,-0.0,0.0,0.0,-0.0,0.0,0.0,-0.0,0.0,0.0,0.0,0.0,0.0,0.6924,0.1932,0.0033,0.0013,-0.0095,0.0003,0.7641,0.0252,0.0421,0.7852,0.1268,0.077,0.9124,0.2941,0.0326,0.7985,0.1304,0.0421,0.8595,0.2624,0.0437,0.7986,0.1312,0.0,0.0,0.0,0.0,0.0,0.0,0.0,0.0,0.0,
4.6,run,8.34,5.73,0.15,0.01,-0.53,0.0,0.0,0.0,0.962,0.18,16.26,66.09,1.67,16.7,74.62,3.16,21.09,87.36,1.23,18.54,75.85,1.41,19.25,85.69,1.41,16.17,74.44,0.01,17.02,67.15,1.47,18.18,75.77,2.69,25.18,90.0,1.14,18.91,76.09,1.48,22.27,87.31,1.53,18.92,76.15,0.0004,0.7641,0.0252,0.0421,0.7852,0.1268,0.077,0.9123,0.2941,0.0326,0.7985,0.1304,0.0422,0.8594,0.2624,0.0437,0.7986,0.1312,0.006,0.019,0.026,0.006,0.058,0.104,0.006,0.838,0.214,0.0,0.006,0.013,0.0,0.5,0.189,0.0,0.221,0.091,0.0046,0.2777,1.1505,0.0291,0.2838,1.3008,0.0583,0.3666,1.5171,0.0199,0.3175,1.3223,0.0261,0.3329,1.4941,0.023,0.2777,1.2947,-0.0,0.0,0.0,-0.0,-0.0,0.0,-0.0,0.0,0.0,-0.0,0.0,0.0,-0.0,0.0,0.0,0.0,0.0,0.0,0.6926,0.1929,0.0045,0.0002,-0.009,0.0003,0.7641,0.0252,0.0421,0.7852,0.1268,0.077,0.9124,0.2941,0.0326,0.7985,0.1305,0.0421,0.8595,0.2624,0.0437,0.7986,0.1312,0.0,0.0,0.0,0.0,0.0,0.0,0.0,0.0,0.0,
4.64,run,8.34,5.73,0.18,-0.02,-0.55,0.0,0.0,0.0,0.962,0.18,16.26,66.09,1.67,16.7,74.62,3.16,21.09,87.36,1.23,18.54,75.85,1.41,19.25,85.69,1.41,16.17,74.44,0.01,17.02,67.15,1.47,18.19,75.78,2.69,25.18,90.0,1.14,18.92,76.09,1.48,22.27,87.31,1.53,18.92,76.15,0.0003,0.7641,0.0252,0.0421,0.7852,0.1268,0.077,0.9124,0.2941,0.0326,0.7985,0.1304,0.0422,0.8595,0.2624,0.0437,0.7986,0.1312,0.006,0.019,0.026,0.006,0.058,0.104,0.006,0.838,0.214,0.0,0.006,0.013,0.0,0.5,0.189,0.0,0.221,0.091,0.0046,0.2777,1.1505,0.0291,0.2838,1.3008,0.0583,0.3666,1.5171,0.0199,0.3175,1.3223,0.0261,0.3329,1.4941,0.023,0.2777,1.2947,-0.0,0.0,0.0,-0.0,-0.0,0.0,-0.0,0.0,0.0,-0.0,0.0,0.0,-0.0,0.0,0.0,0.0,0.0,0.0,0.6928,0.193,0.0025,0.0002,-0.0093,0.0004,0.7641,0.0252,0.0421,0.7852,0.1268,0.077,0.9123,0.2941,0.0326,0.7985,0.1304,0.0422,0.8594,0.2624,0.0437,0.7986,0.1312,0.0,0.0,0.0,0.0,0.0,0.0,0.0,0.0,0.0,
4.68,run,8.34,5.73,0.14,0.05,-0.48,0.0,0.0,0.0,0.981,0.18,16.26,66.09,1.67,16.7,74.62,3.16,21.09,87.36,1.23,18.54,75.85,1.41,19.25,85.69,1.41,16.17,74.44,0.01,17.02,67.15,1.47,18.19,75.78,2.69,25.18,90.0,1.14,18.92,76.09,1.48,22.27,87.31,1.53,18.92,76.15,0.0003,0.7641,0.0253,0.0421,0.7852,0.1268,0.077,0.9124,0.2941,0.0326,0.7985,0.1305,0.0422,0.8595,0.2624,0.0437,0.7986,0.1312,0.006,0.019,0.039,0.006,0.058,0.071,0.013,0.981,0.163,0.0,0.006,0.013,0.0,0.546,0.182,0.0,0.214,0.071,0.0046,0.2777,1.1505,0.0291,0.2838,1.3008,0.0583,0.3666,1.5171,0.0199,0.3175,1.3223,0.0261,0.3329,1.4941,0.023,0.2777,1.2947,-0.0,0.0,0.0,-0.0,-0.0,0.0,-0.0,0.0,0.0,-0.0,0.0,0.0,-0.0,0.0,0.0,0.0,0.0,0.0,0.6929,0.1934,0.0032,-0.0003,-0.0097,0.0003,0.7641,0.0252,0.0421,0.7852,0.1268,0.077,0.9124,0.2941,0.0326,0.7985,0.1304,0.0422,0.8595,0.2624,0.0437,0.7986,0.1312,0.0,0.0,0.0,0.0,0.0,0.0,0.0,0.0,0.0,
4.72,run,8.34,5.73,0.16,-0.07,-0.53,0.0,0.0,0.0,0.981,0.18,16.26,66.09,1.67,16.7,74.62,3.16,21.09,87.36,1.23,18.54,75.85,1.41,19.25,85.69,1.41,16.17,74.44,0.01,17.02,67.15,1.47,18.19,75.78,2.69,25.18,90.0,1.14,18.92,76.09,1.48,22.27,87.31,1.53,18.92,76.15,0.0003,0.7641,0.0252,0.0421,0.7852,0.1268,0.077,0.9123,0.2941,0.0326,0.7985,0.1304,0.0422,0.8595,0.2624,0.0437,0.7986,0.1312,0.006,0.019,0.039,0.006,0.058,0.071,0.013,0.981,0.163,0.0,0.006,0.013,0.0,0.546,0.182,0.0,0.214,0.071,0.0046,0.2777,1.1505,0.0291,0.2838,1.3008,0.0583,0.3666,1.5171,0.0199,0.3175,1.3223,0.0261,0.3329,1.4941,0.023,0.2777,1.2947,-0.0,0.0,0.0,-0.0,-0.0,0.0,-0.0,0.0,0.0,-0.0,0.0,0.0,-0.0,0.0,0.0,0.0,0.0,0.0,0.6928,0.1933,0.0024,0.0009,-0.0083,0.0003,0.7641,0.0253,0.0421,0.7852,0.1268,0.077,0.9124,0.2941,0.0326,0.7985,0.1305,0.0422,0.8595,0.2624,0.0437,0.7986,0.1312,0.0,0.0,0.0,0.0,0.0,0.0,0.0,0.0,0.0,
4.76,run,8.34,5.73,0.16,-0.02,-0.54,0.0,0.0,0.0,0.981,0.18,16.26,66.09,1.67,16.7,74.62,3.16,21.09,87.36,1.23,18.54,75.85,1.41,19.25,85.69,1.41,16.17,74.44,0.01,17.02,67.15,1.47,18.19,75.78,2.69,25.18,90.0,1.14,18.92,76.09,1.48,22.27,87.31,1.53,18.93,76.15,0.0003,0.7641,0.0253,0.0421,0.7852,0.1268,0.0769,0.9124,0.2941,0.0326,0.7985,0.1305,0.0421,0.8595,0.2624,0.0436,0.7986,0.1312,0.006,0.019,0.039,0.006,0.058,0.071,0.013,0.981,0.163,0.0,0.006,0.013,0.0,0.546,0.182,0.0,0.214,0.071,0.0046,0.2777,1.1505,0.0291,0.2838,1.3008,0.0583,0.3666,1.5171,0.0199,0.3175,1.3223,0.0261,0.3329,1.4941,0.023,0.2777,1.2947,-0.0,0.0,0.0,-0.0,-0.0,0.0,-0.0,0.0,0.0,-0.0,0.0,0.0,-0.0,0.0,0.0,0.0,0.0,0.0,0.6926,0.1933,0.0028,-0.0013,-0.0093,0.0003,0.7641,0.0252,0.0421,0.7852,0.1268,0.077,0.9123,0.2941,0.0326,0.7985,0.1304,0.0422,0.8595,0.2624,0.0437,0.7986,0.1312,0.0,0.0,0.0,0.0,0.0,0.0,0.0,0.0,0.0,
4.8,run,8.34,5.74,0.18,0.07,-0.55,0.0,0.0,0.0,0.981,0.18,16.26,66.09,1.67,16.7,74.62,3.16,21.09,87.36,1.23,18.54,75.85,1.41,19.25,85.69,1.41,16.17,74.44,0.01,17.02,67.15,1.47,18.19,75.78,2.69,25.18,90.0,1.14,18.92,76.09,1.47,22.27,87.31,1.53,18.93,76.15,0.0003,0.7641,0.0253,0.0421,0.7852,0.1268,0.0769,0.9124,0.2941,0.0326,0.7985,0.1305,0.0421,0.8595,0.2624,0.0436,0.7986,0.1312,0.006,0.019,0.026,0.0,0.058,0.078,0.006,0.916,0.201,0.0,0.006,0.006,0.0,0.455,0.136,0.0,0.189,0.097,0.0046,0.2777,1.1505,0.0291,0.2838,1.3008,0.0583,0.3666,1.5171,0.0199,0.3175,1.3223,0.0261,0.3329,1.4941,0.023,0.2777,1.2947,-0.0,0.0,0.0,-0.0,-0.0,0.0,-0.0,0.0,0.0,-0.0,0.0,0.0,-0.0,0.0,0.0,0.0,0.0,0.0,0.6925,0.1933,0.0028,-0.0003,-0.0094,0.0003,0.7641,0.0253,0.0421,0.7852,0.1268,0.0769,0.9124,0.2941,0.0326,0.7985,0.1305,0.0421,0.8595,0.2624,0.0436,0.7986,0.1312,0.0,0.0,0.0,0.0,0.0,0.0,0.0,0.0,0.0,
4.84,run,8.34,5.73,0.2,0.03,-0.57,0.0,0.0,0.0,0.981,0.18,16.26,66.09,1.67,16.7,74.62,3.16,21.09,87.36,1.23,18.54,75.85,1.41,19.25,85.69,1.41,16.17,74.44,0.01,17.02,67.15,1.47,18.19,75.78,2.69,25.18,90.0,1.14,18.92,76.09,1.47,22.27,87.31,1.53,18.92,76.15,0.0003,0.7641,0.0253,0.0421,0.7852,0.1268,0.077,0.9124,0.2941,0.0326,0.7985,0.1305,0.0421,0.8595,0.2624,0.0437,0.7986,0.1312,0.006,0.019,0.026,0.0,0.058,0.078,0.006,0.916,0.201,0.0,0.006,0.006,0.0,0.455,0.136,0.0,0.189,0.097,0.0046,0.2777,1.1505,0.0291,0.2838,1.3008,0.0583,0.3666,1.5171,0.0199,0.3175,1.3223,0.0261,0.3329,1.4941,0.023,0.2777,1.2947,-0.0,0.0,0.0,-0.0,-0.0,0.0,-0.0,0.0,0.0,-0.0,0.0,0.0,-0.0,0.0,0.0,0.0,0.0,0.0,0.6927,0.1937,0.0032,0.0013,-0.0097,0.0003,0.7641,0.0253,0.0421,0.7852,0.1268,0.0769,0.9124,0.2941,0.0326,0.7985,0.1305,0.0421,0.8595,0.2624,0.0436,0.7986,0.1312,0.0,0.0,0.0,0.0,0.0,0.0,0.0,0.0,0.0,
4.88,run,8.34,5.74,0.18,0.0,-0.53,0.0,0.0,0.0,0.981,0.18,16.26,66.09,1.67,16.7,74.62,3.16,21.09,87.36,1.23,18.54,75.85,1.41,19.25,85.69,1.41,16.17,74.44,0.01,17.02,67.15,1.47,18.19,75.78,2.69,25.18,90.0,1.14,18.92,76.09,1.47,22.27,87.31,1.53,18.93,76.15,0.0003,0.7641,0.0253,0.0421,0.7852,0.1268,0.0769,0.9124,0.2941,0.0326,0.7985,0.1305,0.0421,0.8595,0.2624,0.0436,0.7986,0.1312,0.006,0.019,0.026,0.0,0.058,0.078,0.006,0.916,0.201,0.0,0.006,0.006,0.0,0.455,0.136,0.0,0.189,0.097,0.0046,0.2777,1.1505,0.0291,0.2838,1.3008,0.0583,0.3666,1.5171,0.0199,0.3175,1.3223,0.0261,0.3329,1.4941,0.023,0.2777,1.2947,-0.0,0.0,0.0,-0.0,-0.0,0.0,-0.0,0.0,0.0,-0.0,0.0,0.0,-0.0,0.0,0.0,0.0,0.0,0.0,0.6926,0.1935,0.0035,0.0005,-0.0099,0.0003,0.7641,0.0253,0.0421,0.7852,0.1268,0.077,0.9124,0.2941,0.0326,0.7985,0.1305,0.0421,0.8595,0.2624,0.0437,0.7986,0.1312,0.0,0.0,0.0,0.0,0.0,0.0,0.0,0.0,0.0,
4.92,run,8.34,5.74,0.08,0.04,-0.46,0.0,0.0,0.0,0.981,0.18,16.26,66.09,1.67,16.7,74.62,3.16,21.09,87.36,1.23,18.54,75.85,1.41,19.25,85.69,1.41,16.17,74.44,0.01,17.02,67.15,1.47,18.19,75.78,2.69,25.18,90.0,1.14,18.92,76.09,1.48,22.27,87.31,1.53,18.93,76.15,0.0003,0.7641,0.0253,0.0421,0.7852,0.1268,0.077,0.9124,0.2941,0.0326,0.7985,0.1305,0.0422,0.8595,0.2625,0.0437,0.7986,0.1312,0.006,0.019,0.026,0.0,0.071,0.111,0.013,0.89,0.208,0.0,0.006,0.006,0.0,0.461,0.175,0.0,0.175,0.091,0.0046,0.2777,1.1505,0.0291,0.2838,1.3008,0.0583,0.3666,1.5171,0.0199,0.3175,1.3223,0.0261,0.3329,1.4941,0.023,0.2777,1.2947,-0.0,0.0,0.0,-0.0,-0.0,0.0,-0.0,0.0,0.0,-0.0,0.0,0.0,-0.0,0.0,0.0,0.0,0.0,0.0,0.6928,0.1937,0.0032,0.0001,-0.0093,0.0003,0.7641,0.0253,0.0421,0.7852,0.1268,0.0769,0.9124,0.2941,0.0326,0.7985,0.1305,0.0421,0.8595,0.2624,0.0436,0.7986,0.1312,0.0,0.0,0.0,0.0,0.0,0.0,0.0,0.0,0.0,
4.96,run,8.34,5.74,0.21,0.0,-0.61,0.0,0.0,0.0,0.981,0.18,16.26,66.09,1.67,16.7,74.62,3.16,21.09,87.36,1.23,18.54,75.85,1.41,19.25,85.69,1.41,16.17,74.44,0.01,17.02,67.15,1.47,18.19,75.78,2.69,25.18,90.0,1.14,18.92,76.09,1.47,22.27,87.31,1.53,18.93,76.15,0.0003,0.7641,0.0253,0.0421,0.7852,0.1268,0.077,0.9124,0.2941,0.0325,0.7985,0.1305,0.0421,0.8595,0.2625,0.0437,0.7986,0.1312,0.006,0.019,0.026,0.0,0.071,0.111,0.013,0.89,0.208,0.0,0.006,0.006,0.0,0.461,0.175,0.0,0.175,0.091,0.0046,0.2777,1.1505,0.0291,0.2838,1.3008,0.0583,0.3666,1.5171,0.0199,0.3175,1.3223,0.0261,0.3329,1.4941,0.023,0.2777,1.2947,-0.0,0.0,0.0,-0.0,-0.0,0.0,-0.0,0.0,0.0,-0.0,0.0,0.0,-0.0,0.0,0.0,0.0,0.0,0.0,0.6927,0.194,0.0013,0.0007,-0.0081,0.0003,0.7641,0.0253,0.0421,0.7852,0.1268,0.077,0.9124,0.2941,0.0326,0.7985,0.1305,0.0422,0.8595,0.2625,0.0437,0.7986,0.1312,0.0,0.0,0.0,0.0,0.0,0.0,0.0,0.0,0.0,
5.0,run,8.35,5.74,0.18,0.07,-0.55,0.0,0.0,0.0,0.981,0.18,16.26,66.09,1.67,16.7,74.62,3.16,21.09,87.36,1.23,18.54,75.85,1.41,19.25,85.69,1.41,16.17,74.44,0.01,17.02,67.15,1.47,18.19,75.78,2.69,25.19,90.0,1.14,18.92,76.09,1.47,22.28,87.31,1.53,18.93,76.16,0.0003,0.7641,0.0253,0.042,0.7852,0.1268,0.0769,0.9125,0.2941,0.0326,0.7985,0.1305,0.0421,0.8596,0.2625,0.0437,0.7987,0.1312,0.006,0.019,0.026,0.0,0.071,0.111,0.013,0.89,0.208,0.0,0.006,0.006,0.0,0.461,0.175,0.0,0.175,0.091,0.0046,0.2777,1.1505,0.0291,0.2838,1.3008,0.0583,0.3666,1.5171,0.0199,0.3175,1.3223,0.0261,0.3329,1.4941,0.023,0.2777,1.2947,-0.0,0.0,0.0,-0.0,-0.0,0.0,-0.0,0.0,0.0,-0.0,0.0,0.0,-0.0,0.0,0.0,0.0,0.0,0.0,0.693,0.1942,0.0036,0.0001,-0.0106,0.0003,0.7641,0.0253,0.0421,0.7852,0.1268,0.077,0.9124,0.2941,0.0325,0.7985,0.1305,0.0421,0.8595,0.2625,0.0437,0.7986,0.1312,0.0,0.0,0.0,0.0,0.0,0.0,0.0,0.0,0.0,
5.04,run,8.34,5.74,0.14,-0.01,-0.61,0.7,0.0,0.0,0.981,0.18,16.26,66.09,1.67,16.7,74.62,3.16,21.09,87.36,1.23,18.54,75.85,1.41,19.25,85.69,1.41,16.17,74.44,-0.04,17.0,66.91,1.47,18.16,75.54,2.68,25.04,89.95,1.2,18.9,75.84,1.43,22.18,87.16,1.49,18.91,76.03,-0.0013,0.7637,0.0224,0.0419,0.7847,0.124,0.0766,0.9098,0.2935,0.0342,0.7981,0.1275,0.0407,0.8578,0.2607,0.0427,0.7984,0.1298,0.006,0.019,0.019,0.0,0.071,0.045,0.013,0.76,0.156,0.0,0.006,0.006,0.0,0.533,0.169,0.0,0.195,0.078,0.0046,0.2777,1.1505,0.0291,0.2838,1.3008,0.0583,0.3666,1.5171,0.0199,0.3175,1.3223,0.0261,0.3329,1.4941,0.023,0.2777,1.2947,-0.0,0.0,0.0,-0.0,-0.0,0.0,-0.0,0.0,0.0,-0.0,0.0,0.0,-0.0,0.0,0.0,0.0,0.0,0.0,0.693,0.1942,0.0032,0.0013,-0.0095,0.0003,0.7641,0.0253,0.042,0.7852,0.1268,0.0769,0.9125,0.2941,0.0326,0.7985,0.1305,0.0421,0.8596,0.2625,0.0437,0.7987,0.1312,0.0,0.0,0.0148,0.0,0.0,0.0,0.0,0.0,0.0,
5.08,run,8.34,5.75,0.35,0.22,-0.79,1.5,0.0,0.0,0.981,0.09,16.26,66.09,1.67,16.7,74.62,3.16,21.09,87.36,1.23,18.54,75.67,1.41,19.25,85.69,1.41,16.17,74.44,-0.1,16.98,66.68,1.46,18.12,75.32,2.67,24.89,89.89,1.26,18.87,75.61,1.37,22.09,87.0,1.45,18.88,75.94,-0.0028,0.7632,0.0197,0.0416,0.784,0.1214,0.0763,0.907,0.2929,0.0359,0.7976,0.1248,0.0392,0.8561,0.2589,0.0415,0.7979,0.1287,0.006,0.019,0.019,0.0,0.071,0.045,0.013,0.76,0.156,0.0,0.006,0.006,0.0,0.533,0.169,0.0,0.195,0.078,0.0046,0.2777,1.1505,0.0291,0.2838,1.3008,0.0583,0.3666,1.5171,0.0199,0.3175,1.3223,0.0261,0.3329,1.4941,0.023,0.2777,1.2947,-0.0,0.0,0.0,-0.0,-0.0,0.0,-0.0,0.0,0.0,-0.0,0.0,0.0,-0.0,0.0,0.0,0.0,0.0,0.0,0.6927,0.1944,0.0024,-0.0002,-0.0106,-0.0013,0.7637,0.0224,0.0419,0.7847,0.124,0.0766,0.9098,0.2935,0.0342,0.7981,0.1275,0.0407,0.8578,0.2607,0.0427,0.7984,0.1298,0.0,0.0,0.0296,0.0,0.0,0.0,0.0,0.0,0.0,
5.12,run,8.34,5.74,-0.02,-0.18,-0.21,2.2,0.0,0.0,0.981,0.09,16.26,66.09,1.67,16.7,74.62,3.16,21.09,87.36,1.23,18.54,75.5,1.41,19.25,85.69,1.41,16.17,74.44,-0.15,16.97,66.45,1.45,18.09,75.13,2.66,24.75,89.83,1.31,18.84,75.41,1.33,22.01,86.88,1.41,18.85,75.85,-0.0042,0.763,0.017,0.0414,0.7834,0.1192,0.076,0.9046,0.2921,0.0374,0.7972,0.1225,0.0379,0.8547,0.2574,0.0404,0.7973,0.1277,0.006,0.019,0.019,0.0,0.071,0.045,0.013,0.76,0.156,0.0,0.006,0.006,0.0,0.533,0.169,0.0,0.195,0.078,0.0031,0.2777,1.1505,0.0291,0.2838,1.3008,0.0583,0.3666,1.5171,0.0199,0.3175,1.3192,0.0261,0.3329,1.4941,0.023,0.2777,1.2947,-0.0057,0.0,0.0,-0.0,-0.0,0.0,-0.0,0.0,0.0,-0.0,0.0,-0.0115,-0.0,0.0,0.0,0.0,0.0,0.0,0.6929,0.1947,0.0061,0.0038,-0.0138,-0.0028,0.7632,0.0197,0.0416,0.784,0.1214,0.0763,0.907,0.2929,0.0359,0.7976,0.1248,0.0392,0.8561,0.2589,0.0415,0.7979,0.1287,0.0,0.0,0.0444,0.0,0.0,0.0,0.0,0.0,0.0,
5.16,run,8.35,5.74,0.43,0.03,-0.75,3.0,0.0,0.0,0.981,0.09,16.26,66.09,1.67,16.7,74.62,3.16,21.09,87.36,1.23,18.54,75.5,1.41,19.25,85.69,1.41,16.17,74.44,-0.2,16.95,66.22,1.44,18.06,74.92,2.65,24.61,89.78,1.36,18.82,75.21,1.28,21.93,86.76,1.38,18.83,75.77,-0.0056,0.7628,0.0144,0.0412,0.7829,0.1167,0.0758,0.902,0.2915,0.0388,0.7968,0.1201,0.0367,0.8533,0.256,0.0394,0.7968,0.1267,0.006,0.013,0.0,0.006,0.052,0.013,0.013,0.65,0.156,0.0,0.006,0.006,0.0,0.403,0.065,0.0,0.175,0.045,0.0031,0.2777,1.1505,0.0291,0.2838,1.3008,0.0583,0.3666,1.5171,0.0199,0.3175,1.3162,0.0261,0.3329,1.4941,0.023,0.2777,1.2947,-0.004,0.0,0.0,-0.0,-0.0,0.0,-0.0,0.0,0.0,-0.0,0.0,-0.0196,-0.0,0.0,0.0,0.0,0.0,0.0,0.6928,0.194,-0.0004,-0.0031,-0.0037,-0.0042,0.763,0.017,0.0414,0.7834,0.1192,0.076,0.9046,0.2921,0.0374,0.7972,0.1225,0.0379,0.8547,0.2574,0.0404,0.7973,0.1277,0.0,0.0,0.0592,0.0,0.0,0.0,0.0,0.0,0.0,
