t_s,phase,roll_deg,pitch_deg,gyro_x_dps,gyro_y_dps,gyro_z_dps,height_ref_mm,vx_ref_mps,vy_ref_mps,max_cur_a,q0_deg,q1_deg,q2_deg,q3_deg,q4_deg,q5_deg,q6_deg,q7_deg,q8_deg,q9_deg,q10_deg,q11_deg,q12_deg,q13_deg,q14_deg,q15_deg,q16_deg,q17_deg,cmd0_deg,cmd1_deg,cmd2_deg,cmd3_deg,cmd4_deg,cmd5_deg,cmd6_deg,cmd7_deg,cmd8_deg,cmd9_deg,cmd10_deg,cmd11_deg,cmd12_deg,cmd13_deg,cmd14_deg,cmd15_deg,cmd16_deg,cmd17_deg,act0,act1,act2,act3,act4,act5,act6,act7,act8,act9,act10,act11,act12,act13,act14,act15,act16,act17,cur0_a,cur1_a,cur2_a,cur3_a,cur4_a,cur5_a,cur6_a,cur7_a,cur8_a,cur9_a,cur10_a,cur11_a,cur12_a,cur13_a,cur14_a,cur15_a,cur16_a,cur17_a,obs0,obs1,obs2,obs3,obs4,obs5,obs6,obs7,obs8,obs9,obs10,obs11,obs12,obs13,obs14,obs15,obs16,obs17,obs18,obs19,obs20,obs21,obs22,obs23,obs24,obs25,obs26,obs27,obs28,obs29,obs30,obs31,obs32,obs33,obs34,obs35,obs36,obs37,obs38,obs39,obs40,obs41,obs42,obs43,obs44,obs45,obs46,obs47,obs48,obs49,obs50,obs51,obs52,obs53,obs54,obs55,obs56,obs57,obs58,obs59,obs60,obs61,obs62,obs63,obs64,obs65,obs66,obs67,rot60_k
0.0,run,0.47,3.95,-0.27,0.13,1.95,0.0,0.0,0.0,0.039,-0.09,0.62,0.18,0.18,0.0,0.26,-0.18,0.26,0.44,0.0,0.44,0.09,0.18,0.35,0.44,0.0,0.18,0.35,-0.01,-0.88,1.68,1.68,-0.86,1.68,1.32,-1.32,1.94,-1.5,1.85,1.59,1.68,-1.32,1.76,1.5,-1.05,1.76,-0.0002,0.3349,-0.0872,0.1336,0.4389,-0.318,0.166,-0.0849,-0.2013,-0.2263,0.5732,-0.0852,0.0707,-0.0328,-0.2546,0.4169,0.4354,-0.1797,0.0,0.006,0.0,0.0,0.006,0.0,0.006,0.013,0.006,0.019,0.0,0.013,0.006,0.039,0.0,0.006,0.006,0.006,-0.0015,0.0,0.0,0.0,0.0,0.0015,0.0,0.0031,0.0,0.0,0.0015,0.0,0.0,0.0031,0.0015,0.0,0.0,0.0015,0.0052,0.0,0.0,0.0,0.0,0.0032,0.0,0.007,0.0,0.0,0.0038,0.0,0.0,0.007,0.0038,0.0,0.0,0.0038,0.0,0.0,0.0037,0.0033,-0.0004,0.0,0.0,0.0,0.0,0.0,0.0,0.0,0.0,0.0,0.0,0.0,0.0,0.0,0.0,0.0,0.0,0.0,0.0,0.0,0.0,0.0,0.0,0.0,0.0,0.0,0.0,0.0,
0.04,run,0.48,3.93,0.24,0.06,-1.54,0.0,0.0,0.0,0.039,0.26,0.62,0.26,0.18,0.0,0.44,-0.09,-0.26,0.53,-0.44,0.62,0.35,0.26,0.09,0.7,0.18,0.18,0.35,-0.41,0.62,3.18,3.18,0.64,3.18,2.82,-2.82,3.44,-2.11,3.35,3.09,3.18,-2.82,3.26,3.0,0.45,3.26,-0.0116,0.5442,-0.2903,0.1673,0.5618,-0.4455,0.1811,0.16,-0.1664,-0.0602,0.6176,-0.4039,0.1395,0.1309,-0.0239,0.3351,0.5751,-0.5179,0.0,0.006,0.0,0.0,0.006,0.0,0.006,0.013,0.006,0.019,0.0,0.013,0.006,0.039,0.0,0.006,0.006,0.006,-0.0046,0.0,0.0,0.0,0.0,0.0015,0.0,0.0015,0.0,0.0,0.0015,0.0,0.0,0.0031,0.0031,0.0,0.0,0.0015,-0.0014,0.0,0.0,0.0,0.0,0.0022,0.0,0.0024,0.0,0.0,0.0027,0.0,0.0,0.0049,0.0052,0.0,0.0,0.0027,-0.0014,0.0002,-0.0047,0.0023,0.034,-0.0002,0.3349,-0.0872,0.1336,0.4389,-0.318,0.166,-0.0849,-0.2013,-0.2263,0.5732,-0.0852,0.0707,-0.0328,-0.2546,0.4169,0.4354,-0.1797,0.0,0.0,0.0,0.0,0.0,0.0,0.0,0.0,0.0,
0.08,run,0.51,3.87,-0.05,0.1,0.58,0.0,0.0,0.0,0.039,-0.35,0.09,0.88,0.53,-0.26,1.23,0.53,-0.88,1.14,-1.41,1.23,1.23,1.32,-0.79,1.49,1.41,-0.35,0.97,-0.36,2.12,4.68,4.68,2.14,4.68,4.32,-4.32,4.94,-0.61,4.85,4.59,4.68,-4.32,4.76,4.5,1.95,4.76,-0.0103,0.6068,-0.3772,0.1885,0.631,-0.4873,0.2011,0.1733,-0.0909,-0.0157,0.6293,-0.4656,0.1617,0.1707,-0.0858,0.2867,0.5595,-0.5171,0.0,0.006,0.0,0.0,0.006,0.0,0.006,0.013,0.006,0.019,0.0,0.013,0.006,0.039,0.0,0.006,0.006,0.006,0.0015,0.0,0.0015,0.0,0.0,0.0046,0.0015,-0.0077,0.0015,-0.0077,0.0046,0.0046,0.0015,-0.0015,0.0077,0.0031,0.0,0.0015,0.0189,0.0,0.005,0.0,0.0,0.0115,0.005,-0.0281,0.005,-0.0248,0.0118,0.0149,0.005,-0.0115,0.0185,0.0099,0.0,0.0019,-0.0004,-0.0017,0.0043,0.001,-0.0269,-0.0116,0.5442,-0.2903,0.1673,0.5618,-0.4455,0.1811,0.16,-0.1664,-0.0602,0.6176,-0.4039,0.1395,0.1309,-0.0239,0.3351,0.5751,-0.5179,0.0,0.0,0.0,0.0,0.0,0.0,0.0,0.0,0.0,
0.12,run,0.73,3.76,0.15,-0.07,-1.49,0.0,0.0,0.0,0.039,-0.18,3.52,5.98,5.8,3.52,6.06,5.71,-5.54,6.06,0.09,6.24,6.06,4.75,-5.45,6.24,5.98,3.25,6.06,-0.55,3.62,6.18,6.11,3.64,6.18,5.82,-5.82,6.44,0.01,6.35,6.09,4.91,-5.82,6.26,6.0,3.45,6.26,-0.0158,0.5812,-0.3867,0.1745,0.6191,-0.4942,0.1906,0.1827,-0.1326,0.0003,0.6222,-0.4807,0.1402,0.1922,-0.1611,0.2737,0.5765,-0.5498,0.0,0.0,0.0,0.006,0.0,0.0,0.0,0.006,0.006,0.0,0.0,0.0,0.0,0.013,0.0,0.0,0.0,0.0,-0.0092,-0.0092,0.0123,0.0061,-0.0046,0.0184,0.0123,-0.0184,0.0123,-0.0245,0.0153,0.0199,0.0199,-0.0169,0.0215,0.0245,-0.0092,0.0123,-0.0262,-0.0338,0.0429,0.0225,-0.0169,0.0587,0.0429,-0.0591,0.0429,-0.0793,0.0476,0.0667,0.071,-0.0643,0.0636,0.0857,-0.0338,0.0407,0.0018,-0.0068,-0.0008,0.0017,0.01,-0.0103,0.6068,-0.3772,0.1885,0.631,-0.4873,0.2011,0.1733,-0.0909,-0.0157,0.6293,-0.4656,0.1617,0.1707,-0.0858,0.2867,0.5595,-0.5171,0.0,0.0,0.0,0.0,0.0,0.0,0.0,0.0,0.0,
0.16,run,0.7,3.75,-0.37,0.02,1.22,0.0,0.0,0.0,0.039,-0.7,3.52,5.98,5.8,3.52,6.06,5.71,-5.54,6.06,0.09,6.24,6.06,4.75,-5.45,6.24,5.98,3.25,6.06,-2.05,2.12,7.68,4.61,2.14,7.68,5.37,-7.32,7.94,1.51,4.85,7.59,3.41,-7.32,7.76,7.5,4.43,4.76,-0.0789,0.3402,-0.4881,0.0973,0.4333,-0.4964,0.1534,0.1621,-0.3292,0.0749,0.4353,-0.5402,0.0663,0.1866,-0.4516,0.3198,0.535,-0.7267,0.0,0.0,0.0,0.006,0.0,0.0,0.0,0.006,0.006,0.0,0.0,0.0,0.0,0.013,0.0,0.0,0.0,0.0,-0.0061,0.0506,0.1012,0.0982,0.0614,0.1028,0.1028,-0.0997,0.0982,0.0015,0.1028,0.1043,0.0798,-0.0982,0.1043,0.1043,0.0537,0.1012,-0.0262,-0.0338,0.0429,0.0225,-0.0169,0.0587,0.0429,-0.0591,0.0429,-0.0793,0.0476,0.0667,0.071,-0.0643,0.0636,0.0857,-0.0338,0.0407,0.0209,-0.0171,0.0027,-0.0013,-0.0261,-0.0158,0.5812,-0.3867,0.1745,0.6191,-0.4942,0.1906,0.1827,-0.1326,0.0003,0.6222,-0.4807,0.1402,0.1922,-0.1611,0.2737,0.5765,-0.5498,0.0,0.0,0.0,0.0,0.0,0.0,0.0,0.0,0.0,
0.2,run,0.7,3.76,0.2,0.24,0.13,0.0,0.0,0.0,0.039,-0.7,3.52,5.98,5.8,3.52,6.06,5.71,-5.54,6.06,0.09,6.24,6.06,4.75,-5.45,6.24,5.98,3.25,6.06,-3.55,0.62,9.18,3.88,0.64,9.18,4.81,-8.82,9.44,0.79,3.35,9.09,1.91,-8.82,9.26,9.0,2.93,3.26,-0.1053,0.3062,-0.4918,0.1108,0.317,-0.5069,0.1375,0.2299,-0.4615,0.0226,0.3409,-0.5361,0.0321,0.1996,-0.5812,0.3495,0.4577,-0.7688,0.0,0.0,0.0,0.006,0.0,0.0,0.0,0.006,0.006,0.0,0.0,0.0,0.0,0.013,0.0,0.0,0.0,0.0,-0.0153,0.0506,0.1012,0.0982,0.0614,0.1028,0.1028,-0.0997,0.0982,0.0015,0.1028,0.1043,0.0798,-0.0982,0.1043,0.1043,0.0537,0.1012,-0.0507,-0.0236,0.03,0.0158,-0.0118,0.0411,0.03,-0.0413,0.03,-0.0555,0.0333,0.0467,0.0497,-0.045,0.0445,0.06,-0.0236,0.0285,0.0184,-0.0177,-0.0064,0.0003,0.0214,-0.0789,0.3402,-0.4881,0.0973,0.4333,-0.4964,0.1534,0.1621,-0.3292,0.0749,0.4353,-0.5402,0.0663,0.1866,-0.4516,0.3198,0.535,-0.7267,0.0,0.0,0.0,0.0,0.0,0.0,0.0,0.0,0.0,
0.24,run,0.68,3.74,-0.08,-0.04,-0.94,0.0,0.0,0.0,0.039,-0.88,3.52,6.24,5.8,3.52,6.59,5.71,-6.06,6.33,0.35,6.15,6.5,4.66,-5.89,6.77,6.42,3.43,5.98,-3.53,-0.88,10.68,4.56,-0.86,10.68,4.85,-10.32,10.94,-0.03,1.85,10.59,0.98,-10.32,10.76,10.5,1.43,1.76,-0.101,0.3181,-0.5079,0.1304,0.2803,-0.5186,0.1387,0.2664,-0.4964,-0.0009,0.3145,-0.5362,0.0281,0.2126,-0.5914,0.3564,0.4157,-0.7723,0.006,0.033,0.006,0.013,0.026,0.006,0.006,0.019,0.019,0.0,0.019,0.006,0.019,0.019,0.006,0.006,0.0,0.019,-0.0153,0.0506,0.1012,0.0982,0.0614,0.1028,0.1028,-0.0997,0.0982,0.0015,0.1028,0.1043,0.0798,-0.0982,0.1043,0.1043,0.0537,0.1012,-0.0355,-0.0165,0.021,0.011,-0.0083,0.0288,0.021,-0.0289,0.021,-0.0388,0.0233,0.0327,0.0348,-0.0315,0.0312,0.042,-0.0165,0.0199,0.0184,-0.0168,0.0035,0.0042,0.0023,-0.1053,0.3062,-0.4918,0.1108,0.317,-0.5069,0.1375,0.2299,-0.4615,0.0226,0.3409,-0.5361,0.0321,0.1996,-0.5812,0.3495,0.4577,-0.7688,0.0,0.0,0.0,0.0,0.0,0.0,0.0,0.0,0.0,
0.28,run,0.69,3.75,0.28,0.1,0.36,0.0,0.0,0.0,0.039,-2.29,2.99,7.12,5.71,3.08,7.47,5.36,-6.86,7.12,0.88,5.62,7.38,3.52,-6.77,7.65,7.47,3.43,5.27,-3.4,-2.38,12.18,4.84,-2.36,12.18,4.99,-9.98,12.44,-0.17,0.35,12.09,1.02,-11.82,12.26,12.0,-0.07,0.26,-0.0972,0.3179,-0.5239,0.1384,0.2661,-0.5229,0.1426,0.2731,-0.5017,-0.0048,0.3027,-0.5378,0.0292,0.2121,-0.5904,0.3586,0.4012,-0.7747,0.006,0.033,0.006,0.013,0.026,0.006,0.006,0.019,0.019,0.0,0.019,0.006,0.019,0.019,0.006,0.006,0.0,0.019,-0.0184,0.0506,0.1058,0.0982,0.0614,0.112,0.1028,-0.1089,0.1028,0.0061,0.1012,0.112,0.0782,-0.1058,0.1135,0.112,0.0568,0.0997,-0.0363,-0.0116,0.0319,0.0077,-0.0058,0.0545,0.0147,-0.0546,0.0319,-0.01,0.0106,0.0515,0.0186,-0.0507,0.0562,0.058,-0.0001,0.0082,0.0172,-0.0188,-0.0013,-0.0007,-0.0163,-0.101,0.3181,-0.5079,0.1304,0.2803,-0.5186,0.1387,0.2664,-0.4964,-0.0009,0.3145,-0.5362,0.0281,0.2126,-0.5914,0.3564,0.4157,-0.7723,0.0,0.0,0.0,0.0,0.0,0.0,0.0,0.0,0.0,
0.32,run,0.67,3.71,0.04,0.1,-0.6,0.0,0.0,0.0,0.039,-2.29,2.02,7.82,5.01,2.11,8.35,4.92,-7.91,8.0,0.35,4.66,8.35,2.64,-7.82,8.61,8.09,2.9,4.39,-3.27,-3.88,13.68,4.97,-3.86,13.68,5.35,-10.39,13.94,-0.1,-1.15,13.59,1.32,-13.32,13.76,12.84,-1.57,-1.24,-0.0934,0.2998,-0.5334,0.1421,0.2533,-0.5253,0.1529,0.2657,-0.4977,-0.0029,0.2967,-0.5391,0.0376,0.1928,-0.5794,0.3669,0.4005,-0.782,0.006,0.033,0.006,0.013,0.026,0.006,0.006,0.019,0.019,0.0,0.019,0.006,0.019,0.019,0.006,0.006,0.0,0.019,-0.043,0.0414,0.1212,0.0966,0.0537,0.1273,0.0966,-0.1227,0.1166,0.0153,0.092,0.1273,0.0583,-0.1212,0.1289,0.1304,0.0568,0.0874,-0.1173,-0.0426,0.0797,-0.0003,-0.0328,0.0956,-0.0127,-0.0899,0.074,0.0275,-0.027,0.0935,-0.0616,-0.0929,0.0967,0.1095,-0.0001,-0.0402,0.0176,-0.0175,0.0049,0.0017,0.0063,-0.0972,0.3179,-0.5239,0.1384,0.2661,-0.5229,0.1426,0.2731,-0.5017,-0.0048,0.3027,-0.5378,0.0292,0.2121,-0.5904,0.3586,0.4012,-0.7747,0.0,0.0,0.0,0.0,0.0,0.0,0.0,0.0,0.0,
0.36,run,0.69,3.67,0.43,-0.12,0.46,0.0,0.0,0.0,0.039,-3.34,0.79,9.14,4.39,0.88,9.84,4.92,-8.96,9.14,-0.44,3.43,9.76,1.76,-9.05,10.02,9.67,2.11,3.16,-3.27,-5.38,15.18,4.55,-5.36,15.18,5.69,-10.93,15.44,0.3,-2.65,15.09,1.79,-14.82,15.26,13.22,-2.42,-1.37,-0.0934,0.2754,-0.5207,0.1301,0.2344,-0.5207,0.1626,0.2558,-0.4883,0.0087,0.2916,-0.5402,0.0511,0.1779,-0.5723,0.3777,0.4106,-0.7808,0.013,0.026,0.006,0.006,0.033,0.006,0.006,0.019,0.026,0.013,0.019,0.013,0.006,0.033,0.006,0.0,0.033,0.013,-0.043,0.0245,0.1335,0.0844,0.0368,0.1427,0.089,-0.1411,0.1319,0.0061,0.0752,0.1442,0.043,-0.1396,0.1457,0.1411,0.0476,0.0721,-0.0821,-0.0935,0.1022,-0.0466,-0.0867,0.1248,-0.0378,-0.1324,0.1097,-0.0155,-0.0826,0.1291,-0.1011,-0.1345,0.1314,0.1172,-0.0348,-0.0861,0.0161,-0.0206,0.0007,0.0017,-0.0105,-0.0934,0.2998,-0.5334,0.1421,0.2533,-0.5253,0.1529,0.2657,-0.4977,-0.0029,0.2967,-0.5391,0.0376,0.1928,-0.5794,0.3669,0.4005,-0.782,0.0,0.0,0.0,0.0,0.0,0.0,0.0,0.0,0.0,
0.4,run,0.64,3.64,-0.7,-0.53,-0.39,0.0,0.0,0.0,0.039,-3.69,-0.62,10.55,4.48,-0.53,11.16,5.1,-9.76,10.55,0.09,2.11,11.16,1.32,-10.55,11.43,10.99,1.05,1.85,-3.14,-6.88,16.68,4.1,-6.86,16.68,6.16,-12.03,16.94,0.73,-4.15,16.59,2.25,-16.32,16.45,13.71,-1.56,-2.51,-0.0898,0.2399,-0.5097,0.1171,0.2072,-0.5215,0.176,0.2359,-0.4828,0.0208,0.2889,-0.5475,0.0644,0.1495,-0.5712,0.3918,0.4261,-0.7943,0.013,0.026,0.006,0.006,0.033,0.006,0.006,0.019,0.026,0.013,0.019,0.013,0.006,0.033,0.006,0.0,0.033,0.013,-0.0614,0.0031,0.1565,0.0736,0.0153,0.1687,0.089,-0.1595,0.1519,-0.0077,0.0537,0.1687,0.0276,-0.1611,0.1703,0.1687,0.0337,0.0506,-0.1262,-0.1456,0.1574,-0.0727,-0.1408,0.1847,-0.0265,-0.1614,0.1512,-0.0624,-0.138,0.182,-0.128,-0.1743,0.1836,0.1851,-0.0759,-0.1404,0.0177,-0.0248,0.0075,-0.0021,0.008,-0.0934,0.2754,-0.5207,0.1301,0.2344,-0.5207,0.1626,0.2558,-0.4883,0.0087,0.2916,-0.5402,0.0511,0.1779,-0.5723,0.3777,0.4106,-0.7808,0.0,0.0,0.0,0.0,0.0,0.0,0.0,0.0,0.0,
0.44,run,0.61,3.62,-0.19,-0.0,0.95,0.0,0.0,0.0,0.039,-2.9,-1.93,11.95,4.48,-1.85,12.66,5.54,-10.46,11.95,0.35,0.7,12.66,1.14,-11.95,12.83,11.87,-0.09,0.62,-3.07,-8.38,18.18,3.22,-8.36,18.18,6.7,-13.43,18.44,1.49,-5.65,18.01,2.85,-17.82,16.58,14.15,-1.38,-3.74,-0.0877,0.1962,-0.489,0.0921,0.1714,-0.5274,0.1915,0.2103,-0.477,0.0425,0.2726,-0.5529,0.0815,0.1211,-0.5696,0.4044,0.4294,-0.8087,0.013,0.026,0.006,0.006,0.033,0.006,0.006,0.019,0.026,0.013,0.019,0.013,0.006,0.033,0.006,0.0,0.033,0.013,-0.0675,-0.0215,0.181,0.0752,-0.0092,0.1917,0.092,-0.1733,0.1764,0.0015,0.0307,0.1933,0.0199,-0.1871,0.1948,0.1917,0.0153,0.0276,-0.1114,-0.1943,0.2025,-0.0451,-0.1909,0.2159,-0.007,-0.1649,0.1982,-0.009,-0.1832,0.2197,-0.1184,-0.2201,0.2209,0.2161,-0.1224,-0.1848,0.0131,-0.0276,-0.0122,-0.0093,-0.0069,-0.0898,0.2399,-0.5097,0.1171,0.2072,-0.5215,0.176,0.2359,-0.4828,0.0208,0.2889,-0.5475,0.0644,0.1495,-0.5712,0.3918,0.4261,-0.7943,0.0,0.0,0.0,0.0,0.0,0.0,0.0,0.0,0.0,
0.48,run,0.6,3.63,-0.34,0.01,1.68,0.0,0.0,0.0,0.039,-3.08,-3.34,13.36,4.48,-3.34,14.06,5.98,-11.43,13.36,0.79,-0.7,13.97,1.32,-13.36,14.24,13.18,-0.97,-0.7,-3.12,-9.88,19.68,2.29,-9.86,19.68,7.09,-14.73,19.94,2.28,-7.15,17.72,3.36,-19.32,16.67,14.6,-1.62,-4.4,-0.089,0.1505,-0.466,0.0656,0.1363,-0.5321,0.2026,0.1868,-0.4783,0.0651,0.2568,-0.5562,0.096,0.0974,-0.5685,0.4172,0.4251,-0.8165,0.006,0.026,0.006,0.026,0.026,0.006,0.013,0.026,0.019,0.006,0.026,0.006,0.006,0.039,0.006,0.006,0.019,0.019,-0.0537,-0.0445,0.2056,0.0752,-0.0322,0.2178,0.0997,-0.1856,0.201,0.0061,0.0061,0.2194,0.0169,-0.2117,0.2194,0.2071,-0.0046,0.0061,-0.0265,-0.2218,0.2333,-0.0316,-0.2194,0.2483,0.0237,-0.1612,0.2302,0.0108,-0.2197,0.251,-0.0944,-0.2456,0.2461,0.2085,-0.16,-0.2095,0.0105,-0.0287,-0.0033,-0.0001,0.0166,-0.0877,0.1962,-0.489,0.0921,0.1714,-0.5274,0.1915,0.2103,-0.477,0.0425,0.2726,-0.5529,0.0815,0.1211,-0.5696,0.4044,0.4294,-0.8087,0.0,0.0,0.0,0.0,0.0,0.0,0.0,0.0,0.0,
0.52,run,0.59,3.61,-0.63,-0.2,0.03,0.0,0.0,0.0,0.039,-3.34,-4.83,14.77,3.87,-4.75,15.47,6.42,-12.48,14.77,1.58,-2.2,15.29,2.11,-14.77,15.29,13.45,-1.58,-1.85,-3.03,-11.38,21.18,1.5,-11.36,18.82,7.67,-16.23,21.44,2.93,-8.65,17.25,3.91,-20.82,17.5,15.14,-1.43,-5.64,-0.0866,0.1072,-0.4467,0.0428,0.1019,-0.5432,0.2191,0.1517,-0.4718,0.0836,0.2432,-0.5617,0.1116,0.0629,-0.5588,0.4325,0.4285,-0.8311,0.006,0.026,0.006,0.026,0.026,0.006,0.013,0.026,0.019,0.006,0.026,0.006,0.006,0.039,0.006,0.006,0.019,0.019,-0.0568,-0.069,0.2301,0.0752,-0.0583,0.2424,0.1074,-0.2025,0.2255,0.0138,-0.0184,0.2424,0.0199,-0.2362,0.2439,0.2301,-0.0199,-0.0169,-0.0301,-0.2478,0.2558,-0.0221,-0.2519,0.2664,0.0455,-0.1765,0.2537,0.0365,-0.2464,0.2625,-0.0545,-0.2645,0.2648,0.2327,-0.1699,-0.2334,0.0102,-0.0279,-0.0059,0.0002,0.0294,-0.089,0.1505,-0.466,0.0656,0.1363,-0.5321,0.2026,0.1868,-0.4783,0.0651,0.2568,-0.5562,0.096,0.0974,-0.5685,0.4172,0.4251,-0.8165,0.0,0.0,0.0,0.0,0.0,0.0,0.0,0.0,0.0,
0.56,run,0.63,3.64,0.9,0.56,-0.08,0.0,0.0,0.0,0.039,-2.9,-6.24,16.17,2.55,-6.15,16.88,6.86,-13.62,16.26,2.11,-3.6,16.44,2.9,-16.17,16.17,14.41,-1.85,-2.99,-3.0,-12.88,22.68,0.67,-12.86,18.39,8.4,-17.73,22.94,3.52,-10.15,17.22,4.48,-22.32,19.0,15.74,-1.31,-6.23,-0.0856,0.0688,-0.4243,0.019,0.074,-0.5483,0.24,0.1187,-0.4601,0.1006,0.2302,-0.5621,0.1281,0.0333,-0.5296,0.4497,0.4307,-0.838,0.006,0.026,0.006,0.026,0.026,0.006,0.013,0.026,0.019,0.006,0.026,0.006,0.006,0.039,0.006,0.006,0.019,0.019,-0.0614,-0.0951,0.2546,0.0644,-0.0828,0.2669,0.115,-0.2209,0.25,0.0276,-0.0445,0.2654,0.0337,-0.2608,0.2623,0.2347,-0.0307,-0.0368,-0.0383,-0.2709,0.2708,-0.0556,-0.2681,0.2782,0.0605,-0.1923,0.2694,0.0772,-0.2699,0.2698,0.0135,-0.2769,0.2542,0.1801,-0.159,-0.2379,0.0087,-0.0295,-0.011,-0.0035,0.0004,-0.0866,0.1072,-0.4467,0.0428,0.1019,-0.5432,0.2191,0.1517,-0.4718,0.0836,0.2432,-0.5617,0.1116,0.0629,-0.5588,0.4325,0.4285,-0.8311,0.0,0.0,0.0,0.0,0.0,0.0,0.0,0.0,0.0,
0.6,run,0.64,3.64,0.18,0.13,-0.65,0.0,0.0,0.0,0.039,-2.72,-7.56,17.67,1.76,-7.56,17.93,7.38,-14.85,17.58,2.81,-5.01,17.05,3.6,-17.58,17.23,15.03,-1.85,-4.13,-3.11,-14.38,24.18,-0.14,-14.36,17.98,8.95,-19.23,24.44,4.18,-11.65,17.02,4.96,-23.82,20.5,16.35,-0.93,-7.49,-0.0889,0.0322,-0.4069,-0.0041,0.0481,-0.5531,0.2556,0.0793,-0.4508,0.1195,0.2227,-0.5645,0.1416,0.0027,-0.5057,0.4673,0.4376,-0.8528,0.0,0.026,0.013,0.013,0.026,0.0,0.006,0.033,0.026,0.006,0.026,0.0,0.006,0.033,0.006,0.019,0.0,0.006,-0.0537,-0.1197,0.2792,0.0414,-0.1074,0.2915,0.1227,-0.2408,0.2761,0.0368,-0.069,0.2853,0.0476,-0.2853,0.2777,0.2516,-0.0353,-0.0568,0.0019,-0.2816,0.2816,-0.1252,-0.2797,0.2867,0.0711,-0.2094,0.2863,0.0885,-0.2809,0.2636,0.0612,-0.2858,0.2354,0.1893,-0.1286,-0.2413,0.0129,-0.0271,0.0157,0.0098,-0.0014,-0.0856,0.0688,-0.4243,0.019,0.074,-0.5483,0.24,0.1187,-0.4601,0.1006,0.2302,-0.5621,0.1281,0.0333,-0.5296,0.4497,0.4307,-0.838,0.0,0.0,0.0,0.0,0.0,0.0,0.0,0.0,0.0,
0.64,run,0.61,3.61,-0.28,-0.24,0.07,0.0,0.0,0.0,0.039,-3.43,-9.05,19.07,1.76,-8.96,18.72,8.0,-16.17,19.07,3.52,-6.42,17.58,4.31,-19.07,18.37,15.73,-1.49,-5.1,-3.1,-15.88,25.68,-1.09,-15.86,17.28,9.5,-20.73,25.94,4.94,-13.15,17.15,5.43,-25.32,22.0,16.86,-0.54,-8.22,-0.0884,-0.0002,-0.3852,-0.0312,0.0334,-0.5614,0.2715,0.0403,-0.4335,0.141,0.214,-0.5629,0.1551,-0.0278,-0.4808,0.4816,0.4448,-0.8614,0.0,0.026,0.013,0.013,0.026,0.0,0.006,0.033,0.026,0.006,0.026,0.0,0.006,0.033,0.006,0.019,0.0,0.006,-0.0506,-0.1427,0.3053,0.0276,-0.1319,0.3099,0.1319,-0.2623,0.2991,0.0491,-0.0936,0.2961,0.0598,-0.3099,0.2961,0.2623,-0.0353,-0.0767,0.0129,-0.284,0.2955,-0.1397,-0.2884,0.2702,0.0845,-0.2276,0.2872,0.1083,-0.2893,0.225,0.0891,-0.2927,0.2343,0.173,-0.09,-0.2441,0.0134,-0.0275,0.0031,0.0022,-0.0113,-0.0889,0.0322,-0.4069,-0.0041,0.0481,-0.5531,0.2556,0.0793,-0.4508,0.1195,0.2227,-0.5645,0.1416,0.0027,-0.5057,0.4673,0.4376,-0.8528,0.0,0.0,0.0,0.0,0.0,0.0,0.0,0.0,0.0,
0.68,run,0.59,3.6,0.25,0.44,0.03,0.0,0.0,0.0,0.039,-2.99,-10.46,20.48,0.53,-10.37,19.25,8.53,-17.49,20.48,4.13,-7.82,17.58,4.83,-20.48,19.42,16.26,-1.14,-6.15,-2.91,-17.38,27.18,-1.96,-17.36,16.28,10.08,-22.23,27.44,5.53,-13.45,17.16,5.85,-26.82,23.5,17.31,0.17,-8.91,-0.0833,-0.0313,-0.3644,-0.0559,0.0274,-0.5731,0.288,-0.0008,-0.4127,0.158,0.21,-0.5628,0.1671,-0.0608,-0.4567,0.4946,0.4576,-0.8696,0.0,0.026,0.013,0.013,0.026,0.0,0.006,0.033,0.026,0.006,0.026,0.0,0.006,0.033,0.006,0.019,0.0,0.006,-0.0629,-0.1687,0.3298,0.0276,-0.1565,0.3237,0.1427,-0.2853,0.3252,0.0614,-0.1181,0.3053,0.0721,-0.3359,0.316,0.2746,-0.0291,-0.0936,-0.0366,-0.2958,0.2982,-0.0978,-0.2932,0.2405,0.0991,-0.2449,0.2981,0.1214,-0.2938,0.1918,0.1081,-0.3019,0.2382,0.1668,-0.0402,-0.2337,0.011,-0.0294,-0.0049,-0.0042,0.0012,-0.0884,-0.0002,-0.3852,-0.0312,0.0334,-0.5614,0.2715,0.0403,-0.4335,0.141,0.214,-0.5629,0.1551,-0.0278,-0.4808,0.4816,0.4448,-0.8614,0.0,0.0,0.0,0.0,0.0,0.0,0.0,0.0,0.0,
0.72,run,0.58,3.57,-0.5,-0.22,1.63,0.0,0.0,0.0,0.039,-2.9,-11.87,21.88,-0.79,-11.78,19.25,9.14,-18.81,21.88,4.83,-9.23,17.31,5.36,-21.88,20.83,16.88,-0.62,-7.21,-2.94,-18.88,28.68,-2.84,-18.86,16.0,10.53,-23.73,28.94,6.3,-13.42,17.17,6.27,-28.32,25.0,17.7,0.8,-9.62,-0.084,-0.0558,-0.3407,-0.0811,0.0262,-0.5765,0.301,-0.0385,-0.3923,0.1801,0.2106,-0.5627,0.1791,-0.0882,-0.4297,0.5058,0.469,-0.8779,0.0,0.026,0.019,0.006,0.033,0.006,0.006,0.033,0.026,0.013,0.019,0.0,0.006,0.033,0.006,0.006,0.013,0.013,-0.0552,-0.1933,0.3543,0.0061,-0.181,0.3329,0.1519,-0.3083,0.3497,0.0721,-0.1427,0.3053,0.0813,-0.3605,0.3344,0.2838,-0.023,-0.112,0.0032,-0.2992,0.3008,-0.149,-0.2973,0.2029,0.1039,-0.2578,0.3008,0.1253,-0.2978,0.1342,0.1102,-0.3034,0.2358,0.1513,-0.0051,-0.2327,0.0092,-0.0303,0.0044,0.0077,0.0006,-0.0833,-0.0313,-0.3644,-0.0559,0.0274,-0.5731,0.288,-0.0008,-0.4127,0.158,0.21,-0.5628,0.1671,-0.0608,-0.4567,0.4946,0.4576,-0.8696,0.0,0.0,0.0,0.0,0.0,0.0,0.0,0.0,0.0,
0.76,run,0.54,3.53,-0.54,-0.47,-0.1,0.0,0.0,0.0,0.039,-3.16,-13.27,23.29,-0.97,-13.18,18.9,9.76,-20.3,23.29,5.45,-10.55,17.23,5.89,-23.29,22.15,17.4,-0.09,-8.09,-2.86,-20.38,30.18,-3.56,-20.36,15.62,11.01,-25.23,30.44,6.95,-13.25,16.93,6.63,-29.82,26.5,17.99,1.49,-10.24,-0.0816,-0.0745,-0.3211,-0.1016,0.0307,-0.5809,0.3147,-0.075,-0.3691,0.1987,0.2137,-0.5655,0.1893,-0.115,-0.4024,0.5141,0.4817,-0.8851,0.0,0.026,0.019,0.006,0.033,0.006,0.006,0.033,0.026,0.013,0.019,0.0,0.006,0.033,0.006,0.006,0.013,0.013,-0.0537,-0.2178,0.3789,-0.0169,-0.2056,0.3329,0.1626,-0.3313,0.3743,0.0844,-0.1672,0.3007,0.0905,-0.385,0.359,0.2945,-0.0138,-0.1304,0.008,-0.3016,0.3028,-0.1908,-0.3003,0.142,0.1131,-0.2669,0.3027,0.1338,-0.3006,0.0767,0.1117,-0.3046,0.2573,0.1462,0.031,-0.232,0.0081,-0.0331,-0.0088,-0.0039,0.0284,-0.084,-0.0558,-0.3407,-0.0811,0.0262,-0.5765,0.301,-0.0385,-0.3923,0.1801,0.2106,-0.5627,0.1791,-0.0882,-0.4297,0.5058,0.469,-0.8779,0.0,0.0,0.0,0.0,0.0,0.0,0.0,0.0,0.0,
0.8,run,0.53,3.52,0.14,0.42,0.64,0.0,0.0,0.0,0.039,-2.9,-14.77,24.7,-1.85,-14.68,18.19,10.2,-21.62,24.7,6.15,-11.6,17.05,6.24,-24.7,23.47,17.75,0.53,-8.88,-2.6,-21.88,31.68,-4.37,-21.86,14.92,11.42,-26.73,31.94,7.53,-13.05,16.58,7.01,-31.32,28.0,18.26,2.4,-10.79,-0.0744,-0.09,-0.3015,-0.1248,0.0378,-0.5892,0.3262,-0.1099,-0.3426,0.2152,0.2173,-0.5697,0.2003,-0.1418,-0.3816,0.5216,0.4981,-0.8916,0.0,0.026,0.019,0.006,0.033,0.006,0.006,0.033,0.026,0.013,0.019,0.0,0.006,0.033,0.006,0.006,0.013,0.013,-0.0583,-0.2424,0.4034,-0.0199,-0.2301,0.3267,0.1733,-0.3574,0.3988,0.0951,-0.1902,0.2991,0.0997,-0.4096,0.382,0.3037,-0.0046,-0.1457,-0.0118,-0.3036,0.3044,-0.1451,-0.3027,0.0763,0.1196,-0.2851,0.3044,0.1341,-0.2971,0.0479,0.1129,-0.3057,0.2668,0.137,0.0564,-0.2202,0.0048,-0.0366,-0.0094,-0.0082,-0.0017,-0.0816,-0.0745,-0.3211,-0.1016,0.0307,-0.5809,0.3147,-0.075,-0.3691,0.1987,0.2137,-0.5655,0.1893,-0.115,-0.4024,0.5141,0.4817,-0.8851,0.0,0.0,0.0,0.0,0.0,0.0,0.0,0.0,0.0,
0.84,run,0.56,3.49,0.31,0.29,0.08,0.0,0.0,0.0,0.039,-2.37,-16.08,26.1,-3.52,-16.08,17.23,10.72,-23.03,26.1,6.77,-12.39,16.7,6.68,-26.1,24.87,18.11,1.14,-9.67,-2.5,-23.38,33.18,-4.98,-22.21,14.76,11.72,-28.23,33.44,8.02,-12.7,16.32,7.27,-32.82,29.5,18.43,3.06,-11.14,-0.0714,-0.1007,-0.2822,-0.1422,0.0507,-0.5911,0.3349,-0.1399,-0.3197,0.2292,0.2236,-0.5727,0.2076,-0.1643,-0.3572,0.5265,0.5103,-0.8957,0.006,0.019,0.013,0.0,0.033,0.013,0.006,0.026,0.026,0.013,0.013,0.006,0.0,0.033,0.0,0.006,0.0,0.006,-0.0537,-0.2684,0.428,-0.0353,-0.2562,0.3145,0.181,-0.3804,0.4234,0.1074,-0.2086,0.2961,0.1058,-0.4341,0.405,0.3099,0.0061,-0.1595,0.009,-0.3104,0.3052,-0.1591,-0.3097,0.0074,0.1125,-0.2859,0.3052,0.1399,-0.2771,0.022,0.102,-0.3061,0.2731,0.119,0.0798,-0.2059,0.0042,-0.0378,0.0024,0.0073,0.0112,-0.0744,-0.09,-0.3015,-0.1248,0.0378,-0.5892,0.3262,-0.1099,-0.3426,0.2152,0.2173,-0.5697,0.2003,-0.1418,-0.3816,0.5216,0.4981,-0.8916,0.0,0.0,0.0,0.0,0.0,0.0,0.0,0.0,0.0,
0.88,run,0.53,3.47,-0.73,-0.67,-0.55,0.0,0.0,0.0,0.039,-2.81,-17.58,27.6,-3.52,-17.49,16.08,11.16,-24.43,27.51,7.38,-12.83,16.52,7.03,-27.6,26.28,18.28,1.93,-10.37,-2.43,-24.88,34.68,-5.49,-21.61,14.85,11.98,-29.73,34.94,8.55,-12.3,15.77,7.48,-34.32,31.0,18.52,3.7,-11.74,-0.0695,-0.1074,-0.266,-0.1568,0.0617,-0.59,0.3423,-0.168,-0.297,0.2442,0.2308,-0.5792,0.2136,-0.1846,-0.333,0.529,0.5219,-0.9028,0.006,0.019,0.013,0.0,0.033,0.013,0.006,0.026,0.026,0.013,0.013,0.006,0.0,0.033,0.0,0.006,0.0,0.006,-0.0445,-0.2915,0.4525,-0.0644,-0.2807,0.2976,0.1902,-0.405,0.4479,0.1181,-0.2224,0.2899,0.1135,-0.4587,0.4295,0.316,0.0169,-0.1733,0.0409,-0.3037,0.3058,-0.2208,-0.309,-0.0582,0.1133,-0.2923,0.3058,0.1383,-0.2458,-0.0076,0.1002,-0.3064,0.2833,0.1063,0.0962,-0.196,0.0063,-0.0402,0.0055,0.0051,0.0014,-0.0714,-0.1007,-0.2822,-0.1422,0.0507,-0.5911,0.3349,-0.1399,-0.3197,0.2292,0.2236,-0.5727,0.2076,-0.1643,-0.3572,0.5265,0.5103,-0.8957,0.0,0.0,0.0,0.0,0.0,0.0,0.0,0.0,0.0,
0.92,run,0.54,3.47,0.44,0.37,-1.11,0.0,0.0,0.0,0.039,-2.29,-18.98,28.92,-4.04,-18.9,15.38,11.43,-25.84,28.92,7.91,-12.92,16.17,7.21,-29.0,27.69,18.46,2.64,-10.9,-2.13,-26.38,36.18,-6.01,-20.67,14.23,12.3,-31.23,36.44,8.81,-11.87,15.19,7.64,-35.82,32.5,18.64,4.54,-11.94,-0.0609,-0.1148,-0.2508,-0.1719,0.0786,-0.5973,0.3515,-0.1992,-0.2687,0.2518,0.2387,-0.5859,0.2184,-0.2057,-0.3117,0.5325,0.5372,-0.9051,0.006,0.019,0.013,0.0,0.033,0.013,0.006,0.026,0.026,0.013,0.013,0.006,0.0,0.033,0.0,0.006,0.0,0.006,-0.0522,-0.3175,0.4786,-0.0644,-0.3053,0.2777,0.1979,-0.4295,0.4725,0.1289,-0.2301,0.2869,0.1197,-0.4847,0.4541,0.3191,0.0307,-0.1856,-0.0002,-0.3107,0.3122,-0.1546,-0.3086,-0.1158,0.1082,-0.2969,0.3064,0.1372,-0.2009,-0.0169,0.0932,-0.3126,0.2907,0.086,0.1192,-0.1834,0.0037,-0.0419,-0.0128,-0.0117,-0.0095,-0.0695,-0.1074,-0.266,-0.1568,0.0617,-0.59,0.3423,-0.168,-0.297,0.2442,0.2308,-0.5792,0.2136,-0.1846,-0.333,0.529,0.5219,-0.9028,0.0,0.0,0.0,0.0,0.0,0.0,0.0,0.0,0.0,
0.96,run,0.51,3.47,-0.53,0.4,3.57,0.0,0.0,0.0,0.039,-2.2,-20.39,30.41,-5.71,-19.95,14.77,11.87,-27.25,30.41,8.44,-12.74,15.64,7.47,-30.41,29.09,18.54,3.25,-11.43,-2.03,-27.88,37.68,-6.48,-19.71,14.11,12.46,-32.73,37.94,9.15,-11.33,14.63,7.76,-37.27,34.0,18.65,5.11,-12.39,-0.058,-0.1204,-0.2358,-0.1851,0.0962,-0.5987,0.3559,-0.2267,-0.2465,0.2614,0.2485,-0.5926,0.2217,-0.223,-0.2943,0.533,0.5474,-0.9105,0.0,0.026,0.013,0.0,0.019,0.0,0.006,0.026,0.026,0.006,0.006,0.006,0.006,0.026,0.006,0.0,0.006,0.006,-0.043,-0.3421,0.5016,-0.0736,-0.3298,0.2654,0.2025,-0.4541,0.497,0.1381,-0.2316,0.2807,0.1227,-0.5093,0.4786,0.3221,0.043,-0.1948,0.0342,-0.309,0.3043,-0.1425,-0.3075,-0.1268,0.0929,-0.2994,0.306,0.1303,-0.1464,-0.0347,0.0767,-0.3103,0.295,0.0716,0.1292,-0.1627,0.0046,-0.0424,0.0077,0.0065,-0.0194,-0.0609,-0.1148,-0.2508,-0.1719,0.0786,-0.5973,0.3515,-0.1992,-0.2687,0.2518,0.2387,-0.5859,0.2184,-0.2057,-0.3117,0.5325,0.5372,-0.9051,0.0,0.0,0.0,0.0,0.0,0.0,0.0,0.0,0.0,
1.0,run,0.51,3.46,0.0,-0.22,-0.97,0.0,0.0,0.0,0.039,-2.37,-21.8,31.82,-5.45,-20.92,14.33,12.04,-28.74,31.82,8.79,-12.22,15.03,7.65,-31.82,30.5,18.54,4.04,-11.87,-2.0,-29.38,39.18,-6.69,-18.59,14.16,12.7,-34.23,39.44,9.38,-10.67,14.2,7.71,-37.9,35.5,18.6,5.58,-12.75,-0.0572,-0.126,-0.2228,-0.1912,0.1166,-0.5982,0.3628,-0.2495,-0.2294,0.2679,0.2606,-0.5976,0.2202,-0.2345,-0.2723,0.5315,0.5561,-0.9147,0.0,0.026,0.013,0.0,0.019,0.0,0.006,0.026,0.026,0.006,0.006,0.006,0.006,0.026,0.006,0.0,0.006,0.006,-0.0414,-0.3666,0.5277,-0.1028,-0.3482,0.2546,0.2102,-0.4786,0.5231,0.1473,-0.2286,0.2715,0.1273,-0.5338,0.5031,0.3237,0.0537,-0.204,0.0297,-0.3083,0.3108,-0.2091,-0.2843,-0.129,0.0938,-0.3016,0.312,0.1258,-0.0909,-0.0588,0.071,-0.3093,0.2985,0.0559,0.1307,-0.1484,0.0022,-0.042,-0.0093,0.007,0.0623,-0.058,-0.1204,-0.2358,-0.1851,0.0962,-0.5987,0.3559,-0.2267,-0.2465,0.2614,0.2485,-0.5926,0.2217,-0.223,-0.2943,0.533,0.5474,-0.9105,0.0,0.0,0.0,0.0,0.0,0.0,0.0,0.0,0.0,
1.04,run,0.49,3.39,0.01,-0.07,-1.2,0.0,0.0,0.0,0.039,-1.93,-23.2,33.13,-5.8,-21.45,14.24,12.3,-30.06,33.22,9.14,-11.6,14.59,7.56,-33.22,31.9,18.54,4.66,-12.3,-1.76,-30.88,40.68,-7.16,-17.55,13.48,12.9,-35.73,40.94,9.62,-10.03,13.2,7.78,-38.94,37.0,18.64,6.35,-13.26,-0.0502,-0.1319,-0.2114,-0.2045,0.1354,-0.6061,0.3685,-0.2835,-0.2005,0.2748,0.2723,-0.6094,0.2223,-0.2535,-0.2601,0.5325,0.5701,-0.9207,0.0,0.026,0.013,0.0,0.019,0.0,0.006,0.026,0.026,0.006,0.006,0.006,0.006,0.026,0.006,0.0,0.006,0.006,-0.0445,-0.3912,0.5522,-0.0982,-0.3651,0.247,0.2132,-0.5047,0.5476,0.1534,-0.2194,0.2608,0.1304,-0.5584,0.5277,0.3237,0.0675,-0.2117,0.0092,-0.3084,0.3101,-0.129,-0.2627,-0.1192,0.0772,-0.3095,0.311,0.1112,-0.0289,-0.0817,0.0612,-0.3091,0.3015,0.0391,0.1436,-0.1328,0.0023,-0.043,0.0,-0.0038,-0.017,-0.0572,-0.126,-0.2228,-0.1912,0.1166,-0.5982,0.3628,-0.2495,-0.2294,0.2679,0.2606,-0.5976,0.2202,-0.2345,-0.2723,0.5315,0.5561,-0.9147,0.0,0.0,0.0,0.0,0.0,0.0,0.0,0.0,0.0,
1.08,run,0.5,3.42,0.21,0.84,2.8,0.0,0.0,0.0,0.039,-1.58,-24.7,34.63,-7.21,-21.62,13.97,12.48,-31.46,34.54,9.49,-10.9,13.97,7.73,-34.63,33.4,18.54,5.36,-12.74,-1.68,-32.38,42.18,-7.42,-16.46,13.36,13.03,-37.23,42.44,9.87,-9.3,12.63,7.76,-39.6,38.5,18.51,6.63,-13.55,-0.0479,-0.1379,-0.1992,-0.2121,0.1552,-0.6076,0.3722,-0.3088,-0.1801,0.2819,0.2855,-0.6161,0.2217,-0.2654,-0.2476,0.5289,0.5751,-0.9241,0.006,0.026,0.006,0.006,0.0,0.006,0.006,0.026,0.019,0.006,0.0,0.006,0.0,0.026,0.006,0.0,0.006,0.0,-0.0368,-0.4157,0.5752,-0.1043,-0.3743,0.2454,0.2178,-0.5277,0.5722,0.1595,-0.2086,0.2531,0.1289,-0.5829,0.5522,0.3237,0.0782,-0.2194,0.035,-0.3074,0.3029,-0.1132,-0.2182,-0.0892,0.0712,-0.3024,0.3092,0.1007,0.0198,-0.0858,0.0371,-0.3079,0.3026,0.0274,0.1405,-0.1216,0.0008,-0.049,0.0001,-0.0013,-0.021,-0.0502,-0.1319,-0.2114,-0.2045,0.1354,-0.6061,0.3685,-0.2835,-0.2005,0.2748,0.2723,-0.6094,0.2223,-0.2535,-0.2601,0.5325,0.5701,-0.9207,0.0,0.0,0.0,0.0,0.0,0.0,0.0,0.0,0.0,
1.12,run,0.45,3.39,-0.39,-0.53,-0.52,0.0,0.0,0.0,0.039,-1.93,-26.02,36.12,-6.94,-21.71,13.45,12.74,-32.96,35.95,9.67,-10.28,13.27,7.65,-36.12,34.8,18.54,5.98,-13.18,-1.66,-32.91,43.68,-7.59,-15.23,13.35,13.19,-38.73,43.94,10.12,-8.45,12.1,7.62,-40.14,40.0,18.35,7.01,-13.96,-0.0473,-0.1439,-0.1883,-0.2169,0.1777,-0.6077,0.377,-0.334,-0.163,0.2893,0.301,-0.6224,0.2178,-0.2753,-0.2292,0.5242,0.582,-0.9289,0.006,0.026,0.006,0.006,0.0,0.006,0.006,0.026,0.019,0.006,0.0,0.006,0.0,0.026,0.006,0.0,0.006,0.0,-0.0307,-0.4418,0.6013,-0.1289,-0.3774,0.2408,0.2209,-0.5522,0.5952,0.1657,-0.1963,0.2424,0.1319,-0.6075,0.5783,0.3237,0.0905,-0.227,0.0476,-0.313,0.3099,-0.1713,-0.1642,-0.0797,0.0614,-0.3038,0.3028,0.0935,0.0599,-0.1003,0.0375,-0.3076,0.3097,0.0192,0.1444,-0.1139,0.001,-0.0463,0.0037,0.0147,0.0489,-0.0479,-0.1379,-0.1992,-0.2121,0.1552,-0.6076,0.3722,-0.3088,-0.1801,0.2819,0.2855,-0.6161,0.2217,-0.2654,-0.2476,0.5289,0.5751,-0.9241,0.0,0.0,0.0,0.0,0.0,0.0,0.0,0.0,0.0,
1.16,run,0.45,3.35,-0.08,-0.37,-1.92,0.0,0.0,0.0,0.039,-1.41,-27.51,37.53,-6.94,-21.36,13.54,12.83,-34.37,37.44,9.67,-9.67,12.66,7.65,-37.27,36.21,18.54,6.42,-13.45,-1.32,-33.1,45.18,-7.85,-14.01,12.43,13.44,-40.23,45.44,10.25,-7.51,10.9,7.71,-41.14,41.5,18.33,7.64,-14.29,-0.0376,-0.1473,-0.1814,-0.2242,0.1998,-0.6184,0.3841,-0.3682,-0.1318,0.2927,0.3179,-0.6365,0.2202,-0.2934,-0.214,0.5236,0.5934,-0.9329,0.006,0.026,0.006,0.006,0.0,0.006,0.006,0.026,0.019,0.006,0.0,0.006,0.0,0.026,0.006,0.0,0.006,0.0,-0.0368,-0.4648,0.6274,-0.1243,-0.3789,0.2316,0.2255,-0.5783,0.6197,0.1687,-0.1856,0.2301,0.1304,-0.6335,0.6029,0.3237,0.1012,-0.2347,0.0102,-0.3058,0.3152,-0.1026,-0.1207,-0.0905,0.0603,-0.3109,0.3044,0.077,0.0824,-0.1165,0.0205,-0.3136,0.3092,0.0134,0.1416,-0.1086,-0.0029,-0.0494,-0.0068,-0.0093,-0.009,-0.0473,-0.1439,-0.1883,-0.2169,0.1777,-0.6077,0.377,-0.334,-0.163,0.2893,0.301,-0.6224,0.2178,-0.2753,-0.2292,0.5242,0.582,-0.9289,0.0,0.0,0.0,0.0,0.0,0.0,0.0,0.0,0.0,
1.2,run,0.49,3.38,0.73,0.74,1.57,0.0,0.0,0.0,0.058,-1.41,-28.92,38.85,-8.0,-20.3,13.1,13.01,-35.86,38.85,10.2,-8.88,12.04,7.65,-38.41,37.62,18.37,6.94,-13.89,-1.15,-33.4,46.68,-8.15,-12.92,12.27,13.53,-41.73,46.94,10.51,-6.6,10.22,7.76,-41.74,43.0,18.11,7.93,-14.61,-0.0329,-0.1528,-0.1706,-0.2329,0.2197,-0.6203,0.3864,-0.3946,-0.1073,0.3003,0.3345,-0.6445,0.2217,-0.3043,-0.1999,0.5173,0.5988,-0.9366,0.013,0.026,0.006,0.006,0.013,0.006,0.0,0.033,0.019,0.006,0.006,0.006,0.0,0.058,0.0,0.006,0.0,0.006,-0.0276,-0.4909,0.6519,-0.1243,-0.3728,0.2332,0.227,-0.6029,0.6458,0.1687,-0.1749,0.2194,0.1304,-0.6535,0.6274,0.3237,0.1089,-0.2393,0.0415,-0.3114,0.3122,-0.0718,-0.0616,-0.0576,0.0479,-0.3092,0.3104,0.0539,0.0977,-0.1216,0.0143,-0.2939,0.3081,0.0094,0.1277,-0.0932,-0.0034,-0.0521,-0.0013,-0.0065,-0.0335,-0.0376,-0.1473,-0.1814,-0.2242,0.1998,-0.6184,0.3841,-0.3682,-0.1318,0.2927,0.3179,-0.6365,0.2202,-0.2934,-0.214,0.5236,0.5934,-0.9329,0.0,0.0,0.0,0.0,0.0,0.0,0.0,0.0,0.0,
1.24,run,0.42,3.35,-1.32,-0.85,0.76,0.0,0.0,0.0,0.058,-1.32,-30.23,40.34,-8.17,-19.25,12.57,13.27,-37.27,40.25,10.2,-8.0,11.07,7.65,-39.38,39.02,18.19,7.38,-14.33,-1.06,-33.75,48.18,-8.24,-11.48,12.07,13.69,-43.23,48.44,10.81,-5.59,9.57,7.65,-42.51,44.5,17.77,8.21,-14.98,-0.0302,-0.1591,-0.1591,-0.2354,0.2458,-0.6227,0.3911,-0.421,-0.0886,0.3089,0.3529,-0.6521,0.2185,-0.3184,-0.1805,0.5078,0.6038,-0.941,0.013,0.026,0.006,0.006,0.013,0.006,0.0,0.033,0.019,0.006,0.006,0.006,0.0,0.058,0.0,0.006,0.0,0.006,-0.0276,-0.5154,0.675,-0.1427,-0.3543,0.2255,0.2301,-0.6289,0.6703,0.1779,-0.1611,0.2086,0.1304,-0.6734,0.6519,0.3206,0.1181,-0.247,0.029,-0.3101,0.3049,-0.1193,0.0259,-0.0691,0.0451,-0.3143,0.3094,0.0723,0.1202,-0.1254,0.01,-0.2806,0.3077,-0.0049,0.1239,-0.094,0.0,-0.0498,0.0127,0.013,0.0274,-0.0329,-0.1528,-0.1706,-0.2329,0.2197,-0.6203,0.3864,-0.3946,-0.1073,0.3003,0.3345,-0.6445,0.2217,-0.3043,-0.1999,0.5173,0.5988,-0.9366,0.0,0.0,0.0,0.0,0.0,0.0,0.0,0.0,0.0,
1.28,run,0.45,3.34,0.82,0.1,-1.72,0.0,0.0,0.0,0.058,-0.79,-31.46,41.75,-7.82,-17.84,12.22,13.36,-38.58,41.66,10.55,-7.21,10.37,7.65,-40.25,40.43,18.02,7.73,-14.41,-0.71,-33.96,49.68,-8.41,-10.11,11.38,13.88,-44.73,49.94,10.98,-4.44,8.31,7.78,-43.42,46.0,17.59,8.52,-15.09,-0.0204,-0.1629,-0.1531,-0.2404,0.2708,-0.6308,0.3966,-0.4533,-0.0563,0.3136,0.3738,-0.6669,0.2222,-0.3348,-0.1553,0.5027,0.6095,-0.9423,0.013,0.026,0.006,0.006,0.013,0.006,0.0,0.033,0.019,0.006,0.006,0.006,0.0,0.058,0.0,0.006,0.0,0.006,-0.0261,-0.5384,0.701,-0.1457,-0.3359,0.2163,0.2347,-0.6535,0.6949,0.1779,-0.1457,0.1917,0.1304,-0.6903,0.6765,0.3175,0.1258,-0.2546,0.0261,-0.3033,0.3112,-0.095,0.0871,-0.0829,0.0488,-0.312,0.3086,0.0506,0.1416,-0.151,0.007,-0.2596,0.3074,-0.015,0.1155,-0.0946,-0.0057,-0.0528,-0.023,-0.0148,0.0132,-0.0302,-0.1591,-0.1591,-0.2354,0.2458,-0.6227,0.3911,-0.421,-0.0886,0.3089,0.3529,-0.6521,0.2185,-0.3184,-0.1805,0.5078,0.6038,-0.941,0.0,0.0,0.0,0.0,0.0,0.0,0.0,0.0,0.0,
1.32,run,0.4,3.34,-0.5,0.17,1.91,0.0,0.0,0.0,0.084,-1.05,-32.26,43.24,-8.09,-16.35,11.87,13.45,-40.08,43.07,10.81,-6.24,9.58,7.65,-41.31,41.92,17.49,8.09,-14.85,-0.48,-34.16,51.18,-8.61,-8.81,11.01,13.91,-46.23,51.44,11.29,-3.49,7.38,7.88,-44.52,47.5,17.3,8.72,-15.55,-0.0138,-0.1666,-0.1444,-0.2459,0.2944,-0.6351,0.3973,-0.4833,-0.03,0.3226,0.3911,-0.6779,0.2252,-0.3549,-0.139,0.4942,0.6131,-0.9476,0.013,0.019,0.019,0.0,0.0,0.006,0.006,0.033,0.019,0.013,0.006,0.006,0.006,0.084,0.006,0.006,0.006,0.0,-0.0169,-0.5599,0.7256,-0.1396,-0.3114,0.2102,0.2362,-0.6765,0.7194,0.1841,-0.1319,0.1795,0.1304,-0.7056,0.701,0.3145,0.1319,-0.2562,0.0528,-0.2928,0.3099,-0.0435,0.1531,-0.081,0.0399,-0.3047,0.308,0.0584,0.1509,-0.1517,0.0049,-0.2393,0.3072,-0.022,0.1039,-0.0719,-0.0034,-0.0534,0.0143,0.0018,-0.0301,-0.0204,-0.1629,-0.1531,-0.2404,0.2708,-0.6308,0.3966,-0.4533,-0.0563,0.3136,0.3738,-0.6669,0.2222,-0.3348,-0.1553,0.5027,0.6095,-0.9423,0.0,0.0,0.0,0.0,0.0,0.0,0.0,0.0,0.0,
1.36,run,0.44,3.37,0.57,0.26,0.14,0.0,0.0,0.0,0.084,-0.53,-33.13,44.47,-8.7,-15.03,11.25,13.71,-41.48,44.47,10.99,-5.27,8.61,7.73,-42.19,43.33,17.49,8.44,-15.12,-0.2,-34.55,52.68,-8.66,-7.31,10.3,14.12,-47.73,52.94,11.53,-2.44,6.27,7.96,-45.61,49.0,17.05,8.98,-15.66,-0.0056,-0.1736,-0.1364,-0.2473,0.3225,-0.6436,0.4034,-0.5121,-0.0044,0.3294,0.4102,-0.6909,0.2273,-0.3746,-0.1136,0.4872,0.6179,-0.949,0.013,0.019,0.019,0.0,0.0,0.006,0.006,0.033,0.019,0.013,0.006,0.006,0.006,0.084,0.006,0.006,0.006,0.0,-0.0215,-0.5737,0.7517,-0.1442,-0.2853,0.204,0.2378,-0.7026,0.744,0.1887,-0.115,0.1657,0.1304,-0.724,0.7271,0.3053,0.1381,-0.2638,0.0197,-0.2567,0.3146,-0.0477,0.2048,-0.0797,0.0337,-0.311,0.3076,0.0581,0.1689,-0.1579,0.0034,-0.2365,0.3128,-0.0499,0.0957,-0.0791,-0.0072,-0.0533,-0.0086,0.003,0.0334,-0.0138,-0.1666,-0.1444,-0.2459,0.2944,-0.6351,0.3973,-0.4833,-0.03,0.3226,0.3911,-0.6779,0.2252,-0.3549,-0.139,0.4942,0.6131,-0.9476,0.0,0.0,0.0,0.0,0.0,0.0,0.0,0.0,0.0,
1.4,run,0.46,3.41,1.08,0.63,-1.63,0.0,0.0,0.0,0.084,-0.18,-33.66,46.05,-8.79,-13.54,10.9,13.71,-42.8,45.97,11.34,-4.39,7.73,7.91,-43.24,44.74,17.05,8.53,-15.47,0.1,-34.49,53.72,-8.75,-6.09,9.83,14.2,-49.23,54.44,11.87,-1.38,5.1,8.21,-46.71,50.5,16.83,9.18,-15.99,0.003,-0.1726,-0.1327,-0.25,0.3438,-0.6491,0.4057,-0.5399,0.0237,0.3391,0.4295,-0.7048,0.2347,-0.3948,-0.0842,0.4808,0.6214,-0.9528,0.013,0.019,0.019,0.0,0.0,0.006,0.006,0.033,0.019,0.013,0.006,0.006,0.006,0.084,0.006,0.006,0.006,0.0,-0.0123,-0.589,0.7731,-0.1549,-0.2623,0.1933,0.2424,-0.7271,0.7685,0.1917,-0.0982,0.1488,0.1319,-0.7394,0.7517,0.3053,0.1442,-0.2684,0.0483,-0.2373,0.3008,-0.0737,0.2297,-0.0961,0.0408,-0.3098,0.3074,0.0522,0.1815,-0.1739,0.0082,-0.2231,0.311,-0.0349,0.09,-0.0726,-0.0038,-0.0506,0.01,0.0045,0.0024,-0.0056,-0.1736,-0.1364,-0.2473,0.3225,-0.6436,0.4034,-0.5121,-0.0044,0.3294,0.4102,-0.6909,0.2273,-0.3746,-0.1136,0.4872,0.6179,-0.949,0.0,0.0,0.0,0.0,0.0,0.0,0.0,0.0,0.0,
1.44,run,0.45,3.37,-0.19,-0.32,0.22,0.0,0.0,0.0,0.084,-0.35,-34.01,47.37,-8.44,-12.13,10.37,13.89,-44.3,47.37,11.6,-3.43,6.77,7.91,-44.12,46.23,16.88,8.88,-15.64,0.42,-34.56,54.14,-8.83,-4.85,9.09,14.28,-50.73,55.94,12.22,-0.48,3.99,8.5,-48.05,52.0,16.62,9.39,-16.23,0.0121,-0.1737,-0.1278,-0.2523,0.3663,-0.6578,0.4079,-0.5679,0.053,0.3491,0.4457,-0.7177,0.2427,-0.4191,-0.0576,0.4747,0.6253,-0.9556,0.019,0.013,0.013,0.006,0.019,0.013,0.006,0.033,0.026,0.006,0.006,0.006,0.019,0.084,0.013,0.006,0.0,0.0,-0.0061,-0.5983,0.8007,-0.1565,-0.2362,0.1871,0.2424,-0.7501,0.7946,0.1979,-0.0828,0.1335,0.135,-0.7578,0.7762,0.2976,0.1457,-0.2746,0.0568,-0.2006,0.3142,-0.0573,0.2586,-0.0903,0.0286,-0.3032,0.313,0.0596,0.1846,-0.1793,0.0172,-0.2252,0.3098,-0.0532,0.0688,-0.0739,-0.0021,-0.0472,0.0188,0.011,-0.0285,0.003,-0.1726,-0.1327,-0.25,0.3438,-0.6491,0.4057,-0.5399,0.0237,0.3391,0.4295,-0.7048,0.2347,-0.3948,-0.0842,0.4808,0.6214,-0.9528,0.0,0.0,0.0,0.0,0.0,0.0,0.0,0.0,0.0,
1.48,run,0.45,3.38,0.51,0.39,-0.3,0.0,0.0,0.0,0.084,0.35,-34.1,48.87,-8.44,-10.81,9.67,13.97,-45.62,48.78,11.95,-2.37,5.71,8.09,-45.09,47.64,16.61,9.14,-16.0,0.87,-34.58,54.06,-8.75,-3.52,8.01,14.5,-52.23,57.44,12.29,0.57,2.49,8.81,-49.25,53.5,16.52,9.53,-16.28,0.0248,-0.1741,-0.1288,-0.25,0.3906,-0.6705,0.4142,-0.5937,0.0821,0.3511,0.4649,-0.7367,0.2517,-0.441,-0.0274,0.472,0.6277,-0.9563,0.019,0.013,0.013,0.006,0.019,0.013,0.006,0.033,0.026,0.006,0.006,0.006,0.019,0.084,0.013,0.006,0.0,0.0,-0.0092,-0.6044,0.8237,-0.1503,-0.2117,0.1779,0.2454,-0.7762,0.8191,0.2025,-0.066,0.1166,0.135,-0.7731,0.8023,0.2945,0.1519,-0.2777,0.0284,-0.1633,0.3057,-0.0173,0.2725,-0.0975,0.0314,-0.3094,0.3106,0.0589,0.1921,-0.1884,0.0121,-0.2148,0.3141,-0.0487,0.071,-0.0631,-0.0035,-0.0504,-0.0033,-0.0055,0.0038,0.0121,-0.1737,-0.1278,-0.2523,0.3663,-0.6578,0.4079,-0.5679,0.053,0.3491,0.4457,-0.7177,0.2427,-0.4191,-0.0576,0.4747,0.6253,-0.9556,0.0,0.0,0.0,0.0,0.0,0.0,0.0,0.0,0.0,
1.52,run,0.48,3.31,0.19,-0.13,-1.67,0.0,0.0,0.0,0.084,0.7,-34.1,50.19,-8.44,-9.32,9.14,14.06,-46.93,50.19,12.13,-1.49,4.66,8.53,-46.23,49.04,16.61,9.32,-16.0,1.23,-34.44,53.95,-8.68,-2.34,7.2,14.59,-53.73,58.94,12.52,1.47,0.99,9.18,-50.54,55.0,16.41,9.61,-16.47,0.0351,-0.1716,-0.13,-0.248,0.4121,-0.68,0.4168,-0.6174,0.1101,0.3578,0.4813,-0.753,0.2622,-0.4643,0.0039,0.4687,0.6293,-0.9585,0.019,0.013,0.013,0.006,0.019,0.013,0.006,0.033,0.026,0.006,0.006,0.006,0.019,0.084,0.013,0.006,0.0,0.0,0.0031,-0.6059,0.8498,-0.1503,-0.1887,0.1657,0.247,-0.7992,0.8437,0.2086,-0.0476,0.0982,0.1381,-0.79,0.8268,0.2899,0.1565,-0.2838,0.0663,-0.1201,0.3126,-0.0121,0.2778,-0.1147,0.0278,-0.3036,0.3102,0.0644,0.2041,-0.2015,0.02,-0.2142,0.3127,-0.0515,0.0671,-0.0674,-0.0029,-0.05,0.0089,0.0069,-0.0053,0.0248,-0.1741,-0.1288,-0.25,0.3906,-0.6705,0.4142,-0.5937,0.0821,0.3511,0.4649,-0.7367,0.2517,-0.441,-0.0274,0.472,0.6277,-0.9563,0.0,0.0,0.0,0.0,0.0,0.0,0.0,0.0,0.0,
1.56,run,0.46,3.32,-0.53,-0.22,2.34,0.0,0.0,0.0,0.123,0.62,-34.1,51.5,-8.44,-7.91,8.26,14.24,-48.43,51.59,12.3,-0.44,3.43,8.79,-47.37,50.45,16.44,9.49,-16.17,1.61,-34.08,53.64,-8.47,-1.42,6.33,14.71,-55.23,60.44,12.61,2.38,-0.29,9.56,-51.65,56.5,16.36,9.7,-16.41,0.046,-0.165,-0.1337,-0.242,0.4288,-0.6902,0.4202,-0.6374,0.1356,0.3602,0.4977,-0.7681,0.2732,-0.4846,0.0337,0.4673,0.6309,-0.9578,0.0,0.0,0.0,0.0,0.013,0.013,0.006,0.039,0.019,0.006,0.0,0.019,0.006,0.123,0.006,0.006,0.0,0.0,0.0092,-0.6059,0.8728,-0.1503,-0.1626,0.1565,0.2485,-0.8222,0.8682,0.2117,-0.0322,0.0798,0.1457,-0.8099,0.8514,0.2899,0.1595,-0.2838,0.0693,-0.0841,0.3047,-0.0085,0.2918,-0.1146,0.0252,-0.2984,0.3087,0.0565,0.2001,-0.2097,0.0426,-0.2243,0.3104,-0.036,0.0584,-0.0472,-0.0009,-0.0563,0.0033,-0.0022,-0.0291,0.0351,-0.1716,-0.13,-0.248,0.4121,-0.68,0.4168,-0.6174,0.1101,0.3578,0.4813,-0.753,0.2622,-0.4643,0.0039,0.4687,0.6293,-0.9585,0.0,0.0,0.0,0.0,0.0,0.0,0.0,0.0,0.0,
1.6,run,0.51,3.31,0.69,0.32,-1.81,0.0,0.0,0.0,0.123,1.76,-34.1,52.65,-8.44,-6.24,7.29,14.41,-50.1,53.26,12.48,0.7,1.93,9.32,-48.78,52.12,16.35,9.49,-16.35,2.01,-33.87,53.3,-8.27,-0.16,5.26,14.96,-56.73,61.94,12.63,3.32,-1.7,9.9,-52.67,58.0,16.35,9.9,-16.29,0.0574,-0.1614,-0.1376,-0.2363,0.4516,-0.7028,0.4274,-0.6545,0.1597,0.3609,0.5149,-0.7847,0.2828,-0.5032,0.0667,0.4671,0.6346,-0.9564,0.0,0.0,0.0,0.0,0.013,0.013,0.006,0.039,0.019,0.006,0.0,0.019,0.006,0.123,0.006,0.006,0.0,0.0,0.0077,-0.6059,0.8958,-0.1503,-0.1381,0.1411,0.2516,-0.8483,0.8928,0.2148,-0.0138,0.0583,0.1503,-0.8299,0.8759,0.2869,0.1626,-0.2869,0.0427,-0.0589,0.2998,-0.0059,0.2965,-0.1379,0.0292,-0.3069,0.3084,0.0511,0.2093,-0.2275,0.0472,-0.232,0.3096,-0.0368,0.0524,-0.0446,-0.002,-0.0554,-0.0093,-0.0039,0.0408,0.046,-0.165,-0.1337,-0.242,0.4288,-0.6902,0.4202,-0.6374,0.1356,0.3602,0.4977,-0.7681,0.2732,-0.4846,0.0337,0.4673,0.6309,-0.9578,0.0,0.0,0.0,0.0,0.0,0.0,0.0,0.0,0.0,
1.64,run,0.47,3.3,-0.79,-0.13,1.99,0.0,0.0,0.0,0.123,1.41,-34.1,53.35,-8.44,-4.83,6.59,14.41,-51.5,54.67,12.39,1.58,0.88,9.49,-49.75,53.61,16.35,9.49,-16.35,2.4,-33.06,52.58,-7.91,0.93,4.04,15.05,-58.23,63.44,12.67,4.27,-3.14,10.41,-53.99,59.5,16.39,9.92,-16.1,0.0687,-0.1466,-0.1461,-0.226,0.4715,-0.7172,0.43,-0.6734,0.1902,0.3621,0.5321,-0.8017,0.2975,-0.5271,0.1041,0.4683,0.6348,-0.9541,0.0,0.0,0.0,0.0,0.013,0.013,0.006,0.039,0.019,0.006,0.0,0.019,0.006,0.123,0.006,0.006,0.0,0.0,0.0276,-0.6059,0.9158,-0.1503,-0.1089,0.1243,0.2546,-0.8774,0.9219,0.2178,0.0061,0.0322,0.1595,-0.8544,0.905,0.2853,0.1626,-0.2899,0.0935,-0.0412,0.2734,-0.0041,0.3005,-0.1503,0.0302,-0.3078,0.3088,0.0456,0.2101,-0.2424,0.0624,-0.2407,0.3097,-0.0306,0.0367,-0.041,0.0024,-0.056,0.012,0.0057,-0.0317,0.0574,-0.1614,-0.1376,-0.2363,0.4516,-0.7028,0.4274,-0.6545,0.1597,0.3609,0.5149,-0.7847,0.2828,-0.5032,0.0667,0.4671,0.6346,-0.9564,0.0,0.0,0.0,0.0,0.0,0.0,0.0,0.0,0.0,
1.68,run,0.51,3.33,0.51,0.29,-0.16,0.0,0.0,0.0,0.123,2.02,-34.01,53.7,-8.44,-3.43,5.71,14.68,-53.0,56.07,12.57,2.46,-0.35,9.84,-50.89,55.02,16.35,9.67,-16.35,2.77,-32.82,52.34,-7.69,1.93,3.21,15.3,-59.73,64.94,12.58,5.06,-4.18,10.79,-54.75,61.0,16.37,10.12,-15.78,0.0792,-0.1421,-0.1489,-0.2196,0.4897,-0.7269,0.4373,-0.6848,0.2109,0.3594,0.5465,-0.8139,0.3083,-0.5409,0.133,0.4678,0.6385,-0.9504,0.0,0.006,0.0,0.013,0.006,0.013,0.006,0.039,0.019,0.0,0.006,0.013,0.013,0.111,0.006,0.0,0.0,0.006,0.0215,-0.6059,0.9281,-0.1503,-0.0844,0.112,0.2546,-0.902,0.9465,0.2163,0.0215,0.0138,0.1626,-0.8713,0.9311,0.2853,0.1626,-0.2899,0.0426,-0.0288,0.237,-0.0029,0.3016,-0.1509,0.0211,-0.3067,0.3074,0.0262,0.2041,-0.2382,0.0551,-0.2312,0.3137,-0.0214,0.0257,-0.0287,-0.0018,-0.0568,-0.0138,-0.0023,0.0347,0.0687,-0.1466,-0.1461,-0.226,0.4715,-0.7172,0.43,-0.6734,0.1902,0.3621,0.5321,-0.8017,0.2975,-0.5271,0.1041,0.4683,0.6348,-0.9541,0.0,0.0,0.0,0.0,0.0,0.0,0.0,0.0,0.0,
1.72,run,0.53,3.29,0.7,-0.18,-1.04,0.0,0.0,0.0,0.123,2.81,-33.31,53.7,-8.35,-1.93,4.75,14.94,-54.4,57.48,12.48,3.43,-1.76,10.37,-52.12,56.43,16.35,9.84,-16.26,3.07,-32.02,51.6,-7.29,2.88,2.15,15.39,-61.23,66.44,12.48,5.85,-5.27,11.17,-55.73,62.5,16.46,10.14,-15.5,0.0877,-0.1276,-0.1577,-0.2083,0.5068,-0.7394,0.4398,-0.697,0.2323,0.3565,0.5609,-0.8267,0.3192,-0.5586,0.1618,0.4703,0.6389,-0.9471,0.0,0.006,0.0,0.013,0.006,0.013,0.006,0.039,0.019,0.0,0.006,0.013,0.013,0.111,0.006,0.0,0.0,0.006,0.0322,-0.6044,0.9342,-0.1503,-0.0598,0.0966,0.2592,-0.9281,0.971,0.2194,0.0368,-0.0077,0.1687,-0.8912,0.9557,0.2853,0.1657,-0.2899,0.0702,-0.0144,0.189,-0.002,0.3032,-0.1632,0.0321,-0.3126,0.3073,0.0298,0.2004,-0.2473,0.0616,-0.2367,0.3117,-0.015,0.0295,-0.0201,0.0018,-0.0541,0.0089,0.0051,-0.0028,0.0792,-0.1421,-0.1489,-0.2196,0.4897,-0.7269,0.4373,-0.6848,0.2109,0.3594,0.5465,-0.8139,0.3083,-0.5409,0.133,0.4678,0.6385,-0.9504,0.0,0.0,0.0,0.0,0.0,0.0,0.0,0.0,0.0,
1.76,run,0.47,3.3,-0.69,-0.24,0.8,0.0,0.0,0.0,0.123,2.46,-32.96,53.26,-7.82,-0.62,3.78,15.12,-55.81,58.89,12.48,4.31,-2.9,10.72,-53.17,57.83,16.35,10.02,-16.0,3.39,-31.09,50.49,-6.71,3.76,1.0,15.48,-62.73,67.94,12.2,6.66,-6.58,11.57,-56.54,64.0,16.59,10.1,-14.99,0.0969,-0.1108,-0.1707,-0.1917,0.5228,-0.7529,0.4423,-0.7056,0.2526,0.3486,0.5756,-0.8421,0.3306,-0.5734,0.1913,0.4741,0.6382,-0.9411,0.0,0.006,0.0,0.013,0.006,0.013,0.006,0.039,0.019,0.0,0.006,0.013,0.013,0.111,0.006,0.0,0.0,0.006,0.046,-0.5921,0.9342,-0.1488,-0.0337,0.0798,0.2638,-0.9526,0.9956,0.2178,0.0537,-0.0322,0.1779,-0.9127,0.9802,0.2853,0.1687,-0.2884,0.1008,0.0359,0.1323,0.0043,0.31,-0.1774,0.0397,-0.3107,0.3071,0.0151,0.2035,-0.2651,0.0776,-0.2461,0.3102,-0.0105,0.0321,-0.0083,0.0035,-0.0573,0.0121,-0.0031,-0.0181,0.0877,-0.1276,-0.1577,-0.2083,0.5068,-0.7394,0.4398,-0.697,0.2323,0.3565,0.5609,-0.8267,0.3192,-0.5586,0.1618,0.4703,0.6389,-0.9471,0.0,0.0,0.0,0.0,0.0,0.0,0.0,0.0,0.0,
1.8,run,0.48,3.35,0.74,0.73,-0.3,0.0,0.0,0.0,0.123,3.34,-32.43,52.47,-7.21,0.7,2.72,15.12,-57.3,60.29,12.48,5.19,-4.13,11.16,-54.23,59.33,16.35,10.02,-15.56,3.71,-30.37,49.83,-6.24,4.72,-0.08,15.69,-64.18,69.44,11.77,7.4,-7.59,11.9,-57.15,65.5,16.73,10.23,-14.52,0.106,-0.0977,-0.1785,-0.1782,0.5403,-0.7657,0.4483,-0.7124,0.2709,0.3362,0.5892,-0.854,0.34,-0.5846,0.2144,0.4779,0.6405,-0.9355,0.013,0.006,0.013,0.0,0.006,0.013,0.006,0.026,0.026,0.013,0.0,0.013,0.013,0.078,0.006,0.006,0.006,0.013,0.0399,-0.586,0.9265,-0.1396,-0.0107,0.0629,0.2669,-0.9771,1.0201,0.2178,0.069,-0.0522,0.1841,-0.9311,1.0048,0.2853,0.1718,-0.2838,0.0475,0.0482,0.0638,0.0376,0.3034,-0.1876,0.0393,-0.3097,0.3072,0.0106,0.2001,-0.2605,0.0774,-0.2415,0.3093,-0.0074,0.034,0.0115,-0.0015,-0.057,-0.012,-0.0042,0.014,0.0969,-0.1108,-0.1707,-0.1917,0.5228,-0.7529,0.4423,-0.7056,0.2526,0.3486,0.5756,-0.8421,0.3306,-0.5734,0.1913,0.4741,0.6382,-0.9411,0.0,0.0,0.0,0.0,0.0,0.0,0.0,0.0,0.0,
1.84,run,0.52,3.32,0.76,0.1,-1.71,0.0,0.0,0.0,0.123,3.69,-31.64,51.5,-6.77,2.02,1.58,15.29,-58.8,61.7,11.95,6.06,-5.36,11.6,-55.2,60.73,16.79,10.02,-15.12,3.94,-29.36,48.62,-5.65,5.67,-1.34,15.73,-64.52,70.94,11.43,8.07,-8.72,12.28,-57.84,67.0,16.89,10.2,-14.09,0.1127,-0.0793,-0.1927,-0.1614,0.5576,-0.7805,0.4493,-0.7186,0.2889,0.3265,0.6013,-0.8673,0.3508,-0.5971,0.2396,0.4826,0.64,-0.9304,0.013,0.006,0.013,0.0,0.006,0.013,0.006,0.026,0.026,0.013,0.0,0.013,0.013,0.078,0.006,0.006,0.006,0.013,0.0552,-0.5768,0.9127,-0.1289,0.0123,0.0445,0.2669,-1.0032,1.0446,0.2178,0.0844,-0.0736,0.1917,-0.9495,1.0308,0.2853,0.1718,-0.2761,0.0907,0.0682,-0.0071,0.0666,0.2986,-0.2003,0.0275,-0.3145,0.307,0.0074,0.1975,-0.2628,0.0829,-0.238,0.3142,-0.0051,0.0238,0.0368,-0.0005,-0.0525,0.0129,0.0127,-0.0053,0.106,-0.0977,-0.1785,-0.1782,0.5403,-0.7657,0.4483,-0.7124,0.2709,0.3362,0.5892,-0.854,0.34,-0.5846,0.2144,0.4779,0.6405,-0.9355,0.0,0.0,0.0,0.0,0.0,0.0,0.0,0.0,0.0,
1.88,run,0.47,3.28,-0.66,-0.48,1.13,0.0,0.0,0.0,0.123,3.34,-30.94,50.71,-6.33,3.08,0.62,15.47,-60.21,63.19,11.69,6.86,-6.5,11.78,-55.99,62.14,16.88,10.02,-14.77,4.21,-28.28,47.26,-4.99,6.39,-2.58,15.8,-64.76,72.44,10.93,8.82,-9.86,12.68,-58.33,68.5,17.09,10.21,-13.53,0.1202,-0.0596,-0.2087,-0.1424,0.5708,-0.795,0.4516,-0.7229,0.3057,0.3123,0.6149,-0.8807,0.3622,-0.6059,0.2632,0.4881,0.6402,-0.9239,0.013,0.006,0.013,0.0,0.006,0.013,0.006,0.026,0.026,0.013,0.0,0.013,0.013,0.078,0.006,0.006,0.006,0.013,0.0614,-0.563,0.8958,-0.1212,0.0353,0.0245,0.27,-1.0293,1.0692,0.2086,0.0997,-0.0951,0.1994,-0.9664,1.0554,0.293,0.1718,-0.2684,0.0865,0.0995,-0.0682,0.0753,0.2953,-0.2149,0.0308,-0.3179,0.3069,-0.0293,0.1958,-0.2644,0.0868,-0.2298,0.3119,0.0251,0.0167,0.0545,0.0027,-0.0549,0.0133,0.0018,-0.0299,0.1127,-0.0793,-0.1927,-0.1614,0.5576,-0.7805,0.4493,-0.7186,0.2889,0.3265,0.6013,-0.8673,0.3508,-0.5971,0.2396,0.4826,0.64,-0.9304,0.0,0.0,0.0,0.0,0.0,0.0,0.0,0.0,0.0,
1.92,run,0.51,3.31,0.92,0.44,-1.99,0.0,0.0,0.0,0.123,4.31,-30.06,49.66,-5.98,4.22,-0.53,15.47,-61.61,64.6,11.25,7.56,-7.65,12.3,-56.78,63.54,16.88,10.02,-14.24,4.46,-27.46,46.26,-4.42,7.17,-3.6,15.99,-64.79,73.94,10.4,9.47,-10.74,12.99,-58.61,70.0,17.21,10.27,-12.92,0.1274,-0.0448,-0.2205,-0.1262,0.5848,-0.807,0.457,-0.7234,0.3193,0.297,0.6267,-0.8911,0.3711,-0.6111,0.2822,0.4917,0.6413,-0.9167,0.013,0.006,0.013,0.013,0.006,0.006,0.006,0.019,0.019,0.006,0.006,0.013,0.006,0.052,0.006,0.006,0.006,0.006,0.0552,-0.5507,0.882,-0.1135,0.0537,0.0077,0.273,-1.0538,1.0953,0.204,0.1135,-0.115,0.2025,-0.9802,1.0799,0.2945,0.1718,-0.2623,0.0375,0.1157,-0.0995,0.0815,0.2758,-0.2138,0.033,-0.3146,0.3127,-0.0378,0.1888,-0.2599,0.0722,-0.2127,0.3105,0.0234,0.0117,0.0612,-0.0012,-0.0583,-0.0114,-0.0083,0.0198,0.1202,-0.0596,-0.2087,-0.1424,0.5708,-0.795,0.4516,-0.7229,0.3057,0.3123,0.6149,-0.8807,0.3622,-0.6059,0.2632,0.4881,0.6402,-0.9239,0.0,0.0,0.0,0.0,0.0,0.0,0.0,0.0,0.0,
1.96,run,0.5,3.3,-0.01,0.06,1.29,0.0,0.0,0.0,0.123,4.39,-29.18,48.6,-5.62,5.27,-1.67,15.64,-62.84,66.01,10.63,8.35,-8.88,12.74,-57.57,65.04,17.23,10.02,-13.71,4.63,-26.36,44.95,-3.77,7.83,-4.73,15.97,-64.96,75.44,9.99,9.99,-11.62,13.35,-59.16,71.5,17.41,10.26,-12.45,0.1322,-0.0248,-0.2358,-0.1078,0.5969,-0.8203,0.4562,-0.7265,0.3331,0.2853,0.6362,-0.9014,0.3815,-0.621,0.3014,0.4974,0.641,-0.9112,0.013,0.006,0.013,0.013,0.006,0.006,0.006,0.019,0.019,0.006,0.006,0.013,0.006,0.052,0.006,0.006,0.006,0.006,0.0721,-0.5354,0.8636,-0.1074,0.0736,-0.0123,0.273,-1.0784,1.1198,0.1963,0.1258,-0.135,0.2117,-0.994,1.1045,0.2945,0.1718,-0.2531,0.0892,0.1382,-0.1384,0.08,0.2674,-0.2241,0.0231,-0.3118,0.3104,-0.0551,0.178,-0.2564,0.0849,-0.2004,0.3089,0.0163,0.0082,0.0772,0.0024,-0.0563,0.016,0.0077,-0.0347,0.1274,-0.0448,-0.2205,-0.1262,0.5848,-0.807,0.457,-0.7234,0.3193,0.297,0.6267,-0.8911,0.3711,-0.6111,0.2822,0.4917,0.6413,-0.9167,0.0,0.0,0.0,0.0,0.0,0.0,0.0,0.0,0.0,
2.0,run,0.46,3.28,-0.88,-0.3,0.51,0.0,0.0,0.0,0.123,4.31,-28.3,47.55,-4.83,6.15,-2.72,15.82,-63.72,67.41,10.28,9.05,-9.84,13.01,-58.1,66.45,17.23,10.11,-13.18,4.83,-25.26,43.53,-3.08,8.57,-5.72,16.05,-64.8,76.94,9.35,10.69,-12.46,13.61,-59.21,73.0,17.56,10.3,-11.67,0.1381,-0.0047,-0.2526,-0.0881,0.6104,-0.832,0.4587,-0.7236,0.3435,0.2671,0.6488,-0.9112,0.3889,-0.622,0.32,0.5016,0.6418,-0.902,0.013,0.006,0.013,0.013,0.006,0.006,0.006,0.019,0.019,0.006,0.006,0.013,0.006,0.052,0.006,0.006,0.006,0.006,0.0736,-0.52,0.8452,-0.1012,0.092,-0.0322,0.2761,-1.0999,1.1443,0.1856,0.1396,-0.1565,0.2194,-1.0078,1.1305,0.3007,0.1718,-0.2439,0.0682,0.1545,-0.1661,0.079,0.2564,-0.2319,0.0277,-0.2991,0.3096,-0.0789,0.1765,-0.2602,0.0883,-0.1922,0.3143,0.0345,0.0057,0.0886,0.0012,-0.0569,-0.0003,0.001,0.0224,0.1322,-0.0248,-0.2358,-0.1078,0.5969,-0.8203,0.4562,-0.7265,0.3331,0.2853,0.6362,-0.9014,0.3815,-0.621,0.3014,0.4974,0.641,-0.9112,0.0,0.0,0.0,0.0,0.0,0.0,0.0,0.0,0.0,
2.04,run,0.47,3.26,-0.03,-0.45,-0.64,0.0,0.0,0.0,0.123,5.1,-27.33,46.32,-3.87,7.12,-3.87,15.82,-64.42,68.82,9.76,9.76,-10.99,13.45,-58.45,67.94,17.49,10.11,-12.66,5.03,-24.25,42.38,-2.46,9.19,-6.7,16.09,-64.79,78.44,8.74,11.17,-13.14,13.9,-59.53,74.5,17.73,10.3,-11.13,0.1437,0.0137,-0.2661,-0.0703,0.6217,-0.8436,0.4597,-0.7235,0.3562,0.2497,0.6576,-0.9193,0.3971,-0.6279,0.334,0.5065,0.6419,-0.8957,0.013,0.006,0.013,0.006,0.006,0.013,0.0,0.006,0.019,0.006,0.0,0.006,0.006,0.033,0.013,0.006,0.006,0.006,0.0721,-0.5047,0.8268,-0.0874,0.1074,-0.0506,0.2792,-1.1152,1.1689,0.1795,0.1519,-0.1733,0.224,-1.017,1.1551,0.3007,0.1733,-0.2347,0.042,0.1657,-0.1854,0.1072,0.2371,-0.2314,0.0309,-0.2669,0.3089,-0.0783,0.1696,-0.2455,0.0791,-0.1691,0.3122,0.0242,0.0098,0.0966,-0.0022,-0.0586,-0.0153,-0.0053,0.0088,0.1381,-0.0047,-0.2526,-0.0881,0.6104,-0.832,0.4587,-0.7236,0.3435,0.2671,0.6488,-0.9112,0.3889,-0.622,0.32,0.5016,0.6418,-0.902,0.0,0.0,0.0,0.0,0.0,0.0,0.0,0.0,0.0,
2.08,run,0.45,3.26,-0.44,-0.1,0.58,0.0,0.0,0.0,0.123,5.01,-26.28,45.18,-3.43,7.91,-4.92,15.82,-64.78,70.22,9.14,10.46,-11.87,13.62,-58.8,69.35,17.67,10.2,-12.04,5.18,-22.97,40.88,-1.68,9.87,-7.82,16.0,-64.68,79.94,8.11,11.69,-13.92,14.2,-59.78,76.0,17.93,10.25,-10.44,0.1481,0.037,-0.2866,-0.0481,0.6339,-0.8567,0.4572,-0.7215,0.3666,0.2318,0.667,-0.9285,0.4056,-0.6324,0.3498,0.5122,0.641,-0.8875,0.013,0.006,0.013,0.006,0.006,0.013,0.0,0.006,0.019,0.006,0.0,0.006,0.006,0.033,0.013,0.006,0.006,0.006,0.0859,-0.4878,0.8053,-0.0706,0.1243,-0.0706,0.2792,-1.1275,1.1934,0.1703,0.1641,-0.1933,0.2316,-1.0232,1.1812,0.3053,0.1733,-0.2255,0.0811,0.1791,-0.2101,0.1382,0.2291,-0.2366,0.0217,-0.2328,0.3081,-0.0892,0.1647,-0.2465,0.0841,-0.1413,0.3161,0.0341,0.0068,0.1021,-0.0016,-0.0603,-0.0005,-0.0078,-0.0111,0.1437,0.0137,-0.2661,-0.0703,0.6217,-0.8436,0.4597,-0.7235,0.3562,0.2497,0.6576,-0.9193,0.3971,-0.6279,0.334,0.5065,0.6419,-0.8957,0.0,0.0,0.0,0.0,0.0,0.0,0.0,0.0,0.0,
2.12,run,0.44,3.25,-0.45,-0.21,1.1,0.0,0.0,0.0,0.123,4.75,-25.31,44.03,-3.25,8.61,-5.89,15.82,-64.69,71.63,8.61,10.99,-12.83,13.97,-59.15,70.75,17.75,10.2,-11.51,5.34,-21.79,39.38,-0.96,10.42,-8.56,15.97,-64.39,81.44,7.4,12.14,-14.38,14.41,-59.83,77.5,18.03,10.32,-9.67,0.1525,0.0584,-0.3033,-0.0274,0.6439,-0.8654,0.4563,-0.7161,0.374,0.2115,0.6752,-0.9338,0.4118,-0.6333,0.3606,0.5152,0.6421,-0.8785,0.013,0.006,0.013,0.006,0.006,0.013,0.0,0.006,0.019,0.006,0.0,0.006,0.006,0.033,0.013,0.006,0.006,0.006,0.0844,-0.4694,0.7854,-0.0629,0.1381,-0.089,0.2792,-1.1336,1.218,0.1595,0.1764,-0.2086,0.2347,-1.0293,1.2057,0.3083,0.1749,-0.2148,0.051,0.1945,-0.222,0.1255,0.2122,-0.2347,0.0152,-0.186,0.3078,-0.1028,0.1613,-0.2301,0.0704,-0.122,0.3134,0.0354,0.0105,0.1118,-0.0032,-0.0604,-0.0077,-0.0017,0.01,0.1481,0.037,-0.2866,-0.0481,0.6339,-0.8567,0.4572,-0.7215,0.3666,0.2318,0.667,-0.9285,0.4056,-0.6324,0.3498,0.5122,0.641,-0.8875,0.0,0.0,0.0,0.0,0.0,0.0,0.0,0.0,0.0,
2.16,run,0.47,3.26,0.19,0.03,-1.12,0.0,0.0,0.0,0.123,5.45,-24.26,42.8,-2.29,9.4,-7.03,15.82,-64.6,73.04,8.0,11.51,-13.54,14.24,-59.41,72.16,18.02,10.2,-10.81,5.5,-20.57,37.88,-0.27,10.89,-9.24,15.95,-64.1,82.94,6.76,12.53,-14.7,14.61,-59.97,79.0,18.14,10.41,-8.99,0.1571,0.0806,-0.3193,-0.0077,0.6525,-0.8734,0.4556,-0.711,0.3797,0.193,0.6824,-0.9377,0.4174,-0.6359,0.3704,0.5183,0.6438,-0.8705,0.013,0.013,0.013,0.0,0.0,0.019,0.0,0.0,0.026,0.006,0.006,0.006,0.0,0.019,0.006,0.0,0.0,0.006,0.0798,-0.4525,0.7655,-0.0598,0.1503,-0.1058,0.2792,-1.1321,1.2425,0.1503,0.1856,-0.2255,0.2408,-1.0354,1.2303,0.3099,0.1749,-0.2056,0.0184,0.1994,-0.2301,0.0994,0.1946,-0.2276,0.0106,-0.1244,0.3075,-0.1065,0.1474,-0.2244,0.0723,-0.1084,0.3114,0.0305,0.0074,0.1127,-0.0043,-0.061,-0.0078,-0.0037,0.0192,0.1525,0.0584,-0.3033,-0.0274,0.6439,-0.8654,0.4563,-0.7161,0.374,0.2115,0.6752,-0.9338,0.4118,-0.6333,0.3606,0.5152,0.6421,-0.8785,0.0,0.0,0.0,0.0,0.0,0.0,0.0,0.0,0.0,
2.2,run,0.45,3.23,-0.67,-0.5,0.13,0.0,0.0,0.0,0.123,5.54,-23.12,41.4,-1.05,10.11,-7.91,15.82,-64.16,74.44,7.29,12.04,-14.24,14.41,-59.41,73.56,18.02,10.2,-10.11,5.61,-19.2,36.38,0.52,11.38,-10.15,15.74,-63.76,84.44,6.1,12.89,-15.22,14.81,-60.03,80.5,18.29,10.36,-8.22,0.1603,0.1054,-0.341,0.0149,0.6614,-0.8841,0.4497,-0.7048,0.3866,0.1742,0.6889,-0.9437,0.4232,-0.6369,0.3799,0.5225,0.6428,-0.8614,0.013,0.013,0.013,0.0,0.0,0.019,0.0,0.0,0.026,0.006,0.006,0.006,0.0,0.019,0.006,0.0,0.0,0.006,0.092,-0.4341,0.744,-0.043,0.1641,-0.1258,0.2792,-1.1305,1.2671,0.1396,0.1948,-0.2378,0.2454,-1.04,1.2548,0.3145,0.1749,-0.1933,0.0589,0.2086,-0.2416,0.1328,0.188,-0.2341,0.0074,-0.0813,0.3073,-0.1148,0.1377,-0.2031,0.0678,-0.0931,0.31,0.0386,0.0052,0.1249,-0.0017,-0.0601,0.0033,0.0006,-0.0195,0.1571,0.0806,-0.3193,-0.0077,0.6525,-0.8734,0.4556,-0.711,0.3797,0.193,0.6824,-0.9377,0.4174,-0.6359,0.3704,0.5183,0.6438,-0.8705,0.0,0.0,0.0,0.0,0.0,0.0,0.0,0.0,0.0,
2.24,run,0.47,3.24,0.2,0.23,-0.42,0.0,0.0,0.0,0.123,5.62,-21.62,39.73,-0.79,10.81,-9.14,15.82,-63.98,76.29,6.5,12.57,-14.94,14.77,-59.5,75.5,18.11,10.2,-9.23,5.76,-17.82,34.88,1.36,11.9,-10.86,15.58,-63.14,85.94,5.28,13.28,-15.65,14.96,-59.83,82.0,18.36,10.33,-7.18,0.1645,0.1306,-0.3637,0.0389,0.6708,-0.8925,0.445,-0.6935,0.3916,0.151,0.6961,-0.9488,0.4275,-0.6333,0.3872,0.5247,0.6424,-0.8492,0.013,0.013,0.013,0.0,0.0,0.019,0.0,0.0,0.026,0.006,0.006,0.006,0.0,0.019,0.006,0.0,0.0,0.006,0.0936,-0.4142,0.7194,-0.0215,0.1764,-0.1411,0.2792,-1.1229,1.2916,0.1273,0.204,-0.25,0.2485,-1.04,1.2793,0.3145,0.1749,-0.181,0.047,0.2209,-0.2613,0.1736,0.1777,-0.2215,0.0052,-0.0281,0.3073,-0.1264,0.131,-0.1882,0.059,-0.0652,0.3092,0.027,0.0036,0.1335,-0.003,-0.0626,-0.0117,-0.0087,0.0023,0.1603,0.1054,-0.341,0.0149,0.6614,-0.8841,0.4497,-0.7048,0.3866,0.1742,0.6889,-0.9437,0.4232,-0.6369,0.3799,0.5225,0.6428,-0.8614,0.0,0.0,0.0,0.0,0.0,0.0,0.0,0.0,0.0,
2.28,run,0.48,3.28,1.05,0.75,-1.05,0.0,0.0,0.0,0.123,6.06,-20.39,38.32,-0.09,11.34,-10.02,15.82,-63.28,77.7,5.8,13.01,-15.47,14.85,-59.5,76.99,18.37,10.2,-8.44,5.89,-16.32,33.38,2.29,12.36,-11.65,15.43,-62.44,87.44,4.5,13.67,-16.05,15.16,-59.76,83.5,18.42,10.31,-6.17,0.1684,0.1611,-0.3889,0.0655,0.6794,-0.9018,0.4407,-0.6807,0.3957,0.1286,0.703,-0.9535,0.433,-0.6321,0.3962,0.5264,0.642,-0.8372,0.006,0.006,0.013,0.0,0.0,0.006,0.006,0.006,0.026,0.0,0.0,0.006,0.0,0.013,0.006,0.0,0.006,0.0,0.0951,-0.3881,0.6903,-0.0169,0.1887,-0.1626,0.2792,-1.1198,1.3238,0.1135,0.2132,-0.2623,0.2546,-1.0416,1.3131,0.316,0.1749,-0.1657,0.0373,0.2288,-0.2658,0.1346,0.1593,-0.2161,0.0036,-0.011,0.3067,-0.1278,0.1179,-0.1667,0.0588,-0.05,0.3124,0.0233,0.0025,0.1371,-0.001,-0.0623,0.0035,0.0041,-0.0074,0.1645,0.1306,-0.3637,0.0389,0.6708,-0.8925,0.445,-0.6935,0.3916,0.151,0.6961,-0.9488,0.4275,-0.6333,0.3872,0.5247,0.6424,-0.8492,0.0,0.0,0.0,0.0,0.0,0.0,0.0,0.0,0.0,
2.32,run,0.44,3.26,-0.63,-0.43,-0.23,0.0,0.0,0.0,0.123,5.36,-19.34,37.0,1.32,11.78,-10.63,15.82,-63.19,79.19,5.36,13.18,-15.73,14.85,-59.5,78.31,18.37,10.2,-7.82,6.02,-14.82,31.88,3.14,12.81,-12.26,15.15,-61.66,88.94,3.77,14.0,-16.35,15.26,-59.5,85.0,18.47,10.24,-5.1,0.1719,0.1895,-0.4142,0.0897,0.6874,-0.909,0.4328,-0.6665,0.3983,0.1078,0.709,-0.9571,0.4361,-0.6273,0.4016,0.5278,0.6408,-0.8247,0.006,0.006,0.013,0.0,0.0,0.006,0.006,0.006,0.026,0.0,0.0,0.006,0.0,0.013,0.006,0.0,0.006,0.0,0.1028,-0.3666,0.6657,-0.0046,0.1979,-0.1779,0.2792,-1.1075,1.3484,0.1012,0.2209,-0.2715,0.2562,-1.0416,1.3392,0.3206,0.1749,-0.1519,0.0546,0.24,-0.2773,0.1399,0.1457,-0.2083,0.0025,0.038,0.306,-0.1351,0.111,-0.1509,0.0468,-0.035,0.3157,0.0334,0.0018,0.1473,-0.0003,-0.0585,0.0184,0.0131,-0.0183,0.1684,0.1611,-0.3889,0.0655,0.6794,-0.9018,0.4407,-0.6807,0.3957,0.1286,0.703,-0.9535,0.433,-0.6321,0.3962,0.5264,0.642,-0.8372,0.0,0.0,0.0,0.0,0.0,0.0,0.0,0.0,0.0,
2.36,run,0.46,3.27,0.56,0.65,0.12,0.0,0.0,0.0,0.123,5.98,-18.19,35.77,1.32,12.13,-11.43,15.73,-62.58,80.6,4.57,13.54,-16.17,15.12,-59.5,79.72,18.37,10.2,-7.03,6.15,-13.44,30.38,3.79,13.16,-12.87,15.06,-61.01,90.44,3.12,14.3,-16.68,15.37,-59.31,86.5,18.49,10.19,-4.27,0.1758,0.2102,-0.4321,0.1081,0.6938,-0.9161,0.4302,-0.6547,0.4028,0.089,0.7145,-0.961,0.439,-0.6238,0.4052,0.5283,0.6398,-0.8149,0.006,0.006,0.013,0.0,0.0,0.006,0.006,0.006,0.026,0.0,0.0,0.006,0.0,0.013,0.006,0.0,0.006,0.0,0.0905,-0.3482,0.6427,0.0199,0.2056,-0.1887,0.2792,-1.106,1.3744,0.0936,0.224,-0.2761,0.2562,-1.0416,1.3622,0.3206,0.1749,-0.1411,-0.0074,0.2364,-0.2797,0.1891,0.1305,-0.1857,0.0018,0.0323,0.3111,-0.1231,0.0891,-0.1227,0.0328,-0.0245,0.3065,0.0234,0.0012,0.143,-0.0038,-0.0605,-0.011,-0.0075,-0.004,0.1719,0.1895,-0.4142,0.0897,0.6874,-0.909,0.4328,-0.6665,0.3983,0.1078,0.709,-0.9571,0.4361,-0.6273,0.4016,0.5278,0.6408,-0.8247,0.0,0.0,0.0,0.0,0.0,0.0,0.0,0.0,0.0,
2.4,run,0.46,3.31,0.5,0.43,-0.02,0.0,0.0,0.0,0.123,6.33,-16.79,34.37,2.02,12.66,-12.13,15.29,-61.79,82.0,3.87,13.97,-16.52,15.29,-59.15,81.12,18.37,10.2,-6.15,6.26,-11.99,28.88,4.52,13.47,-13.1,14.81,-60.08,91.94,2.6,14.53,-16.9,15.41,-58.96,88.0,18.49,10.08,-3.16,0.179,0.2366,-0.455,0.1293,0.6994,-0.9188,0.4233,-0.6378,0.4033,0.0742,0.7187,-0.9635,0.4404,-0.6175,0.4107,0.5283,0.6378,-0.8019,0.0,0.006,0.013,0.006,0.006,0.0,0.006,0.0,0.026,0.0,0.006,0.006,0.0,0.0,0.0,0.0,0.0,0.013,0.1012,-0.3283,0.6213,0.0199,0.2117,-0.2025,0.2777,-1.0953,1.399,0.0798,0.2301,-0.2838,0.2608,-1.0416,1.3867,0.3206,0.1749,-0.1273,0.0351,0.2404,-0.2764,0.1324,0.1144,-0.1818,-0.0045,0.0629,0.3099,-0.138,0.0854,-0.1147,0.0402,-0.0171,0.3067,0.0164,0.0009,0.152,-0.002,-0.0593,0.0097,0.0113,0.002,0.1758,0.2102,-0.4321,0.1081,0.6938,-0.9161,0.4302,-0.6547,0.4028,0.089,0.7145,-0.961,0.439,-0.6238,0.4052,0.5283,0.6398,-0.8149,0.0,0.0,0.0,0.0,0.0,0.0,0.0,0.0,0.0,
2.44,run,0.41,3.24,-0.69,-0.55,-1.75,0.0,0.0,0.0,0.123,5.8,-15.56,32.96,3.34,13.01,-12.74,15.03,-60.91,83.41,3.08,14.24,-16.79,15.21,-59.06,82.62,18.37,10.2,-5.19,6.37,-10.49,27.38,5.32,13.84,-13.44,14.49,-59.15,93.44,2.0,14.72,-17.15,15.47,-58.68,89.5,18.49,9.9,-2.01,0.1821,0.2642,-0.4798,0.1519,0.7062,-0.9228,0.414,-0.621,0.4056,0.0571,0.7222,-0.9664,0.442,-0.6123,0.4153,0.5283,0.6345,-0.7883,0.0,0.006,0.013,0.006,0.006,0.0,0.006,0.0,0.026,0.0,0.006,0.006,0.0,0.0,0.0,0.0,0.0,0.013,0.1074,-0.3037,0.5967,0.0322,0.2209,-0.2148,0.27,-1.0815,1.4235,0.0675,0.2378,-0.2899,0.2638,-1.0354,1.4113,0.3206,0.1749,-0.112,0.0477,0.2606,-0.2858,0.1389,0.1147,-0.1735,-0.032,0.096,0.3093,-0.1428,0.0887,-0.1034,0.0397,0.0111,0.3071,0.0115,0.0006,0.1641,-0.0027,-0.0557,0.0088,0.0075,-0.0004,0.179,0.2366,-0.455,0.1293,0.6994,-0.9188,0.4233,-0.6378,0.4033,0.0742,0.7187,-0.9635,0.4404,-0.6175,0.4107,0.5283,0.6378,-0.8019,0.0,0.0,0.0,0.0,0.0,0.0,0.0,0.0,0.0,
2.48,run,0.42,3.26,-0.11,0.04,1.56,0.0,0.0,0.0,0.123,6.33,-14.33,31.55,3.52,13.36,-13.1,15.03,-60.29,84.81,2.64,14.5,-16.88,15.29,-58.89,84.11,18.37,10.2,-4.22,6.52,-9.05,25.88,6.01,14.16,-13.72,14.23,-58.37,94.94,1.41,14.93,-17.32,15.52,-58.58,91.0,18.46,9.76,-0.99,0.1864,0.29,-0.5003,0.1718,0.7121,-0.9262,0.4065,-0.6067,0.4093,0.0401,0.7259,-0.9685,0.4435,-0.6105,0.4159,0.5275,0.632,-0.7763,0.0,0.006,0.013,0.006,0.006,0.0,0.006,0.0,0.026,0.0,0.006,0.006,0.0,0.0,0.0,0.0,0.0,0.013,0.0982,-0.2823,0.5722,0.0552,0.227,-0.2255,0.2654,-1.0661,1.4481,0.0537,0.2424,-0.2945,0.2623,-1.0339,1.4373,0.3206,0.1749,-0.0951,0.0001,0.26,-0.2888,0.1803,0.1025,-0.1602,-0.039,0.1226,0.3052,-0.1498,0.0787,-0.089,0.0223,0.0133,0.3091,0.008,0.0004,0.1758,-0.0069,-0.0617,-0.0121,-0.0095,-0.0305,0.1821,0.2642,-0.4798,0.1519,0.7062,-0.9228,0.414,-0.621,0.4056,0.0571,0.7222,-0.9664,0.442,-0.6123,0.4153,0.5283,0.6345,-0.7883,0.0,0.0,0.0,0.0,0.0,0.0,0.0,0.0,0.0,
2.52,run,0.42,3.25,0.03,-0.34,-2.32,0.0,0.0,0.0,0.123,6.5,-12.83,30.15,4.57,13.71,-13.54,14.59,-59.5,86.22,2.02,14.68,-17.23,15.38,-58.54,85.52,18.37,10.11,-3.25,6.6,-7.72,24.38,6.73,14.37,-13.66,13.96,-57.04,96.44,0.95,15.09,-17.35,15.49,-57.85,92.5,18.34,9.39,0.22,0.1886,0.3141,-0.5254,0.1922,0.7158,-0.9255,0.399,-0.5826,0.4067,0.0271,0.729,-0.9689,0.4425,-0.5972,0.4212,0.5239,0.6252,-0.7621,0.0,0.0,0.013,0.013,0.0,0.006,0.006,0.0,0.026,0.006,0.0,0.0,0.0,0.006,0.0,0.0,0.006,0.013,0.1074,-0.2608,0.5476,0.0583,0.2332,-0.2316,0.2654,-1.0554,1.4726,0.046,0.247,-0.2961,0.2638,-1.0308,1.4634,0.3206,0.1749,-0.0782,0.0342,0.2617,-0.2932,0.1376,0.0945,-0.1349,-0.0273,0.1257,0.3047,-0.1333,0.0722,-0.068,0.0213,0.0207,0.3131,0.0056,0.0003,0.1857,-0.0061,-0.0604,-0.002,0.0007,0.0272,0.1864,0.29,-0.5003,0.1718,0.7121,-0.9262,0.4065,-0.6067,0.4093,0.0401,0.7259,-0.9685,0.4435,-0.6105,0.4159,0.5275,0.632,-0.7763,0.0,0.0,0.0,0.0,0.0,0.0,0.0,0.0,0.0,
2.56,run,0.43,3.24,-0.08,0.17,2.45,0.0,0.0,0.0,0.123,6.33,-11.25,28.48,5.36,14.15,-13.45,14.24,-58.36,87.89,1.23,15.03,-17.14,15.38,-58.18,87.19,18.37,9.84,-2.02,6.68,-6.39,22.88,7.36,14.58,-14.08,13.62,-56.37,97.94,0.55,15.12,-17.57,15.55,-57.89,94.0,18.34,9.18,0.96,0.1909,0.3384,-0.5455,0.2101,0.7197,-0.9303,0.3891,-0.5703,0.4081,0.0156,0.7295,-0.9714,0.4443,-0.598,0.4208,0.524,0.6214,-0.7534,0.0,0.0,0.013,0.013,0.0,0.006,0.006,0.0,0.026,0.006,0.0,0.0,0.0,0.006,0.0,0.0,0.006,0.013,0.1104,-0.2347,0.5231,0.0767,0.2393,-0.2393,0.2577,-1.0416,1.4972,0.0353,0.25,-0.3022,0.2654,-1.0247,1.488,0.3206,0.1733,-0.0614,0.0355,0.2808,-0.2971,0.1653,0.0891,-0.1232,-0.0479,0.1397,0.3052,-0.1335,0.062,-0.0706,0.0206,0.0375,0.3111,0.0039,-0.0055,0.1932,-0.0055,-0.0614,0.0005,-0.0059,-0.0405,0.1886,0.3141,-0.5254,0.1922,0.7158,-0.9255,0.399,-0.5826,0.4067,0.0271,0.729,-0.9689,0.4425,-0.5972,0.4212,0.5239,0.6252,-0.7621,0.0,0.0,0.0,0.0,0.0,0.0,0.0,0.0,0.0,
2.6,run,0.42,3.23,-0.44,-0.52,-1.42,0.0,0.0,0.0,0.123,6.59,-9.93,27.07,6.06,14.15,-13.71,14.06,-57.57,89.38,1.14,15.03,-17.31,15.38,-57.92,88.59,18.37,9.76,-1.05,6.75,-5.03,21.38,8.1,14.76,-13.85,13.26,-54.87,99.32,0.05,15.2,-17.42,15.48,-57.14,95.5,18.12,8.72,2.22,0.193,0.363,-0.5723,0.2315,0.7229,-0.9277,0.3788,-0.5428,0.4038,0.0015,0.731,-0.9697,0.4422,-0.5844,0.4223,0.5178,0.6132,-0.7386,0.0,0.0,0.013,0.013,0.0,0.006,0.006,0.0,0.026,0.006,0.0,0.0,0.0,0.006,0.0,0.0,0.006,0.013,0.1074,-0.2071,0.4939,0.0905,0.247,-0.2378,0.2516,-1.0216,1.5263,0.0215,0.2562,-0.3007,0.2654,-1.0186,1.5171,0.3206,0.1687,-0.0399,0.0151,0.2838,-0.3001,0.1593,0.0866,-0.0814,-0.0529,0.1608,0.3057,-0.1371,0.0628,-0.0446,0.0144,0.0456,0.3098,0.0028,-0.0184,0.2031,-0.005,-0.062,-0.0013,0.003,0.0427,0.1909,0.3384,-0.5455,0.2101,0.7197,-0.9303,0.3891,-0.5703,0.4081,0.0156,0.7295,-0.9714,0.4443,-0.598,0.4208,0.524,0.6214,-0.7534,0.0,0.0,0.0,0.0,0.0,0.0,0.0,0.0,0.0,
2.64,run,0.42,3.22,0.21,0.1,0.48,0.0,0.0,0.0,0.123,6.94,-8.61,25.66,6.77,14.5,-13.89,13.71,-56.6,90.79,0.35,15.03,-17.49,15.38,-57.74,90.0,18.37,9.49,-0.09,6.79,-3.94,19.88,8.61,14.75,-14.07,12.98,-54.15,99.33,-0.21,15.09,-17.4,15.51,-57.13,97.0,18.05,8.35,2.76,0.194,0.383,-0.5886,0.2459,0.7228,-0.9303,0.3709,-0.53,0.4039,-0.006,0.7288,-0.9694,0.443,-0.5843,0.421,0.5157,0.6064,-0.7322,0.006,0.006,0.013,0.013,0.0,0.006,0.006,0.013,0.026,0.013,0.0,0.0,0.0,0.0,0.013,0.006,0.013,0.013,0.112,-0.1841,0.4694,0.1028,0.247,-0.2424,0.2485,-1.0078,1.5524,0.0199,0.2562,-0.3037,0.2654,-1.014,1.5417,0.3206,0.1672,-0.023,0.0277,0.2841,-0.3012,0.1571,0.0606,-0.0741,-0.0484,0.1638,0.3108,-0.1017,0.0439,-0.0426,0.0101,0.049,0.308,0.0019,-0.0186,0.2048,-0.0061,-0.0634,-0.0077,-0.0091,-0.0247,0.193,0.363,-0.5723,0.2315,0.7229,-0.9277,0.3788,-0.5428,0.4038,0.0015,0.731,-0.9697,0.4422,-0.5844,0.4223,0.5178,0.6132,-0.7386,0.0,0.0,0.0,0.0,0.0,0.0,0.0,0.0,0.0,
2.68,run,0.42,3.24,-0.23,0.26,1.7,0.0,0.0,0.0,0.123,6.68,-7.29,24.26,7.47,14.68,-13.89,13.36,-55.63,92.11,-0.09,15.03,-17.31,15.38,-57.3,91.41,17.84,9.14,0.97,6.81,-2.87,18.38,9.13,14.84,-13.97,12.65,-53.06,99.04,-0.46,15.02,-17.23,15.45,-56.72,98.5,17.89,7.95,3.61,0.1947,0.4023,-0.6079,0.2608,0.7244,-0.929,0.3614,-0.5102,0.4005,-0.0131,0.7277,-0.9675,0.4414,-0.5768,0.4205,0.5111,0.599,-0.7222,0.006,0.006,0.013,0.013,0.0,0.006,0.006,0.013,0.026,0.013,0.0,0.0,0.0,0.0,0.013,0.006,0.013,0.013,0.1181,-0.1611,0.4449,0.115,0.2531,-0.2454,0.2424,-0.991,1.5769,0.0061,0.2562,-0.3068,0.2654,-1.0109,1.5662,0.3206,0.1626,-0.0061,0.0422,0.2846,-0.3023,0.1557,0.0653,-0.0633,-0.0568,0.1775,0.309,-0.1226,0.0308,-0.0412,0.0071,0.0457,0.3071,0.0013,-0.0302,0.2062,-0.0059,-0.0635,0.0037,0.0017,0.0083,0.194,0.383,-0.5886,0.2459,0.7228,-0.9303,0.3709,-0.53,0.4039,-0.006,0.7288,-0.9694,0.443,-0.5843,0.421,0.5157,0.6064,-0.7322,0.0,0.0,0.0,0.0,0.0,0.0,0.0,0.0,0.0,
2.72,run,0.42,3.24,-0.02,-0.16,-1.78,0.0,0.0,0.0,0.123,6.68,-5.98,22.85,8.0,14.68,-13.8,13.1,-54.67,93.52,-0.09,15.03,-17.31,15.38,-57.22,92.9,17.84,8.79,1.85,6.83,-2.02,16.88,9.56,14.79,-13.82,12.38,-52.08,98.8,-0.65,14.79,-16.93,15.41,-56.46,100.0,17.69,7.48,4.14,0.195,0.4178,-0.6241,0.2731,0.7235,-0.9273,0.3537,-0.4924,0.3976,-0.0186,0.7235,-0.9639,0.4403,-0.572,0.4192,0.5056,0.5906,-0.716,0.006,0.006,0.013,0.013,0.0,0.006,0.006,0.013,0.026,0.013,0.0,0.0,0.0,0.0,0.013,0.006,0.013,0.013,0.1135,-0.1381,0.4203,0.1273,0.2562,-0.2454,0.2362,-0.9741,1.5999,-0.0015,0.2562,-0.3037,0.2654,-1.0032,1.5907,0.3114,0.1565,0.0123,0.0122,0.286,-0.3041,0.1552,0.0573,-0.0443,-0.0629,0.1879,0.3031,-0.1147,0.0215,-0.0173,0.005,0.0609,0.3075,-0.0337,-0.0442,0.2137,-0.0059,-0.0624,-0.004,0.0045,0.0296,0.1947,0.4023,-0.6079,0.2608,0.7244,-0.929,0.3614,-0.5102,0.4005,-0.0131,0.7277,-0.9675,0.4414,-0.5768,0.4205,0.5111,0.599,-0.7222,0.0,0.0,0.0,0.0,0.0,0.0,0.0,0.0,0.0,
2.76,run,0.45,3.26,0.46,0.36,0.48,0.0,0.0,0.0,0.123,7.21,-4.75,21.45,8.61,14.68,-13.8,12.74,-53.7,94.92,-0.7,15.12,-17.23,15.38,-56.69,94.31,17.84,8.44,2.72,6.78,-1.28,15.38,9.91,14.61,-14.02,12.11,-51.56,98.49,-0.78,14.5,-16.71,15.43,-56.58,100.34,17.53,6.99,4.35,0.1937,0.4313,-0.6365,0.2831,0.7202,-0.9297,0.3459,-0.4829,0.3941,-0.0223,0.7183,-0.9613,0.4408,-0.5742,0.4157,0.5009,0.5817,-0.7136,0.006,0.006,0.013,0.006,0.0,0.013,0.006,0.006,0.019,0.0,0.013,0.006,0.0,0.006,0.013,0.006,0.019,0.006,0.1135,-0.115,0.3958,0.1365,0.2562,-0.2439,0.2316,-0.9572,1.6245,-0.0015,0.2562,-0.3037,0.2654,-1.0017,1.6168,0.3114,0.1503,0.0276,0.0086,0.2864,-0.3049,0.1432,0.0401,-0.0253,-0.0612,0.1948,0.3042,-0.0803,0.0151,-0.0121,0.0035,0.0484,0.313,-0.0236,-0.054,0.2071,-0.0055,-0.0619,-0.0004,-0.0027,-0.031,0.195,0.4178,-0.6241,0.2731,0.7235,-0.9273,0.3537,-0.4924,0.3976,-0.0186,0.7235,-0.9639,0.4403,-0.572,0.4192,0.5056,0.5906,-0.716,0.0,0.0,0.0,0.0,0.0,0.0,0.0,0.0,0.0,
2.8,run,0.44,3.26,-0.77,-0.19,0.79,0.0,0.0,0.0,0.123,6.5,-3.6,20.04,9.14,14.68,-13.89,12.48,-52.65,96.15,-0.7,15.12,-16.88,15.38,-56.51,95.71,17.49,8.0,3.43,6.71,-0.64,13.88,10.29,14.45,-13.68,11.8,-50.6,98.09,-0.88,14.23,-16.37,15.39,-56.18,100.18,17.31,6.42,4.83,0.1916,0.4429,-0.6517,0.294,0.7174,-0.9257,0.3373,-0.4655,0.3893,-0.0251,0.7132,-0.9573,0.4397,-0.5669,0.4138,0.4946,0.5713,-0.7079,0.006,0.006,0.013,0.006,0.0,0.013,0.006,0.006,0.019,0.0,0.013,0.006,0.0,0.006,0.013,0.006,0.019,0.006,0.1227,-0.0936,0.3712,0.1473,0.2562,-0.2439,0.2255,-0.9403,1.649,-0.0123,0.2577,-0.3022,0.2654,-0.9925,1.6414,0.3114,0.1442,0.043,0.0405,0.2811,-0.3055,0.1405,0.0281,-0.0177,-0.0659,0.1997,0.305,-0.0965,0.0163,-0.0027,0.0024,0.0684,0.3112,-0.0165,-0.0608,0.2026,-0.0028,-0.0607,0.008,0.0062,0.0083,0.1937,0.4313,-0.6365,0.2831,0.7202,-0.9297,0.3459,-0.4829,0.3941,-0.0223,0.7183,-0.9613,0.4408,-0.5742,0.4157,0.5009,0.5817,-0.7136,0.0,0.0,0.0,0.0,0.0,0.0,0.0,0.0,0.0,
2.84,run,0.46,3.29,0.68,0.57,0.38,0.0,0.0,0.0,0.123,6.68,-2.55,18.54,9.49,14.68,-13.89,12.13,-51.94,97.12,-0.79,14.77,-16.61,15.38,-56.6,97.12,17.31,7.56,3.96,6.68,-0.04,12.38,10.59,14.27,-13.65,11.6,-49.92,97.82,-1.02,13.89,-15.92,15.35,-56.21,99.84,17.03,5.86,5.03,0.1909,0.4538,-0.6626,0.3026,0.714,-0.9252,0.3315,-0.4532,0.3861,-0.029,0.7071,-0.952,0.4387,-0.5674,0.4099,0.4866,0.5611,-0.7056,0.006,0.006,0.013,0.006,0.0,0.013,0.006,0.006,0.019,0.0,0.013,0.006,0.0,0.006,0.013,0.006,0.019,0.006,0.1104,-0.0736,0.3467,0.1565,0.2562,-0.2454,0.2209,-0.9219,1.6705,-0.0123,0.2577,-0.2961,0.2654,-0.9894,1.6659,0.3053,0.1365,0.0552,-0.0177,0.2716,-0.3059,0.1329,0.0196,-0.0181,-0.0634,0.2088,0.2941,-0.0676,0.0114,0.0211,0.0017,0.0594,0.3099,-0.0346,-0.0713,0.1878,-0.0037,-0.0605,-0.0134,-0.0034,0.0138,0.1916,0.4429,-0.6517,0.294,0.7174,-0.9257,0.3373,-0.4655,0.3893,-0.0251,0.7132,-0.9573,0.4397,-0.5669,0.4138,0.4946,0.5713,-0.7079,0.0,0.0,0.0,0.0,0.0,0.0,0.0,0.0,0.0,
2.88,run,0.45,3.3,-0.02,-0.06,-0.83,0.0,0.0,0.0,0.123,7.03,-1.58,17.23,9.93,14.68,-13.62,11.87,-51.06,97.82,-1.05,14.5,-16.26,15.38,-56.34,98.35,17.23,7.03,4.48,6.56,0.39,10.88,10.8,13.97,-13.7,11.39,-49.32,97.23,-0.99,13.46,-15.53,15.34,-56.15,99.51,16.82,5.26,5.05,0.1876,0.4616,-0.6718,0.3087,0.7085,-0.9259,0.3255,-0.4421,0.3792,-0.0284,0.6993,-0.9474,0.4383,-0.5663,0.406,0.4807,0.5502,-0.7053,0.0,0.0,0.013,0.006,0.019,0.0,0.006,0.0,0.006,0.0,0.013,0.0,0.0,0.0,0.006,0.006,0.019,0.0,0.1135,-0.0552,0.3206,0.1626,0.2562,-0.2454,0.2148,-0.9097,1.6874,-0.0138,0.2516,-0.2915,0.2654,-0.991,1.6904,0.3022,0.1289,0.0644,-0.0009,0.259,-0.3118,0.116,0.0138,-0.0127,-0.0674,0.1921,0.269,-0.053,-0.015,0.032,0.0012,0.0358,0.3089,-0.0357,-0.0787,0.1659,-0.0025,-0.0574,0.0119,0.0099,0.0067,0.1909,0.4538,-0.6626,0.3026,0.714,-0.9252,0.3315,-0.4532,0.3861,-0.029,0.7071,-0.952,0.4387,-0.5674,0.4099,0.4866,0.5611,-0.7056,0.0,0.0,0.0,0.0,0.0,0.0,0.0,0.0,0.0,
2.92,run,0.42,3.26,-0.76,-0.45,0.88,0.0,0.0,0.0,0.123,6.15,-0.79,15.82,10.28,14.68,-13.62,11.6,-50.27,98.09,-0.97,14.15,-15.82,15.38,-56.25,99.23,16.79,6.5,4.75,6.42,0.81,9.38,11.03,13.59,-13.7,11.19,-48.77,96.7,-1.01,13.09,-15.18,15.39,-56.06,99.17,16.65,4.63,5.24,0.1835,0.4693,-0.6804,0.3152,0.7016,-0.9259,0.3196,-0.4321,0.373,-0.0289,0.6925,-0.9433,0.4397,-0.5647,0.402,0.4756,0.5387,-0.7031,0.0,0.0,0.013,0.006,0.019,0.0,0.006,0.0,0.006,0.0,0.013,0.0,0.0,0.0,0.006,0.006,0.019,0.0,0.1197,-0.0383,0.2976,0.1703,0.2562,-0.2408,0.2102,-0.8943,1.6997,-0.0184,0.247,-0.2853,0.2654,-0.9863,1.7119,0.3007,0.1197,0.0736,0.0224,0.2447,-0.3047,0.11,0.0096,0.0084,-0.0644,0.1921,0.2344,-0.0544,-0.0278,0.0455,0.0008,0.0424,0.2968,-0.0308,-0.0896,0.1507,-0.0029,-0.0571,-0.0004,-0.001,-0.0145,0.1876,0.4616,-0.6718,0.3087,0.7085,-0.9259,0.3255,-0.4421,0.3792,-0.0284,0.6993,-0.9474,0.4383,-0.5663,0.406,0.4807,0.5502,-0.7053,0.0,0.0,0.0,0.0,0.0,0.0,0.0,0.0,0.0,
2.96,run,0.47,3.31,1.27,0.81,-1.01,0.0,0.0,0.0,0.123,6.5,-0.09,14.41,10.55,14.5,-13.62,11.43,-49.57,98.09,-0.97,13.8,-15.47,15.38,-56.16,99.76,16.7,5.98,4.92,6.38,1.08,7.88,11.2,13.34,-13.6,11.09,-48.13,96.23,-1.07,12.78,-14.69,15.36,-56.02,98.76,16.35,4.04,5.37,0.1822,0.4741,-0.6872,0.32,0.697,-0.9247,0.3168,-0.4206,0.3674,-0.0306,0.6868,-0.9376,0.4389,-0.564,0.3972,0.4671,0.528,-0.7015,0.0,0.0,0.013,0.006,0.019,0.0,0.006,0.0,0.006,0.0,0.013,0.0,0.0,0.0,0.006,0.006,0.019,0.0,0.1043,-0.0245,0.273,0.1764,0.2562,-0.2408,0.2056,-0.8805,1.7043,-0.0169,0.2408,-0.2777,0.2654,-0.9848,1.7273,0.293,0.1104,0.0782,-0.0418,0.223,-0.3053,0.1,0.0067,0.0059,-0.0623,0.1862,0.1813,-0.0323,-0.0424,0.0606,0.0006,0.0354,0.2653,-0.0503,-0.0972,0.1228,-0.0054,-0.0607,-0.0133,-0.0079,0.0154,0.1835,0.4693,-0.6804,0.3152,0.7016,-0.9259,0.3196,-0.4321,0.373,-0.0289,0.6925,-0.9433,0.4397,-0.5647,0.402,0.4756,0.5387,-0.7031,0.0,0.0,0.0,0.0,0.0,0.0,0.0,0.0,0.0,
3.0,run,0.44,3.27,-0.42,-0.39,-0.95,0.0,0.0,0.0,0.123,6.5,0.53,12.92,10.72,14.06,-13.62,11.25,-48.87,98.0,-0.97,13.45,-14.94,15.38,-56.16,100.11,16.35,5.36,5.1,6.2,1.16,6.38,11.21,12.92,-13.6,10.9,-47.79,95.44,-0.96,12.35,-14.37,15.38,-55.94,98.25,16.21,3.54,5.13,0.1772,0.4757,-0.691,0.3204,0.6895,-0.9247,0.3113,-0.4143,0.3581,-0.0275,0.6791,-0.9338,0.4395,-0.5625,0.3911,0.4633,0.5188,-0.7044,0.006,0.0,0.013,0.013,0.013,0.0,0.006,0.006,0.006,0.0,0.013,0.006,0.0,0.013,0.006,0.006,0.019,0.0,0.1104,-0.0123,0.2485,0.181,0.2531,-0.2408,0.2025,-0.8682,1.7043,-0.0169,0.2347,-0.2715,0.2654,-0.9833,1.7365,0.2915,0.1012,0.0813,-0.0062,0.2021,-0.3057,0.0873,-0.0068,0.0041,-0.0552,0.1764,0.1269,-0.0226,-0.0527,0.0654,0.0004,0.0305,0.2202,-0.0409,-0.1026,0.0974,-0.0012,-0.0561,0.0221,0.0142,-0.0175,0.1822,0.4741,-0.6872,0.32,0.697,-0.9247,0.3168,-0.4206,0.3674,-0.0306,0.6868,-0.9376,0.4389,-0.564,0.3972,0.4671,0.528,-0.7015,0.0,0.0,0.0,0.0,0.0,0.0,0.0,0.0,0.0,
3.04,run,0.43,3.26,-0.14,0.07,2.37,0.0,0.0,0.0,0.123,5.89,0.88,11.51,10.9,13.71,-13.62,11.16,-48.25,97.21,-0.97,13.01,-14.59,15.38,-56.07,99.84,16.17,4.66,5.1,6.11,1.38,5.93,11.33,12.61,-13.63,10.83,-47.29,95.13,-0.97,12.1,-14.06,15.39,-55.78,97.88,16.05,3.01,5.56,0.1746,0.4797,-0.6949,0.3236,0.6838,-0.9251,0.3095,-0.4052,0.3545,-0.0278,0.6746,-0.9301,0.4397,-0.5597,0.3868,0.4584,0.5093,-0.6993,0.006,0.0,0.013,0.013,0.013,0.0,0.006,0.006,0.006,0.0,0.013,0.006,0.0,0.013,0.006,0.006,0.019,0.0,0.1104,-0.0015,0.2224,0.1841,0.2454,-0.2408,0.1994,-0.856,1.7027,-0.0169,0.2286,-0.2623,0.2654,-0.9833,1.7426,0.2853,0.0905,0.0844,-0.0044,0.1817,-0.3117,0.0726,-0.0335,0.0029,-0.0501,0.1695,0.0831,-0.0158,-0.0599,0.0803,0.0003,0.0214,0.1771,-0.0517,-0.112,0.0797,-0.0039,-0.0591,-0.0073,-0.0069,-0.0166,0.1772,0.4757,-0.691,0.3204,0.6895,-0.9247,0.3113,-0.4143,0.3581,-0.0275,0.6791,-0.9338,0.4395,-0.5625,0.3911,0.4633,0.5188,-0.7044,0.0,0.0,0.0,0.0,0.0,0.0,0.0,0.0,0.0,
3.08,run,0.45,3.24,0.12,-0.36,-2.58,0.0,0.0,0.0,0.123,6.42,1.14,10.02,10.99,13.36,-13.62,10.99,-47.81,96.86,-0.97,12.66,-14.33,15.38,-55.9,99.14,16.17,4.22,5.19,6.06,1.32,5.64,11.32,12.43,-13.44,10.78,-46.71,94.49,-0.94,11.99,-13.73,15.38,-55.5,97.39,15.85,2.67,5.66,0.173,0.4785,-0.6983,0.3234,0.6805,-0.9229,0.3081,-0.3947,0.347,-0.0268,0.6725,-0.9262,0.4395,-0.5546,0.3811,0.4528,0.5032,-0.6981,0.006,0.0,0.013,0.013,0.013,0.0,0.006,0.006,0.006,0.0,0.013,0.006,0.0,0.013,0.006,0.006,0.019,0.0,0.0997,0.0046,0.1979,0.1871,0.2393,-0.2408,0.1979,-0.8452,1.6889,-0.0169,0.2209,-0.2562,0.2654,-0.9817,1.738,0.2823,0.0782,0.0844,-0.0433,0.1502,-0.3103,0.0623,-0.0465,0.002,-0.0408,0.1589,0.0064,-0.0111,-0.0707,0.0792,0.0002,0.0207,0.1067,-0.0477,-0.1245,0.0558,-0.005,-0.06,-0.0025,0.0013,0.0413,0.1746,0.4797,-0.6949,0.3236,0.6838,-0.9251,0.3095,-0.4052,0.3545,-0.0278,0.6746,-0.9301,0.4397,-0.5597,0.3868,0.4584,0.5093,-0.6993,0.0,0.0,0.0,0.0,0.0,0.0,0.0,0.0,0.0,
3.12,run,0.48,3.23,0.44,0.32,-0.02,0.0,0.0,0.0,0.123,6.15,1.23,8.7,10.99,13.01,-13.62,10.9,-47.2,95.98,-0.97,12.39,-13.89,15.38,-55.72,98.35,15.91,3.69,5.19,5.9,1.33,5.68,11.27,12.04,-13.59,10.71,-46.76,93.88,-0.9,11.8,-13.78,15.47,-55.46,96.89,15.9,2.42,5.58,0.1685,0.4787,-0.6979,0.3219,0.6735,-0.9246,0.3061,-0.3956,0.3397,-0.0256,0.6691,-0.9269,0.4421,-0.5538,0.3752,0.4543,0.4986,-0.6991,0.006,0.0,0.006,0.006,0.013,0.0,0.006,0.006,0.006,0.0,0.006,0.0,0.0,0.006,0.006,0.006,0.019,0.006,0.1089,0.0092,0.1718,0.1887,0.2332,-0.2408,0.1948,-0.8376,1.6828,-0.0169,0.2148,-0.2516,0.2654,-0.9787,1.7257,0.2823,0.0706,0.0859,0.0042,0.1224,-0.315,0.0494,-0.0555,0.0014,-0.0401,0.14,-0.0185,-0.0078,-0.0725,0.0727,0.0001,0.026,0.0287,-0.0334,-0.1159,0.0448,-0.0033,-0.0624,0.002,-0.0063,-0.045,0.173,0.4785,-0.6983,0.3234,0.6805,-0.9229,0.3081,-0.3947,0.347,-0.0268,0.6725,-0.9262,0.4395,-0.5546,0.3811,0.4528,0.5032,-0.6981,0.0,0.0,0.0,0.0,0.0,0.0,0.0,0.0,0.0,
3.16,run,0.45,3.22,-0.29,-0.1,1.41,0.0,0.0,0.0,0.123,5.45,1.23,7.56,10.99,12.74,-13.62,10.9,-46.85,95.19,-0.97,12.3,-13.8,15.38,-55.63,97.56,15.73,3.25,5.19,5.86,1.09,5.62,11.2,11.81,-13.19,10.68,-46.34,93.25,-0.84,11.67,-13.5,15.43,-55.15,96.43,15.73,2.15,5.61,0.1674,0.4744,-0.6985,0.3199,0.6693,-0.9199,0.305,-0.388,0.3324,-0.0239,0.6667,-0.9236,0.441,-0.5481,0.3698,0.4494,0.4936,-0.6987,0.006,0.0,0.006,0.006,0.013,0.0,0.006,0.006,0.006,0.0,0.006,0.0,0.0,0.006,0.006,0.006,0.019,0.006,0.1043,0.0107,0.1488,0.1887,0.227,-0.2408,0.1933,-0.8268,1.6674,-0.0169,0.2102,-0.2439,0.2654,-0.9756,1.7119,0.2777,0.0614,0.0859,-0.0143,0.0915,-0.3069,0.0346,-0.0619,0.001,-0.0338,0.1383,-0.0705,-0.0054,-0.068,0.0797,0.0001,0.0297,-0.0317,-0.0406,-0.1157,0.0314,-0.0004,-0.0626,0.0077,0.0055,-0.0004,0.1685,0.4787,-0.6979,0.3219,0.6735,-0.9246,0.3061,-0.3956,0.3397,-0.0256,0.6691,-0.9269,0.4421,-0.5538,0.3752,0.4543,0.4986,-0.6991,0.0,0.0,0.0,0.0,0.0,0.0,0.0,0.0,0.0,
3.2,run,0.47,3.23,0.15,-0.11,-1.49,0.0,0.0,0.0,0.123,6.15,1.23,6.77,10.99,12.48,-13.62,10.9,-46.76,94.57,-0.97,12.22,-13.8,15.38,-55.55,97.03,15.73,2.99,5.27,5.83,1.0,5.62,11.16,11.74,-13.06,10.69,-46.15,92.84,-0.86,11.68,-13.35,15.42,-55.0,95.95,15.62,2.03,5.72,0.1664,0.4728,-0.6986,0.319,0.668,-0.9184,0.3053,-0.3845,0.3275,-0.0245,0.6669,-0.9218,0.4406,-0.5454,0.3642,0.4462,0.4915,-0.6975,0.006,0.0,0.006,0.006,0.013,0.0,0.006,0.006,0.006,0.0,0.006,0.0,0.0,0.006,0.006,0.006,0.019,0.006,0.092,0.0107,0.1289,0.1887,0.2224,-0.2408,0.1933,-0.8207,1.6536,-0.0169,0.2086,-0.2424,0.2654,-0.9741,1.6981,0.2746,0.0537,0.0859,-0.056,0.064,-0.2895,0.0242,-0.0606,0.0007,-0.0237,0.1198,-0.1011,-0.0038,-0.0534,0.0615,0.0001,0.0266,-0.0739,-0.0399,-0.1097,0.022,-0.0031,-0.0639,-0.0051,-0.0018,0.0247,0.1674,0.4744,-0.6985,0.3199,0.6693,-0.9199,0.305,-0.388,0.3324,-0.0239,0.6667,-0.9236,0.441,-0.5481,0.3698,0.4494,0.4936,-0.6987,0.0,0.0,0.0,0.0,0.0,0.0,0.0,0.0,0.0,
3.24,run,0.48,3.21,-0.28,-0.31,-0.18,0.0,0.0,0.0,0.123,5.71,1.23,6.15,10.99,12.3,-13.36,10.9,-46.32,93.96,-0.97,12.04,-13.45,15.38,-55.2,96.33,15.73,2.64,5.54,5.71,0.94,5.63,11.1,11.48,-13.12,10.65,-46.25,92.43,-0.78,11.57,-13.48,15.5,-54.88,95.64,15.7,1.91,5.59,0.1631,0.4716,-0.6984,0.317,0.6633,-0.9191,0.3042,-0.3863,0.3227,-0.0223,0.6649,-0.9233,0.4427,-0.5433,0.3605,0.4485,0.4893,-0.699,0.006,0.006,0.0,0.0,0.019,0.0,0.0,0.0,0.019,0.006,0.006,0.0,0.0,0.006,0.006,0.0,0.019,0.0,0.1043,0.0107,0.115,0.1887,0.2178,-0.2408,0.1933,-0.8191,1.6429,-0.0169,0.2071,-0.2424,0.2654,-0.9725,1.6889,0.2746,0.0491,0.0874,0.0069,0.0448,-0.2545,0.0169,-0.0597,0.0005,-0.0166,0.0896,-0.1111,-0.0027,-0.0431,0.0431,0.0,0.0243,-0.0863,-0.028,-0.0941,0.0211,-0.0011,-0.0631,0.0025,-0.0019,-0.0261,0.1664,0.4728,-0.6986,0.319,0.668,-0.9184,0.3053,-0.3845,0.3275,-0.0245,0.6669,-0.9218,0.4406,-0.5454,0.3642,0.4462,0.4915,-0.6975,0.0,0.0,0.0,0.0,0.0,0.0,0.0,0.0,0.0,
3.28,run,0.49,3.21,0.1,0.31,0.92,0.0,0.0,0.0,0.123,5.54,1.23,5.89,10.99,12.22,-13.18,10.9,-46.32,93.34,-0.97,12.04,-13.36,15.38,-55.11,95.8,15.73,2.64,5.54,5.72,0.79,5.53,11.09,11.36,-12.79,10.62,-46.08,91.93,-0.81,11.54,-13.33,15.49,-54.75,95.14,15.59,1.81,5.58,0.1634,0.4688,-0.6996,0.3169,0.6611,-0.9152,0.3034,-0.3833,0.3169,-0.0232,0.6644,-0.9215,0.4425,-0.5409,0.3546,0.4454,0.4875,-0.6991,0.006,0.006,0.0,0.0,0.019,0.0,0.0,0.0,0.019,0.006,0.006,0.0,0.0,0.006,0.006,0.0,0.019,0.0,0.0966,0.0107,0.1043,0.1887,0.2148,-0.2362,0.1933,-0.8115,1.6322,-0.0169,0.204,-0.2362,0.2654,-0.9664,1.6766,0.2746,0.043,0.092,-0.0239,0.0314,-0.2184,0.0119,-0.0533,0.0176,-0.0116,0.0915,-0.118,-0.0019,-0.0417,0.0531,0.0,0.04,-0.1064,-0.0196,-0.0888,0.032,-0.0008,-0.065,-0.0049,-0.0054,-0.0032,0.1631,0.4716,-0.6984,0.317,0.6633,-0.9191,0.3042,-0.3863,0.3227,-0.0223,0.6649,-0.9233,0.4427,-0.5433,0.3605,0.4485,0.4893,-0.699,0.0,0.0,0.0,0.0,0.0,0.0,0.0,0.0,0.0,
3.32,run,0.49,3.18,-0.09,-0.45,-1.56,0.0,0.0,0.0,0.123,6.06,1.23,5.8,10.99,12.22,-13.27,10.9,-46.32,92.99,-0.79,12.04,-13.36,15.38,-55.02,95.71,15.73,2.64,5.54,5.68,0.65,5.54,11.08,11.25,-12.55,10.6,-46.04,91.51,-0.82,11.47,-13.24,15.46,-54.6,94.75,15.54,1.77,5.44,0.1624,0.4664,-0.6996,0.3167,0.659,-0.9124,0.3028,-0.3825,0.3119,-0.0233,0.6631,-0.9205,0.4417,-0.5381,0.3499,0.444,0.4867,-0.7007,0.006,0.006,0.0,0.0,0.019,0.0,0.0,0.0,0.019,0.006,0.006,0.0,0.0,0.006,0.006,0.0,0.019,0.0,0.0936,0.0107,0.0997,0.1887,0.2132,-0.2332,0.1933,-0.8115,1.6214,-0.0169,0.204,-0.2347,0.2654,-0.9649,1.6674,0.2746,0.043,0.092,-0.0265,0.022,-0.1675,0.0083,-0.0422,0.0221,-0.0081,0.064,-0.1168,-0.0013,-0.0292,0.0421,0.0,0.0329,-0.1038,-0.0137,-0.0622,0.0224,0.0004,-0.0643,0.0017,0.0054,0.016,0.1634,0.4688,-0.6996,0.3169,0.6611,-0.9152,0.3034,-0.3833,0.3169,-0.0232,0.6644,-0.9215,0.4425,-0.5409,0.3546,0.4454,0.4875,-0.6991,0.0,0.0,0.0,0.0,0.0,0.0,0.0,0.0,0.0,
3.36,run,0.46,3.17,-0.52,-0.15,1.23,0.0,0.0,0.0,0.123,5.45,1.14,5.8,10.99,11.87,-12.66,10.81,-46.05,92.64,-0.62,12.04,-13.36,15.38,-54.67,95.1,15.56,2.55,5.54,5.63,0.7,5.46,11.1,11.08,-12.61,10.59,-46.17,91.37,-0.8,11.37,-13.37,15.48,-54.62,94.56,15.58,1.64,5.37,0.1609,0.4672,-0.7004,0.317,0.656,-0.913,0.3024,-0.3849,0.3103,-0.023,0.6613,-0.922,0.4424,-0.5385,0.3478,0.4451,0.4844,-0.7015,0.013,0.006,0.006,0.0,0.006,0.006,0.006,0.0,0.013,0.006,0.019,0.0,0.0,0.0,0.0,0.0,0.026,0.0,0.1028,0.0107,0.0982,0.1887,0.2132,-0.2347,0.1933,-0.8115,1.6153,-0.0138,0.204,-0.2347,0.2654,-0.9633,1.6659,0.2746,0.043,0.092,0.0154,0.0154,-0.1229,0.0058,-0.0295,0.0098,-0.0057,0.0448,-0.1044,0.0104,-0.0204,0.0295,0.0,0.0287,-0.0783,-0.0096,-0.0435,0.0157,0.0001,-0.0677,-0.0016,-0.0078,-0.0273,0.1624,0.4664,-0.6996,0.3167,0.659,-0.9124,0.3028,-0.3825,0.3119,-0.0233,0.6631,-0.9205,0.4417,-0.5381,0.3499,0.444,0.4867,-0.7007,0.0,0.0,0.0,0.0,0.0,0.0,0.0,0.0,0.0,
3.4,run,0.47,3.2,0.18,0.08,-0.2,0.0,0.0,0.0,0.123,5.45,1.14,5.8,10.99,11.6,-12.74,10.72,-46.05,92.11,-0.7,11.95,-13.36,15.38,-54.76,94.66,15.56,2.46,5.54,5.66,0.49,5.59,11.07,11.09,-12.39,10.6,-46.02,91.14,-0.81,11.4,-13.12,15.43,-54.51,94.29,15.49,1.65,5.47,0.1618,0.4635,-0.6989,0.3162,0.6563,-0.9105,0.3029,-0.3822,0.3075,-0.0232,0.6617,-0.9191,0.4407,-0.5365,0.3446,0.4425,0.4845,-0.7003,0.013,0.006,0.006,0.0,0.006,0.006,0.006,0.0,0.013,0.006,0.019,0.0,0.0,0.0,0.0,0.0,0.026,0.0,0.092,0.0092,0.0982,0.1887,0.2071,-0.224,0.1917,-0.8069,1.6091,-0.0107,0.204,-0.2347,0.2654,-0.9572,1.6552,0.2715,0.0414,0.092,-0.0297,0.005,-0.0861,0.0041,-0.0438,0.0473,-0.0098,0.0487,-0.0962,0.0188,-0.0143,0.0206,0.0,0.0432,-0.0953,-0.0183,-0.0362,0.011,-0.002,-0.0681,-0.009,-0.0026,0.0215,0.1609,0.4672,-0.7004,0.317,0.656,-0.913,0.3024,-0.3849,0.3103,-0.023,0.6613,-0.922,0.4424,-0.5385,0.3478,0.4451,0.4844,-0.7015,0.0,0.0,0.0,0.0,0.0,0.0,0.0,0.0,0.0,
3.44,run,0.45,3.19,-0.15,-0.15,-1.04,0.0,0.0,0.0,0.123,6.06,1.14,5.8,10.99,11.6,-12.57,10.72,-46.05,91.85,-0.79,11.95,-13.36,15.38,-54.58,94.57,15.56,2.29,5.54,5.63,0.44,5.78,10.98,11.07,-12.52,10.61,-46.18,91.03,-0.78,11.41,-13.2,15.44,-54.51,93.99,15.57,1.82,5.45,0.161,0.4625,-0.6967,0.3137,0.6559,-0.912,0.3032,-0.3852,0.3062,-0.0222,0.6619,-0.92,0.441,-0.5366,0.3411,0.4449,0.4876,-0.7006,0.013,0.006,0.006,0.0,0.006,0.006,0.006,0.0,0.013,0.006,0.019,0.0,0.0,0.0,0.0,0.0,0.026,0.0,0.092,0.0092,0.0982,0.1887,0.2025,-0.2255,0.1902,-0.8069,1.5999,-0.0123,0.2025,-0.2347,0.2654,-0.9587,1.6475,0.2715,0.0399,0.092,-0.0208,0.0035,-0.0602,0.0028,-0.0478,0.0274,-0.0126,0.0341,-0.1017,0.0075,-0.0157,0.0144,0.0,0.0245,-0.0953,-0.0128,-0.0311,0.0077,-0.0016,-0.066,0.0031,0.0014,-0.0036,0.1618,0.4635,-0.6989,0.3162,0.6563,-0.9105,0.3029,-0.3822,0.3075,-0.0232,0.6617,-0.9191,0.4407,-0.5365,0.3446,0.4425,0.4845,-0.7003,0.0,0.0,0.0,0.0,0.0,0.0,0.0,0.0,0.0,
3.48,run,0.45,3.19,-0.17,0.03,1.36,0.0,0.0,0.0,0.123,5.36,0.97,5.8,10.99,11.6,-12.48,10.72,-46.05,91.67,-0.79,11.95,-13.27,15.38,-54.67,94.04,15.56,2.29,5.54,5.6,0.39,5.75,10.95,10.97,-12.62,10.61,-46.23,91.01,-0.72,11.38,-13.36,15.48,-54.46,94.03,15.64,1.75,5.47,0.16,0.4616,-0.6971,0.3128,0.6541,-0.9131,0.3031,-0.3861,0.306,-0.0205,0.6615,-0.9218,0.4423,-0.5356,0.3416,0.4469,0.4863,-0.7004,0.013,0.013,0.0,0.0,0.013,0.006,0.0,0.006,0.013,0.0,0.006,0.0,0.0,0.006,0.006,0.0,0.013,0.0,0.1028,0.0092,0.0982,0.1887,0.2025,-0.2224,0.1902,-0.8069,1.5953,-0.0138,0.2025,-0.2347,0.2654,-0.9557,1.646,0.2715,0.0368,0.092,0.0258,0.0024,-0.0422,0.002,-0.0335,0.0307,-0.0088,0.0239,-0.0885,-0.0005,-0.011,0.0101,0.0,0.0287,-0.0725,-0.0089,-0.0333,0.0054,-0.0033,-0.0667,-0.0027,-0.0026,-0.0182,0.161,0.4625,-0.6967,0.3137,0.6559,-0.912,0.3032,-0.3852,0.3062,-0.0222,0.6619,-0.92,0.441,-0.5366,0.3411,0.4449,0.4876,-0.7006,0.0,0.0,0.0,0.0,0.0,0.0,0.0,0.0,0.0,
3.52,run,0.45,3.22,0.33,0.33,-0.25,0.0,0.0,0.0,0.123,5.62,0.79,5.8,10.99,11.6,-12.57,10.72,-46.23,91.58,-0.79,11.95,-13.36,15.38,-54.67,93.96,15.56,2.29,5.54,5.66,0.29,5.84,10.95,11.08,-12.42,10.63,-46.15,90.84,-0.78,11.48,-13.19,15.4,-54.4,93.74,15.55,1.86,5.5,0.1617,0.4598,-0.6961,0.3129,0.656,-0.9108,0.3037,-0.3846,0.304,-0.0224,0.6632,-0.9199,0.4399,-0.5345,0.3381,0.4442,0.4883,-0.7,0.013,0.013,0.0,0.0,0.013,0.006,0.0,0.006,0.013,0.0,0.006,0.0,0.0,0.006,0.006,0.0,0.013,0.0,0.0905,0.0061,0.0982,0.1887,0.2025,-0.2209,0.1902,-0.8069,1.5923,-0.0138,0.2025,-0.2332,0.2654,-0.9572,1.6368,0.2715,0.0368,0.092,-0.0281,-0.0098,-0.0295,0.0014,-0.0234,0.0272,-0.0062,0.0167,-0.0735,-0.0004,-0.0077,0.0128,0.0,0.0143,-0.0853,-0.0063,-0.0233,0.0038,-0.0028,-0.0668,-0.0029,0.0006,0.0238,0.16,0.4616,-0.6971,0.3128,0.6541,-0.9131,0.3031,-0.3861,0.306,-0.0205,0.6615,-0.9218,0.4423,-0.5356,0.3416,0.4469,0.4863,-0.7004,0.0,0.0,0.0,0.0,0.0,0.0,0.0,0.0,0.0,
3.56,run,0.47,3.2,0.31,0.03,-0.72,0.0,0.0,0.0,0.123,5.98,0.79,5.8,10.99,11.6,-12.57,10.72,-46.14,91.41,-0.79,11.95,-13.36,15.38,-54.49,93.96,15.56,2.29,5.54,5.62,0.28,5.94,10.91,11.08,-12.6,10.64,-46.34,90.86,-0.75,11.47,-13.33,15.42,-54.47,93.72,15.63,1.93,5.36,0.1607,0.4596,-0.6948,0.3116,0.6561,-0.913,0.304,-0.3879,0.3042,-0.0214,0.6631,-0.9215,0.4405,-0.5359,0.3378,0.4465,0.4897,-0.7017,0.013,0.013,0.0,0.0,0.013,0.006,0.0,0.006,0.013,0.0,0.006,0.0,0.0,0.006,0.006,0.0,0.013,0.0,0.0951,0.0031,0.0982,0.1887,0.2025,-0.2224,0.1902,-0.8099,1.5907,-0.0138,0.2025,-0.2347,0.2654,-0.9572,1.6352,0.2715,0.0368,0.092,-0.0024,-0.0184,-0.0207,0.001,-0.0164,0.0133,-0.0043,0.0002,-0.0572,-0.0003,-0.0054,0.0032,0.0,0.01,-0.0655,-0.0044,-0.0163,0.0026,-0.0029,-0.0637,0.0057,0.0058,-0.0044,0.1617,0.4598,-0.6961,0.3129,0.656,-0.9108,0.3037,-0.3846,0.304,-0.0224,0.6632,-0.9199,0.4399,-0.5345,0.3381,0.4442,0.4883,-0.7,0.0,0.0,0.0,0.0,0.0,0.0,0.0,0.0,0.0,
3.6,run,0.44,3.19,-0.55,-0.27,1.41,0.0,0.0,0.0,0.123,5.27,0.79,5.8,10.99,11.6,-12.57,10.72,-46.23,91.41,-0.79,11.95,-13.36,15.38,-54.67,93.96,15.56,2.29,5.54,5.63,0.24,5.88,10.9,11.04,-12.53,10.63,-46.36,90.89,-0.72,11.44,-13.41,15.43,-54.47,93.77,15.64,1.89,5.34,0.1609,0.4589,-0.6956,0.3116,0.6552,-0.9122,0.3037,-0.3884,0.3046,-0.0206,0.6626,-0.9225,0.4409,-0.5358,0.3385,0.4468,0.4889,-0.7019,0.013,0.006,0.0,0.0,0.013,0.0,0.0,0.0,0.013,0.0,0.006,0.0,0.0,0.0,0.0,0.0,0.006,0.006,0.1012,0.0031,0.0982,0.1887,0.2025,-0.2224,0.1902,-0.8084,1.5877,-0.0138,0.2025,-0.2347,0.2654,-0.9541,1.6352,0.2715,0.0368,0.092,0.0213,-0.0129,-0.0145,0.0007,-0.0115,0.0093,-0.003,0.0059,-0.0515,-0.0002,-0.0038,0.0023,0.0,0.0185,-0.0458,-0.0031,-0.0114,0.0018,-0.0017,-0.0654,0.0055,0.0006,-0.0126,0.1607,0.4596,-0.6948,0.3116,0.6561,-0.913,0.304,-0.3879,0.3042,-0.0214,0.6631,-0.9215,0.4405,-0.5359,0.3378,0.4465,0.4897,-0.7017,0.0,0.0,0.0,0.0,0.0,0.0,0.0,0.0,0.0,
3.64,run,0.46,3.2,0.45,0.28,-1.21,0.0,0.0,0.0,0.123,5.8,0.79,5.8,10.99,11.6,-12.57,10.72,-46.23,91.41,-0.79,11.87,-13.36,15.38,-54.58,93.96,15.56,2.29,5.54,5.69,0.28,5.87,10.95,11.19,-12.51,10.67,-46.28,90.95,-0.81,11.54,-13.3,15.37,-54.47,93.63,15.55,1.95,5.51,0.1626,0.4596,-0.6957,0.3129,0.6579,-0.9118,0.3047,-0.3869,0.3053,-0.023,0.6644,-0.9211,0.439,-0.5359,0.3368,0.4443,0.4899,-0.6999,0.013,0.006,0.0,0.0,0.013,0.0,0.0,0.0,0.013,0.0,0.006,0.0,0.0,0.0,0.0,0.0,0.006,0.006,0.089,0.0031,0.0982,0.1887,0.2025,-0.2224,0.1902,-0.8099,1.5877,-0.0138,0.2025,-0.2347,0.2654,-0.9572,1.6352,0.2715,0.0368,0.092,-0.031,-0.009,-0.0101,0.0005,-0.008,0.0065,-0.0021,-0.0016,-0.0361,-0.0001,-0.0026,0.0016,0.0,0.0015,-0.0321,-0.0021,-0.008,0.0013,-0.0041,-0.0663,-0.0096,-0.0047,0.0247,0.1609,0.4589,-0.6956,0.3116,0.6552,-0.9122,0.3037,-0.3884,0.3046,-0.0206,0.6626,-0.9225,0.4409,-0.5358,0.3385,0.4468,0.4889,-0.7019,0.0,0.0,0.0,0.0,0.0,0.0,0.0,0.0,0.0,
3.68,run,0.46,3.18,-0.2,-0.27,-0.28,0.0,0.0,0.0,0.123,5.8,0.79,5.8,10.99,11.6,-12.57,10.72,-46.32,91.41,-0.79,11.78,-13.36,15.38,-54.58,93.78,15.56,2.29,5.54,5.65,0.24,5.92,10.9,11.07,-12.63,10.63,-46.44,90.85,-0.74,11.46,-13.45,15.41,-54.55,93.63,15.65,1.95,5.3,0.1615,0.4589,-0.6951,0.3113,0.6558,-0.9133,0.3038,-0.3899,0.3042,-0.021,0.6629,-0.9229,0.4403,-0.5373,0.3368,0.447,0.4899,-0.7024,0.013,0.006,0.0,0.0,0.013,0.0,0.0,0.0,0.013,0.0,0.006,0.0,0.0,0.0,0.0,0.0,0.006,0.006,0.0982,0.0031,0.0982,0.1887,0.2025,-0.2224,0.1902,-0.8099,1.5877,-0.0138,0.201,-0.2347,0.2654,-0.9557,1.6352,0.2715,0.0368,0.092,0.013,-0.0063,-0.0071,0.0003,-0.0056,0.0046,-0.0015,-0.0011,-0.0252,-0.0001,-0.0076,0.0011,0.0,0.0068,-0.0225,-0.0015,-0.0056,0.0009,-0.0021,-0.0659,0.0079,0.0049,-0.0211,0.1626,0.4596,-0.6957,0.3129,0.6579,-0.9118,0.3047,-0.3869,0.3053,-0.023,0.6644,-0.9211,0.439,-0.5359,0.3368,0.4443,0.4899,-0.6999,0.0,0.0,0.0,0.0,0.0,0.0,0.0,0.0,0.0,
3.72,run,0.46,3.19,-0.03,0.26,1.29,0.0,0.0,0.0,0.123,5.27,0.79,5.8,10.99,11.6,-12.57,10.72,-46.41,91.41,-0.79,11.78,-13.36,15.38,-54.58,93.78,15.56,2.29,5.54,5.67,0.23,5.91,10.92,11.08,-12.58,10.66,-46.38,90.88,-0.76,11.52,-13.44,15.4,-54.47,93.62,15.63,1.96,5.46,0.1621,0.4588,-0.6952,0.3119,0.6561,-0.9127,0.3046,-0.3887,0.3045,-0.0218,0.6639,-0.9228,0.44,-0.5358,0.3367,0.4467,0.4903,-0.7005,0.013,0.006,0.0,0.0,0.006,0.0,0.0,0.0,0.006,0.0,0.0,0.0,0.0,0.0,0.006,0.0,0.006,0.0,0.0982,0.0031,0.0982,0.1887,0.2025,-0.2224,0.1902,-0.8115,1.5877,-0.0138,0.1994,-0.2347,0.2654,-0.9557,1.6322,0.2715,0.0368,0.092,0.0091,-0.0044,-0.005,0.0002,-0.0039,0.0032,-0.001,-0.0065,-0.0177,-0.0001,-0.0111,0.0008,0.0,0.0048,-0.0272,-0.0011,-0.0039,0.0006,-0.002,-0.0675,-0.0035,-0.0047,-0.0049,0.1615,0.4589,-0.6951,0.3113,0.6558,-0.9133,0.3038,-0.3899,0.3042,-0.021,0.6629,-0.9229,0.4403,-0.5373,0.3368,0.447,0.4899,-0.7024,0.0,0.0,0.0,0.0,0.0,0.0,0.0,0.0,0.0,
3.76,run,0.48,3.19,0.34,0.05,-1.26,0.0,0.0,0.0,0.123,5.98,0.79,5.8,10.99,11.6,-12.57,10.72,-46.49,91.41,-0.79,11.78,-13.36,15.38,-54.58,93.69,15.56,2.29,5.54,5.71,0.2,5.91,10.92,11.2,-12.53,10.67,-46.34,90.88,-0.8,11.56,-13.38,15.36,-54.49,93.55,15.58,2.02,5.39,0.1631,0.4582,-0.6952,0.3121,0.6582,-0.9122,0.305,-0.3881,0.3045,-0.0228,0.6648,-0.9221,0.4389,-0.5362,0.3359,0.4451,0.4914,-0.7012,0.013,0.006,0.0,0.0,0.006,0.0,0.0,0.0,0.006,0.0,0.0,0.0,0.0,0.0,0.006,0.0,0.006,0.0,0.089,0.0031,0.0982,0.1887,0.2025,-0.2224,0.1902,-0.813,1.5877,-0.0138,0.1994,-0.2347,0.2654,-0.9557,1.6322,0.2715,0.0368,0.092,-0.0282,-0.0031,-0.0035,0.0002,-0.0028,0.0022,-0.0007,-0.0103,-0.0124,-0.0,-0.0078,0.0005,0.0,0.0033,-0.0191,-0.0007,-0.0027,0.0004,-0.0019,-0.0664,-0.0005,0.0046,0.0226,0.1621,0.4588,-0.6952,0.3119,0.6561,-0.9127,0.3046,-0.3887,0.3045,-0.0218,0.6639,-0.9228,0.44,-0.5358,0.3367,0.4467,0.4903,-0.7005,0.0,0.0,0.0,0.0,0.0,0.0,0.0,0.0,0.0,
3.8,run,0.49,3.18,-0.11,-0.06,0.06,0.0,0.0,0.0,0.123,5.71,0.7,5.8,10.99,11.6,-12.57,10.72,-46.49,91.41,-0.79,11.78,-13.36,15.38,-54.58,93.6,15.56,2.29,5.54,5.66,0.19,5.95,10.88,11.07,-12.66,10.66,-46.49,90.86,-0.74,11.51,-13.56,15.41,-54.49,93.61,15.69,2.01,5.34,0.1616,0.458,-0.6947,0.311,0.6558,-0.9136,0.3045,-0.3907,0.3043,-0.0211,0.6638,-0.9242,0.4403,-0.5362,0.3365,0.4484,0.4911,-0.7019,0.013,0.006,0.0,0.0,0.006,0.0,0.0,0.0,0.006,0.0,0.0,0.0,0.0,0.0,0.006,0.0,0.006,0.0,0.1012,0.0031,0.0982,0.1887,0.2025,-0.2224,0.1902,-0.8145,1.5877,-0.0138,0.1994,-0.2347,0.2654,-0.9557,1.6306,0.2715,0.0368,0.092,0.0261,-0.0022,-0.0024,0.0001,-0.0019,0.0016,-0.0005,-0.013,-0.0087,-0.0,-0.0054,0.0004,0.0,0.0023,-0.0191,-0.0005,-0.0019,0.0003,-0.0004,-0.0665,0.006,0.0009,-0.0221,0.1631,0.4582,-0.6952,0.3121,0.6582,-0.9122,0.305,-0.3881,0.3045,-0.0228,0.6648,-0.9221,0.4389,-0.5362,0.3359,0.4451,0.4914,-0.7012,0.0,0.0,0.0,0.0,0.0,0.0,0.0,0.0,0.0,
3.84,run,0.47,3.16,-0.5,-0.18,1.09,0.0,0.0,0.0,0.123,5.36,0.7,5.8,10.99,11.6,-12.57,10.72,-46.49,91.41,-0.79,11.78,-13.36,15.38,-54.58,93.6,15.56,2.29,5.54,5.69,0.18,5.94,10.9,11.14,-12.58,10.68,-46.42,90.9,-0.78,11.58,-13.5,15.38,-54.47,93.59,15.65,2.04,5.42,0.1627,0.4579,-0.6948,0.3116,0.6572,-0.9127,0.3052,-0.3895,0.3047,-0.0222,0.665,-0.9235,0.4396,-0.5359,0.3363,0.447,0.4916,-0.701,0.0,0.013,0.0,0.0,0.006,0.0,0.0,0.0,0.013,0.0,0.0,0.006,0.0,0.0,0.0,0.0,0.0,0.0,0.0966,0.0015,0.0982,0.1887,0.2025,-0.2224,0.1902,-0.8145,1.5877,-0.0138,0.1994,-0.2347,0.2654,-0.9557,1.6291,0.2715,0.0368,0.092,0.001,-0.0073,-0.0017,0.0001,-0.0014,0.0011,-0.0004,-0.0091,-0.0061,-0.0,-0.0038,0.0003,0.0,0.0016,-0.0191,-0.0004,-0.0013,0.0002,0.0004,-0.0675,-0.002,-0.0011,0.001,0.1616,0.458,-0.6947,0.311,0.6558,-0.9136,0.3045,-0.3907,0.3043,-0.0211,0.6638,-0.9242,0.4403,-0.5362,0.3365,0.4484,0.4911,-0.7019,0.0,0.0,0.0,0.0,0.0,0.0,0.0,0.0,0.0,
3.88,run,0.48,3.17,0.28,0.01,-1.18,0.0,0.0,0.0,0.123,6.06,0.7,5.8,10.99,11.6,-12.57,10.72,-46.49,91.41,-0.79,11.78,-13.45,15.38,-54.58,93.6,15.56,2.29,5.54,5.72,0.2,5.91,10.93,11.23,-12.54,10.7,-46.39,90.96,-0.81,11.64,-13.48,15.36,-54.47,93.59,15.61,2.07,5.46,0.1636,0.4582,-0.6952,0.3122,0.6588,-0.9123,0.3056,-0.3888,0.3055,-0.0232,0.6661,-0.9233,0.439,-0.5359,0.3364,0.4461,0.4922,-0.7004,0.0,0.013,0.0,0.0,0.006,0.0,0.0,0.0,0.013,0.0,0.0,0.006,0.0,0.0,0.0,0.0,0.0,0.0,0.0905,0.0015,0.0982,0.1887,0.2025,-0.2224,0.1902,-0.8145,1.5877,-0.0138,0.1994,-0.2347,0.2654,-0.9557,1.6291,0.2715,0.0368,0.092,-0.0219,-0.0051,-0.0012,0.0001,-0.0009,0.0008,-0.0002,-0.0064,-0.0042,-0.0,-0.0027,0.0002,0.0,0.0011,-0.0134,-0.0003,-0.0009,0.0002,-0.001,-0.0687,-0.0086,-0.0031,0.019,0.1627,0.4579,-0.6948,0.3116,0.6572,-0.9127,0.3052,-0.3895,0.3047,-0.0222,0.665,-0.9235,0.4396,-0.5359,0.3363,0.447,0.4916,-0.701,0.0,0.0,0.0,0.0,0.0,0.0,0.0,0.0,0.0,
3.92,run,0.46,3.17,-0.5,-0.14,0.72,0.0,0.0,0.0,0.123,5.62,0.7,5.8,10.99,11.6,-12.57,10.72,-46.49,91.41,-0.79,11.78,-13.45,15.38,-54.58,93.6,15.56,2.29,5.54,5.68,0.18,5.95,10.88,11.11,-12.65,10.66,-46.5,90.93,-0.73,11.56,-13.61,15.4,-54.49,93.67,15.71,2.04,5.36,0.1622,0.4579,-0.6947,0.3108,0.6566,-0.9136,0.3046,-0.3909,0.3051,-0.0209,0.6647,-0.9248,0.4401,-0.5362,0.3373,0.4487,0.4916,-0.7016,0.0,0.013,0.0,0.0,0.006,0.0,0.0,0.0,0.013,0.0,0.0,0.006,0.0,0.0,0.0,0.0,0.0,0.0,0.1028,0.0015,0.0982,0.1887,0.2025,-0.2224,0.1902,-0.8145,1.5877,-0.0138,0.1994,-0.2362,0.2654,-0.9557,1.6291,0.2715,0.0368,0.092,0.0315,-0.0036,-0.0008,0.0,-0.0007,0.0005,-0.0002,-0.0044,-0.003,-0.0,-0.0019,-0.0057,0.0,0.0008,-0.0094,-0.0002,-0.0007,0.0001,-0.0004,-0.0681,0.0049,0.0002,-0.0206,0.1636,0.4582,-0.6952,0.3122,0.6588,-0.9123,0.3056,-0.3888,0.3055,-0.0232,0.6661,-0.9233,0.439,-0.5359,0.3364,0.4461,0.4922,-0.7004,0.0,0.0,0.0,0.0,0.0,0.0,0.0,0.0,0.0,
3.96,run,0.45,3.17,-0.35,-0.03,0.83,0.0,0.0,0.0,0.123,5.54,0.7,5.8,10.99,11.6,-12.57,10.72,-46.49,91.41,-0.79,11.78,-13.62,15.38,-54.58,93.6,15.56,2.29,5.54,5.72,0.2,5.95,10.91,11.22,-12.58,10.69,-46.41,91.02,-0.79,11.62,-13.5,15.37,-54.48,93.64,15.63,2.06,5.49,0.1634,0.4582,-0.6948,0.3117,0.6586,-0.9127,0.3053,-0.3893,0.3061,-0.0225,0.6659,-0.9235,0.439,-0.5359,0.3369,0.4464,0.4919,-0.7002,0.006,0.006,0.0,0.0,0.006,0.0,0.0,0.0,0.0,0.0,0.0,0.0,0.0,0.0,0.0,0.006,0.006,0.0,0.0951,0.0015,0.0982,0.1887,0.2025,-0.2224,0.1902,-0.8145,1.5877,-0.0138,0.1994,-0.2362,0.2654,-0.9557,1.6291,0.2715,0.0368,0.092,-0.0067,-0.0025,-0.0006,0.0,-0.0005,0.0004,-0.0001,-0.0031,-0.0021,-0.0,-0.0013,-0.004,0.0,0.0006,-0.0066,-0.0001,-0.0005,0.0001,-0.0023,-0.0682,-0.0088,-0.0025,0.0126,0.1622,0.4579,-0.6947,0.3108,0.6566,-0.9136,0.3046,-0.3909,0.3051,-0.0209,0.6647,-0.9248,0.4401,-0.5362,0.3373,0.4487,0.4916,-0.7016,0.0,0.0,0.0,0.0,0.0,0.0,0.0,0.0,0.0,
4.0,run,0.46,3.16,0.08,-0.19,-1.3,0.0,0.0,0.0,0.123,6.06,0.7,5.8,10.99,11.6,-12.57,10.72,-46.49,91.41,-0.79,11.78,-13.62,15.38,-54.58,93.6,15.56,2.29,5.54,5.73,0.21,5.95,10.9,11.27,-12.62,10.69,-46.43,91.05,-0.78,11.65,-13.51,15.37,-54.5,93.69,15.64,2.09,5.47,0.1636,0.4584,-0.6947,0.3114,0.6595,-0.9132,0.3054,-0.3896,0.3065,-0.0223,0.6664,-0.9237,0.4391,-0.5364,0.3375,0.4468,0.4926,-0.7004,0.006,0.006,0.0,0.0,0.006,0.0,0.0,0.0,0.0,0.0,0.0,0.0,0.0,0.0,0.0,0.006,0.006,0.0,0.0936,0.0015,0.0982,0.1887,0.2025,-0.2224,0.1902,-0.8145,1.5877,-0.0138,0.1994,-0.2393,0.2654,-0.9557,1.6291,0.2715,0.0368,0.092,-0.0104,-0.0017,-0.0004,0.0,-0.0003,0.0003,-0.0001,-0.0022,-0.0015,-0.0,-0.0009,-0.0143,0.0,0.0004,-0.0046,-0.0001,-0.0003,0.0001,-0.0032,-0.068,-0.0061,-0.0005,0.0144,0.1634,0.4582,-0.6948,0.3117,0.6586,-0.9127,0.3053,-0.3893,0.3061,-0.0225,0.6659,-0.9235,0.439,-0.5359,0.3369,0.4464,0.4919,-0.7002,0.0,0.0,0.0,0.0,0.0,0.0,0.0,0.0,0.0,
4.04,run,0.45,3.17,-0.05,0.25,1.25,0.0,0.0,0.0,0.123,5.45,0.62,5.8,10.99,11.6,-12.57,10.72,-46.49,91.41,-0.79,11.78,-13.62,15.38,-54.58,93.6,15.56,2.29,5.54,5.69,0.21,5.97,10.87,11.17,-12.69,10.67,-46.53,91.03,-0.74,11.6,-13.63,15.4,-54.53,93.72,15.71,2.06,5.42,0.1626,0.4583,-0.6945,0.3107,0.6576,-0.9141,0.3048,-0.3914,0.3062,-0.021,0.6655,-0.925,0.4401,-0.5369,0.3379,0.4488,0.492,-0.701,0.006,0.006,0.0,0.0,0.006,0.0,0.0,0.0,0.0,0.0,0.0,0.0,0.0,0.0,0.0,0.006,0.006,0.0,0.1028,0.0015,0.0982,0.1887,0.2025,-0.2224,0.1902,-0.8145,1.5877,-0.0138,0.1994,-0.2393,0.2654,-0.9557,1.6291,0.2715,0.0368,0.092,0.0272,-0.0012,-0.0003,0.0,-0.0002,0.0002,-0.0001,-0.0015,-0.001,-0.0,-0.0006,-0.01,0.0,0.0003,-0.0032,-0.0001,-0.0002,0.0,-0.0027,-0.0693,0.0013,-0.0034,-0.0226,0.1636,0.4584,-0.6947,0.3114,0.6595,-0.9132,0.3054,-0.3896,0.3065,-0.0223,0.6664,-0.9237,0.4391,-0.5364,0.3375,0.4468,0.4926,-0.7004,0.0,0.0,0.0,0.0,0.0,0.0,0.0,0.0,0.0,
4.08,run,0.44,3.18,-0.05,0.07,0.4,0.0,0.0,0.0,0.123,5.62,0.62,5.8,10.99,11.6,-12.57,10.72,-46.49,91.41,-0.79,11.78,-13.62,15.38,-54.58,93.6,15.56,2.29,5.54,5.74,0.18,5.97,10.89,11.3,-12.58,10.69,-46.42,91.04,-0.78,11.66,-13.48,15.35,-54.51,93.66,15.61,2.1,5.43,0.164,0.4578,-0.6944,0.3112,0.66,-0.9127,0.3055,-0.3894,0.3064,-0.0224,0.6665,-0.9233,0.4386,-0.5366,0.3371,0.4459,0.4928,-0.7009,0.006,0.006,0.0,0.0,0.006,0.0,0.0,0.0,0.006,0.0,0.0,0.0,0.0,0.0,0.0,0.006,0.0,0.0,0.092,0.0,0.0982,0.1887,0.2025,-0.2224,0.1902,-0.8145,1.5877,-0.0138,0.1994,-0.2393,0.2654,-0.9557,1.6291,0.2715,0.0368,0.092,-0.0211,-0.0066,-0.0002,0.0,-0.0002,0.0001,-0.0,-0.0011,-0.0007,-0.0,-0.0004,-0.007,0.0,0.0002,-0.0022,-0.0,-0.0002,0.0,-0.0029,-0.0681,-0.0009,0.0043,0.0219,0.1626,0.4584,-0.6945,0.3107,0.6576,-0.9141,0.3048,-0.3914,0.3062,-0.021,0.6655,-0.925,0.4401,-0.5369,0.3379,0.4488,0.492,-0.701,0.0,0.0,0.0,0.0,0.0,0.0,0.0,0.0,0.0,
4.12,run,0.45,3.19,0.28,0.1,-0.59,0.0,0.0,0.0,0.123,5.98,0.62,5.8,10.99,11.6,-12.57,10.72,-46.49,91.41,-0.79,11.78,-13.54,15.38,-54.58,93.6,15.56,2.29,5.54,5.72,0.2,5.99,10.88,11.28,-12.65,10.69,-46.48,91.07,-0.77,11.65,-13.55,15.37,-54.53,93.71,15.66,2.11,5.41,0.1635,0.4581,-0.6943,0.311,0.6596,-0.9135,0.3053,-0.3905,0.3067,-0.022,0.6663,-0.9241,0.4392,-0.5368,0.3378,0.4473,0.4929,-0.701,0.006,0.006,0.0,0.0,0.006,0.0,0.0,0.0,0.006,0.0,0.0,0.0,0.0,0.0,0.0,0.006,0.0,0.0,0.0951,0.0,0.0982,0.1887,0.2025,-0.2224,0.1902,-0.8145,1.5877,-0.0138,0.1994,-0.2393,0.2654,-0.9557,1.6291,0.2715,0.0368,0.092,-0.0032,-0.0046,-0.0001,0.0,-0.0001,0.0001,-0.0,-0.0007,-0.0005,-0.0,-0.0003,-0.0049,0.0,0.0001,-0.0016,-0.0,-0.0001,0.0,-0.0037,-0.067,-0.0009,0.0013,0.007,0.164,0.4578,-0.6944,0.3112,0.66,-0.9127,0.3055,-0.3894,0.3064,-0.0224,0.6665,-0.9233,0.4386,-0.5366,0.3371,0.4459,0.4928,-0.7009,0.0,0.0,0.0,0.0,0.0,0.0,0.0,0.0,0.0,
4.16,run,0.43,3.19,-0.37,-0.01,1.45,0.0,0.0,0.0,0.123,5.36,0.62,5.8,10.99,11.6,-12.57,10.72,-46.49,91.41,-0.79,11.78,-13.45,15.38,-54.58,93.6,15.64,2.29,5.54,5.7,0.18,6.0,10.87,11.2,-12.66,10.67,-46.52,91.04,-0.74,11.59,-13.59,15.39,-54.52,93.72,15.69,2.07,5.37,0.1629,0.4577,-0.6941,0.3105,0.6582,-0.9136,0.3048,-0.3913,0.3064,-0.0211,0.6653,-0.9246,0.4396,-0.5368,0.3379,0.4482,0.4923,-0.7015,0.006,0.006,0.0,0.0,0.006,0.0,0.0,0.0,0.006,0.0,0.0,0.0,0.0,0.0,0.0,0.006,0.0,0.0,0.1012,0.0,0.0982,0.1887,0.2025,-0.2224,0.1902,-0.8145,1.5877,-0.0138,0.1994,-0.2378,0.2654,-0.9557,1.6291,0.2715,0.0368,0.092,0.0208,-0.0032,-0.0001,0.0,-0.0001,0.0001,-0.0,-0.0005,-0.0003,-0.0,-0.0002,0.0023,0.0,0.0001,-0.0011,-0.0,-0.0001,0.0,-0.0031,-0.0664,0.0049,0.0017,-0.0103,0.1635,0.4581,-0.6943,0.311,0.6596,-0.9135,0.3053,-0.3905,0.3067,-0.022,0.6663,-0.9241,0.4392,-0.5368,0.3378,0.4473,0.4929,-0.701,0.0,0.0,0.0,0.0,0.0,0.0,0.0,0.0,0.0,
4.2,run,0.46,3.21,0.5,0.32,-0.94,0.0,0.0,0.0,0.123,5.71,0.62,5.8,10.99,11.6,-12.57,10.72,-46.49,91.41,-0.79,11.78,-13.54,15.38,-54.58,93.6,15.64,2.29,5.54,5.74,0.19,5.97,10.91,11.32,-12.57,10.69,-46.44,91.08,-0.82,11.67,-13.49,15.35,-54.52,93.63,15.6,2.11,5.45,0.1641,0.4581,-0.6944,0.3118,0.6603,-0.9126,0.3054,-0.3897,0.3068,-0.0233,0.6668,-0.9234,0.4385,-0.5366,0.3369,0.4457,0.493,-0.7006,0.0,0.006,0.0,0.0,0.0,0.0,0.0,0.0,0.0,0.0,0.0,0.0,0.0,0.0,0.0,0.0,0.006,0.0,0.0905,0.0,0.0982,0.1887,0.2025,-0.2224,0.1902,-0.8145,1.5877,-0.0138,0.1994,-0.2362,0.2654,-0.9557,1.6291,0.273,0.0368,0.092,-0.0257,-0.0023,-0.0001,0.0,-0.0001,0.0,-0.0,-0.0004,-0.0002,-0.0,-0.0002,0.0074,0.0,0.0001,-0.0008,0.0057,-0.0001,0.0,-0.0048,-0.0663,-0.0065,-0.0002,0.0252,0.1629,0.4577,-0.6941,0.3105,0.6582,-0.9136,0.3048,-0.3913,0.3064,-0.0211,0.6653,-0.9246,0.4396,-0.5368,0.3379,0.4482,0.4923,-0.7015,0.0,0.0,0.0,0.0,0.0,0.0,0.0,0.0,0.0,
4.24,run,0.46,3.19,-0.01,-0.04,-0.13,0.0,0.0,0.0,0.123,5.89,0.62,5.8,10.99,11.6,-12.57,10.72,-46.49,91.41,-0.79,11.78,-13.54,15.38,-54.58,93.6,15.64,2.29,5.54,5.7,0.18,6.03,10.86,11.23,-12.71,10.67,-46.59,91.0,-0.76,11.61,-13.6,15.39,-54.6,93.63,15.69,2.13,5.3,0.163,0.4578,-0.6937,0.3103,0.6587,-0.9142,0.3048,-0.3925,0.3059,-0.0217,0.6656,-0.9247,0.4396,-0.5381,0.3369,0.4483,0.4933,-0.7024,0.0,0.006,0.0,0.0,0.0,0.0,0.0,0.0,0.0,0.0,0.0,0.0,0.0,0.0,0.0,0.0,0.006,0.0,0.0966,0.0,0.0982,0.1887,0.2025,-0.2224,0.1902,-0.8145,1.5877,-0.0138,0.1994,-0.2378,0.2654,-0.9557,1.6291,0.273,0.0368,0.092,0.0051,-0.0016,-0.0,0.0,-0.0,0.0,-0.0,-0.0003,-0.0002,-0.0,-0.0001,-0.0006,0.0,0.0,-0.0005,0.004,-0.0,0.0,-0.0026,-0.0651,0.0087,0.0055,-0.0163,0.1641,0.4581,-0.6944,0.3118,0.6603,-0.9126,0.3054,-0.3897,0.3068,-0.0233,0.6668,-0.9234,0.4385,-0.5366,0.3369,0.4457,0.493,-0.7006,0.0,0.0,0.0,0.0,0.0,0.0,0.0,0.0,0.0,
4.28,run,0.45,3.19,-0.25,0.07,1.28,0.0,0.0,0.0,0.123,5.36,0.62,5.8,10.99,11.6,-12.57,10.72,-46.49,91.41,-0.79,11.78,-13.54,15.38,-54.58,93.6,15.64,2.29,5.54,5.71,0.18,5.98,10.89,11.21,-12.64,10.68,-46.5,91.05,-0.76,11.62,-13.59,15.38,-54.51,93.71,15.67,2.08,5.42,0.1631,0.4579,-0.6943,0.311,0.6584,-0.9134,0.305,-0.391,0.3065,-0.0218,0.6658,-0.9246,0.4395,-0.5365,0.3377,0.4478,0.4924,-0.7009,0.0,0.006,0.0,0.0,0.0,0.0,0.0,0.0,0.0,0.0,0.0,0.0,0.0,0.0,0.0,0.0,0.006,0.0,0.0997,0.0,0.0982,0.1887,0.2025,-0.2224,0.1902,-0.8145,1.5877,-0.0138,0.1994,-0.2378,0.2654,-0.9557,1.6291,0.273,0.0368,0.092,0.015,-0.0011,-0.0,0.0,-0.0,0.0,-0.0,-0.0002,-0.0001,-0.0,-0.0001,-0.0004,0.0,0.0,-0.0004,0.0028,-0.0,0.0,-0.0026,-0.0666,-0.0003,-0.0007,-0.0024,0.163,0.4578,-0.6937,0.3103,0.6587,-0.9142,0.3048,-0.3925,0.3059,-0.0217,0.6656,-0.9247,0.4396,-0.5381,0.3369,0.4483,0.4933,-0.7024,0.0,0.0,0.0,0.0,0.0,0.0,0.0,0.0,0.0,
4.32,run,0.46,3.19,0.23,0.03,-1.17,0.0,0.0,0.0,0.123,5.98,0.62,5.8,10.99,11.6,-12.66,10.72,-46.49,91.41,-0.79,11.78,-13.54,15.38,-54.58,93.6,15.64,2.29,5.54,5.74,0.19,5.97,10.9,11.32,-12.6,10.69,-46.45,91.08,-0.81,11.67,-13.5,15.35,-54.53,93.66,15.62,2.13,5.44,0.1641,0.458,-0.6944,0.3115,0.6603,-0.9129,0.3055,-0.39,0.3068,-0.023,0.6668,-0.9236,0.4387,-0.5369,0.3372,0.4462,0.4932,-0.7007,0.013,0.006,0.006,0.0,0.0,0.0,0.0,0.0,0.006,0.0,0.0,0.0,0.0,0.0,0.0,0.0,0.006,0.0,0.0905,0.0,0.0982,0.1887,0.2025,-0.2224,0.1902,-0.8145,1.5877,-0.0138,0.1994,-0.2378,0.2654,-0.9557,1.6291,0.273,0.0368,0.092,-0.0241,-0.0008,-0.0,0.0,-0.0,0.0,-0.0,-0.0001,-0.0001,-0.0,-0.0001,-0.0003,0.0,0.0,-0.0003,0.002,-0.0,0.0,-0.0035,-0.0662,-0.0044,0.0011,0.0223,0.1631,0.4579,-0.6943,0.311,0.6584,-0.9134,0.305,-0.391,0.3065,-0.0218,0.6658,-0.9246,0.4395,-0.5365,0.3377,0.4478,0.4924,-0.7009,0.0,0.0,0.0,0.0,0.0,0.0,0.0,0.0,0.0,
4.36,run,0.46,3.17,-0.29,-0.22,0.37,0.0,0.0,0.0,0.123,5.71,0.62,5.8,10.99,11.6,-12.66,10.72,-46.49,91.41,-0.79,11.78,-13.54,15.38,-54.58,93.6,15.64,2.29,5.54,5.7,0.2,6.0,10.87,11.21,-12.7,10.67,-46.58,91.08,-0.75,11.61,-13.64,15.4,-54.56,93.72,15.71,2.11,5.36,0.1629,0.4582,-0.6941,0.3105,0.6583,-0.9142,0.3048,-0.3923,0.3068,-0.0214,0.6656,-0.9252,0.4399,-0.5374,0.3379,0.4489,0.4929,-0.7016,0.013,0.006,0.006,0.0,0.0,0.0,0.0,0.0,0.006,0.0,0.0,0.0,0.0,0.0,0.0,0.0,0.006,0.0,0.1012,0.0,0.0982,0.1887,0.2025,-0.224,0.1902,-0.8145,1.5877,-0.0138,0.1994,-0.2378,0.2654,-0.9557,1.6291,0.273,0.0368,0.092,0.0234,-0.0005,-0.0,0.0,-0.0,-0.0057,-0.0,-0.0001,-0.0001,-0.0,-0.0,-0.0002,0.0,0.0,-0.0002,0.0014,-0.0,0.0,-0.0025,-0.0663,0.004,0.0006,-0.0203,0.1641,0.458,-0.6944,0.3115,0.6603,-0.9129,0.3055,-0.39,0.3068,-0.023,0.6668,-0.9236,0.4387,-0.5369,0.3372,0.4462,0.4932,-0.7007,0.0,0.0,0.0,0.0,0.0,0.0,0.0,0.0,0.0,
4.4,run,0.45,3.17,-0.4,-0.21,0.84,0.0,0.0,0.0,0.123,5.36,0.62,5.8,10.99,11.6,-12.66,10.72,-46.49,91.41,-0.79,11.78,-13.54,15.38,-54.58,93.6,15.64,2.29,5.54,5.73,0.2,5.95,10.9,11.27,-12.61,10.69,-46.48,91.11,-0.79,11.66,-13.58,15.38,-54.52,93.72,15.65,2.1,5.47,0.1638,0.4583,-0.6947,0.3115,0.6594,-0.9131,0.3054,-0.3905,0.3072,-0.0225,0.6666,-0.9244,0.4393,-0.5366,0.3379,0.4472,0.4928,-0.7004,0.013,0.006,0.006,0.0,0.0,0.0,0.0,0.0,0.006,0.0,0.0,0.0,0.0,0.0,0.0,0.0,0.006,0.0,0.0966,0.0,0.0982,0.1887,0.2025,-0.224,0.1902,-0.8145,1.5877,-0.0138,0.1994,-0.2378,0.2654,-0.9557,1.6291,0.273,0.0368,0.092,-0.0009,-0.0004,-0.0,0.0,-0.0,-0.004,-0.0,-0.0001,-0.0,-0.0,-0.0,-0.0001,0.0,0.0,-0.0001,0.001,-0.0,0.0,-0.0024,-0.0679,-0.0051,-0.0039,0.0064,0.1629,0.4582,-0.6941,0.3105,0.6583,-0.9142,0.3048,-0.3923,0.3068,-0.0214,0.6656,-0.9252,0.4399,-0.5374,0.3379,0.4489,0.4929,-0.7016,0.0,0.0,0.0,0.0,0.0,0.0,0.0,0.0,0.0,
4.44,run,0.46,3.16,0.15,-0.1,-1.07,0.0,0.0,0.0,0.123,6.06,0.62,5.8,10.99,11.6,-12.66,10.72,-46.49,91.41,-0.79,11.78,-13.54,15.38,-54.58,93.6,15.64,2.29,5.54,5.75,0.21,5.94,10.91,11.32,-12.6,10.7,-46.47,91.12,-0.81,11.7,-13.55,15.36,-54.54,93.68,15.63,2.14,5.46,0.1643,0.4584,-0.6948,0.3118,0.6604,-0.913,0.3058,-0.3904,0.3072,-0.0233,0.6673,-0.9241,0.439,-0.5371,0.3375,0.4467,0.4935,-0.7004,0.013,0.013,0.0,0.0,0.006,0.0,0.0,0.0,0.0,0.0,0.0,0.0,0.0,0.0,0.0,0.0,0.006,0.0,0.0905,0.0,0.0982,0.1887,0.2025,-0.224,0.1902,-0.8145,1.5877,-0.0138,0.1994,-0.2378,0.2654,-0.9557,1.6291,0.273,0.0368,0.092,-0.0236,-0.0003,-0.0,0.0,-0.0,-0.0028,-0.0,-0.0,-0.0,-0.0,-0.0,-0.0001,0.0,0.0,-0.0001,0.0007,-0.0,0.0,-0.0031,-0.0685,-0.0071,-0.0037,0.0147,0.1638,0.4583,-0.6947,0.3115,0.6594,-0.9131,0.3054,-0.3905,0.3072,-0.0225,0.6666,-0.9244,0.4393,-0.5366,0.3379,0.4472,0.4928,-0.7004,0.0,0.0,0.0,0.0,0.0,0.0,0.0,0.0,0.0,
4.48,run,0.45,3.16,-0.34,-0.17,0.81,0.0,0.0,0.0,0.123,5.62,0.62,5.8,10.99,11.6,-12.66,10.72,-46.49,91.41,-0.79,11.78,-13.54,15.38,-54.58,93.6,15.64,2.29,5.54,5.7,0.2,5.95,10.88,11.19,-12.66,10.67,-46.54,91.06,-0.74,11.62,-13.66,15.4,-54.52,93.75,15.71,2.08,5.39,0.1629,0.4581,-0.6947,0.3108,0.658,-0.9137,0.3049,-0.3916,0.3066,-0.0212,0.6658,-0.9254,0.44,-0.5367,0.3383,0.4489,0.4924,-0.7013,0.013,0.013,0.0,0.0,0.006,0.0,0.0,0.0,0.0,0.0,0.0,0.0,0.0,0.0,0.0,0.0,0.006,0.0,0.1028,0.0,0.0982,0.1887,0.2025,-0.224,0.1902,-0.8145,1.5877,-0.0138,0.1994,-0.2378,0.2654,-0.9557,1.6291,0.273,0.0368,0.092,0.0295,-0.0002,-0.0,0.0,-0.0,-0.002,-0.0,-0.0,-0.0,-0.0,-0.0,-0.0001,0.0,0.0,-0.0001,0.0005,-0.0,0.0,-0.0025,-0.069,0.0027,-0.0018,-0.0187,0.1643,0.4584,-0.6948,0.3118,0.6604,-0.913,0.3058,-0.3904,0.3072,-0.0233,0.6673,-0.9241,0.439,-0.5371,0.3375,0.4467,0.4935,-0.7004,0.0,0.0,0.0,0.0,0.0,0.0,0.0,0.0,0.0,
4.52,run,0.44,3.16,-0.27,-0.14,0.7,0.0,0.0,0.0,0.123,5.45,0.62,5.8,10.99,11.6,-12.66,10.72,-46.49,91.41,-0.79,11.78,-13.54,15.38,-54.58,93.6,15.64,2.29,5.54,5.74,0.2,5.93,10.91,11.29,-12.58,10.69,-46.44,91.1,-0.79,11.67,-13.55,15.36,-54.5,93.7,15.63,2.1,5.48,0.164,0.4583,-0.6949,0.3117,0.6597,-0.9127,0.3055,-0.3899,0.3071,-0.0226,0.6668,-0.9241,0.439,-0.5364,0.3377,0.4466,0.4927,-0.7003,0.013,0.013,0.0,0.0,0.006,0.0,0.0,0.0,0.0,0.0,0.0,0.0,0.0,0.0,0.0,0.0,0.006,0.0,0.0951,0.0,0.0982,0.1887,0.2025,-0.224,0.1902,-0.8145,1.5877,-0.0138,0.1994,-0.2378,0.2654,-0.9557,1.6291,0.273,0.0368,0.092,-0.0083,-0.0001,-0.0,0.0,-0.0,-0.0014,-0.0,-0.0,-0.0,-0.0,-0.0,-0.0,0.0,0.0,-0.0,0.0003,-0.0,0.0,-0.0034,-0.0688,-0.0059,-0.003,0.0142,0.1629,0.4581,-0.6947,0.3108,0.658,-0.9137,0.3049,-0.3916,0.3066,-0.0212,0.6658,-0.9254,0.44,-0.5367,0.3383,0.4489,0.4924,-0.7013,0.0,0.0,0.0,0.0,0.0,0.0,0.0,0.0,0.0,
4.56,run,0.45,3.16,0.16,-0.04,-1.29,0.0,0.0,0.0,0.123,6.06,0.62,5.8,10.99,11.6,-12.66,10.72,-46.49,91.41,-0.79,11.78,-13.54,15.38,-54.58,93.6,15.64,2.29,5.54,5.74,0.21,5.94,10.91,11.31,-12.6,10.7,-46.47,91.1,-0.8,11.69,-13.56,15.36,-54.53,93.68,15.63,2.13,5.45,0.1641,0.4584,-0.6948,0.3116,0.6602,-0.913,0.3056,-0.3903,0.3071,-0.0229,0.6671,-0.9242,0.4389,-0.537,0.3375,0.4467,0.4932,-0.7006,0.006,0.006,0.0,0.0,0.006,0.0,0.0,0.0,0.006,0.0,0.0,0.0,0.0,0.0,0.0,0.0,0.0,0.0,0.092,0.0,0.0982,0.1887,0.2025,-0.224,0.1902,-0.8145,1.5877,-0.0138,0.1994,-0.2378,0.2654,-0.9557,1.6291,0.273,0.0368,0.092,-0.0173,-0.0001,-0.0,0.0,-0.0,-0.001,-0.0,-0.0,-0.0,-0.0,-0.0,-0.0,0.0,0.0,-0.0,0.0002,-0.0,0.0,-0.0042,-0.0689,-0.0047,-0.0025,0.0122,0.164,0.4583,-0.6949,0.3117,0.6597,-0.9127,0.3055,-0.3899,0.3071,-0.0226,0.6668,-0.9241,0.439,-0.5364,0.3377,0.4466,0.4927,-0.7003,0.0,0.0,0.0,0.0,0.0,0.0,0.0,0.0,0.0,
4.6,run,0.44,3.17,-0.17,0.1,1.14,0.0,0.0,0.0,0.123,5.45,0.62,5.8,10.99,11.6,-12.66,10.72,-46.49,91.41,-0.79,11.78,-13.54,15.38,-54.58,93.6,15.64,2.29,5.54,5.7,0.2,5.98,10.87,11.19,-12.68,10.67,-46.55,91.06,-0.74,11.62,-13.65,15.4,-54.53,93.73,15.71,2.08,5.39,0.1628,0.4581,-0.6943,0.3107,0.6579,-0.9138,0.3049,-0.3919,0.3066,-0.0212,0.6657,-0.9253,0.44,-0.5369,0.338,0.4488,0.4924,-0.7013,0.006,0.006,0.0,0.0,0.006,0.0,0.0,0.0,0.006,0.0,0.0,0.0,0.0,0.0,0.0,0.0,0.0,0.0,0.1028,0.0,0.0982,0.1887,0.2025,-0.224,0.1902,-0.8145,1.5877,-0.0138,0.1994,-0.2378,0.2654,-0.9557,1.6291,0.273,0.0368,0.092,0.0284,-0.0001,-0.0,0.0,-0.0,-0.0007,-0.0,-0.0,-0.0,-0.0,-0.0,-0.0,0.0,0.0,-0.0,0.0002,-0.0,0.0,-0.0034,-0.0691,0.0028,-0.0007,-0.0225,0.1641,0.4584,-0.6948,0.3116,0.6602,-0.913,0.3056,-0.3903,0.3071,-0.0229,0.6671,-0.9242,0.4389,-0.537,0.3375,0.4467,0.4932,-0.7006,0.0,0.0,0.0,0.0,0.0,0.0,0.0,0.0,0.0,
4.64,run,0.43,3.19,0.08,0.23,0.38,0.0,0.0,0.0,0.123,5.62,0.62,5.8,10.99,11.6,-12.66,10.72,-46.49,91.41,-0.79,11.78,-13.54,15.38,-54.58,93.6,15.64,2.29,5.54,5.75,0.19,5.97,10.9,11.32,-12.58,10.69,-46.44,91.09,-0.8,11.68,-13.51,15.35,-54.52,93.66,15.61,2.11,5.45,0.1642,0.458,-0.6944,0.3115,0.6603,-0.9127,0.3055,-0.3899,0.307,-0.0228,0.6668,-0.9236,0.4385,-0.5368,0.3372,0.446,0.493,-0.7006,0.006,0.006,0.0,0.0,0.006,0.0,0.0,0.0,0.006,0.0,0.0,0.0,0.0,0.0,0.0,0.0,0.0,0.0,0.092,0.0,0.0982,0.1887,0.2025,-0.224,0.1902,-0.8145,1.5877,-0.0138,0.1994,-0.2378,0.2654,-0.9557,1.6291,0.273,0.0368,0.092,-0.0204,-0.0,-0.0,0.0,-0.0,-0.0005,-0.0,-0.0,-0.0,-0.0,-0.0,-0.0,0.0,0.0,-0.0,0.0001,-0.0,0.0,-0.0045,-0.0679,-0.0031,0.0018,0.0199,0.1628,0.4581,-0.6943,0.3107,0.6579,-0.9138,0.3049,-0.3919,0.3066,-0.0212,0.6657,-0.9253,0.44,-0.5369,0.338,0.4488,0.4924,-0.7013,0.0,0.0,0.0,0.0,0.0,0.0,0.0,0.0,0.0,
4.68,run,0.43,3.18,0.08,-0.24,-1.18,0.0,0.0,0.0,0.123,6.06,0.62,5.8,10.99,11.6,-12.66,10.72,-46.49,91.41,-0.79,11.78,-13.54,15.38,-54.58,93.6,15.64,2.29,5.54,5.73,0.19,6.01,10.88,11.29,-12.64,10.68,-46.5,91.09,-0.77,11.65,-13.56,15.37,-54.54,93.7,15.65,2.12,5.39,0.1636,0.458,-0.694,0.3109,0.6598,-0.9134,0.3051,-0.3909,0.307,-0.0221,0.6663,-0.9242,0.439,-0.5371,0.3377,0.4472,0.4931,-0.7013,0.0,0.013,0.0,0.0,0.006,0.0,0.0,0.0,0.006,0.0,0.0,0.0,0.0,0.0,0.0,0.0,0.006,0.0,0.0951,0.0,0.0982,0.1887,0.2025,-0.224,0.1902,-0.8145,1.5877,-0.0138,0.1994,-0.2378,0.2654,-0.9557,1.6291,0.273,0.0368,0.092,-0.0028,-0.0,-0.0,0.0,-0.0,-0.0003,-0.0,-0.0,-0.0,-0.0,-0.0,-0.0,0.0,0.0,-0.0,0.0001,-0.0,0.0,-0.0049,-0.066,0.0013,0.0039,0.0066,0.1642,0.458,-0.6944,0.3115,0.6603,-0.9127,0.3055,-0.3899,0.307,-0.0228,0.6668,-0.9236,0.4385,-0.5368,0.3372,0.446,0.493,-0.7006,0.0,0.0,0.0,0.0,0.0,0.0,0.0,0.0,0.0,
4.72,run,0.41,3.18,-0.37,-0.0,1.34,0.0,0.0,0.0,0.123,5.36,0.62,5.8,10.99,11.6,-12.66,10.72,-46.49,91.41,-0.79,11.78,-13.54,15.38,-54.58,93.6,15.64,2.29,5.54,5.7,0.21,6.0,10.87,11.2,-12.7,10.67,-46.56,91.1,-0.75,11.62,-13.64,15.4,-54.55,93.74,15.71,2.09,5.42,0.1629,0.4584,-0.6941,0.3107,0.6582,-0.9141,0.3049,-0.3921,0.3071,-0.0214,0.6657,-0.9251,0.44,-0.5372,0.3382,0.4488,0.4925,-0.7009,0.0,0.013,0.0,0.0,0.006,0.0,0.0,0.0,0.006,0.0,0.0,0.0,0.0,0.0,0.0,0.0,0.006,0.0,0.1028,0.0,0.0982,0.1887,0.2025,-0.224,0.1902,-0.8145,1.5877,-0.0138,0.1994,-0.2378,0.2654,-0.9557,1.6291,0.273,0.0368,0.092,0.0268,-0.0,-0.0,0.0,-0.0,-0.0002,-0.0,-0.0,-0.0,-0.0,-0.0,-0.0,0.0,0.0,-0.0,0.0001,-0.0,0.0,-0.0046,-0.067,0.0013,-0.0042,-0.0206,0.1636,0.458,-0.694,0.3109,0.6598,-0.9134,0.3051,-0.3909,0.307,-0.0221,0.6663,-0.9242,0.439,-0.5371,0.3377,0.4472,0.4931,-0.7013,0.0,0.0,0.0,0.0,0.0,0.0,0.0,0.0,0.0,
4.76,run,0.42,3.2,0.31,0.13,-0.31,0.0,0.0,0.0,0.123,5.71,0.62,5.8,10.99,11.6,-12.66,10.72,-46.49,91.41,-0.79,11.78,-13.54,15.38,-54.58,93.6,15.64,2.29,5.54,5.75,0.2,6.0,10.9,11.35,-12.59,10.7,-46.44,91.14,-0.81,11.69,-13.49,15.35,-54.54,93.67,15.6,2.13,5.48,0.1644,0.4582,-0.6941,0.3115,0.6609,-0.9128,0.3056,-0.3899,0.3075,-0.0232,0.6672,-0.9234,0.4384,-0.537,0.3373,0.4457,0.4932,-0.7002,0.0,0.013,0.0,0.0,0.006,0.0,0.0,0.0,0.006,0.0,0.0,0.0,0.0,0.0,0.0,0.0,0.006,0.0,0.0905,0.0,0.0982,0.1887,0.2025,-0.224,0.1902,-0.8145,1.5877,-0.0138,0.1994,-0.2378,0.2654,-0.9557,1.6291,0.273,0.0368,0.092,-0.0273,-0.0,-0.0,0.0,-0.0,-0.0002,-0.0,-0.0,-0.0,-0.0,-0.0,-0.0,0.0,0.0,-0.0,0.0,-0.0,0.0,-0.0063,-0.0673,-0.0064,-0.0001,0.0234,0.1629,0.4584,-0.6941,0.3107,0.6582,-0.9141,0.3049,-0.3921,0.3071,-0.0214,0.6657,-0.9251,0.44,-0.5372,0.3382,0.4488,0.4925,-0.7009,0.0,0.0,0.0,0.0,0.0,0.0,0.0,0.0,0.0,
4.8,run,0.42,3.2,0.18,-0.03,-0.68,0.0,0.0,0.0,0.123,5.89,0.62,5.8,10.99,11.6,-12.66,10.72,-46.49,91.41,-0.79,11.78,-13.54,15.38,-54.58,93.6,15.64,2.29,5.54,5.72,0.19,6.03,10.87,11.28,-12.68,10.67,-46.55,91.09,-0.76,11.64,-13.58,15.38,-54.57,93.7,15.67,2.13,5.37,0.1634,0.458,-0.6938,0.3106,0.6596,-0.9139,0.3049,-0.3918,0.307,-0.0219,0.6661,-0.9245,0.4393,-0.5377,0.3377,0.4478,0.4932,-0.7015,0.006,0.013,0.006,0.0,0.0,0.0,0.0,0.0,0.0,0.0,0.006,0.0,0.0,0.0,0.0,0.0,0.0,0.006,0.0966,0.0,0.0982,0.1887,0.2025,-0.224,0.1902,-0.8145,1.5877,-0.0138,0.1994,-0.2378,0.2654,-0.9557,1.6291,0.273,0.0368,0.092,0.0039,-0.0,-0.0,0.0,-0.0,-0.0001,-0.0,-0.0,-0.0,-0.0,-0.0,-0.0,0.0,0.0,-0.0,0.0,-0.0,0.0,-0.0057,-0.0656,0.0055,0.0022,-0.0054,0.1644,0.4582,-0.6941,0.3115,0.6609,-0.9128,0.3056,-0.3899,0.3075,-0.0232,0.6672,-0.9234,0.4384,-0.537,0.3373,0.4457,0.4932,-0.7002,0.0,0.0,0.0,0.0,0.0,0.0,0.0,0.0,0.0,
4.84,run,0.4,3.2,-0.37,-0.13,1.38,0.0,0.0,0.0,0.123,5.36,0.62,5.8,10.99,11.6,-12.66,10.72,-46.49,91.41,-0.79,11.78,-13.54,15.38,-54.58,93.6,15.64,2.29,5.54,5.71,0.2,6.04,10.87,11.24,-12.69,10.67,-46.56,91.11,-0.76,11.62,-13.59,15.38,-54.57,93.71,15.68,2.1,5.41,0.1632,0.4581,-0.6936,0.3106,0.6589,-0.914,0.3049,-0.3919,0.3072,-0.0216,0.6659,-0.9246,0.4395,-0.5376,0.3378,0.448,0.4928,-0.7011,0.006,0.013,0.006,0.0,0.0,0.0,0.0,0.0,0.0,0.0,0.006,0.0,0.0,0.0,0.0,0.0,0.0,0.006,0.0997,0.0,0.0982,0.1887,0.2025,-0.224,0.1902,-0.8145,1.5877,-0.0138,0.1994,-0.2378,0.2654,-0.9557,1.6291,0.273,0.0368,0.092,0.0142,-0.0,-0.0,0.0,-0.0,-0.0001,-0.0,-0.0,-0.0,-0.0,-0.0,-0.0,0.0,0.0,-0.0,0.0,-0.0,0.0,-0.0058,-0.0657,0.0032,-0.0006,-0.0118,0.1634,0.458,-0.6938,0.3106,0.6596,-0.9139,0.3049,-0.3918,0.307,-0.0219,0.6661,-0.9245,0.4393,-0.5377,0.3377,0.4478,0.4932,-0.7015,0.0,0.0,0.0,0.0,0.0,0.0,0.0,0.0,0.0,
4.88,run,0.42,3.21,0.34,0.24,-0.88,0.0,0.0,0.0,0.123,5.8,0.62,5.8,10.99,11.6,-12.66,10.72,-46.49,91.41,-0.79,11.78,-13.54,15.38,-54.58,93.6,15.64,2.29,5.54,5.75,0.21,6.01,10.9,11.36,-12.61,10.69,-46.46,91.17,-0.81,11.69,-13.49,15.35,-54.54,93.7,15.61,2.13,5.5,0.1644,0.4584,-0.694,0.3115,0.6611,-0.913,0.3056,-0.3901,0.3079,-0.0232,0.6671,-0.9234,0.4385,-0.5372,0.3376,0.4459,0.4933,-0.7,0.006,0.013,0.006,0.0,0.0,0.0,0.0,0.0,0.0,0.0,0.006,0.0,0.0,0.0,0.0,0.0,0.0,0.006,0.0905,0.0,0.0982,0.1887,0.2025,-0.224,0.1902,-0.8145,1.5877,-0.0138,0.1994,-0.2378,0.2654,-0.9557,1.6291,0.273,0.0368,0.092,-0.0245,-0.0,-0.0,0.0,-0.0,-0.0001,-0.0,-0.0,-0.0,-0.0,-0.0,-0.0,0.0,0.0,-0.0,0.0,-0.0,0.0,-0.0075,-0.0659,-0.0064,-0.0023,0.024,0.1632,0.4581,-0.6936,0.3106,0.6589,-0.914,0.3049,-0.3919,0.3072,-0.0216,0.6659,-0.9246,0.4395,-0.5376,0.3378,0.448,0.4928,-0.7011,0.0,0.0,0.0,0.0,0.0,0.0,0.0,0.0,0.0,
4.92,run,0.42,3.19,-0.18,-0.13,0.24,0.0,0.0,0.0,0.123,5.8,0.62,5.8,10.99,11.6,-12.66,10.72,-46.49,91.41,-0.79,11.78,-13.54,15.38,-54.58,93.6,15.64,2.29,5.54,5.71,0.19,6.07,10.86,11.25,-12.72,10.67,-46.59,91.1,-0.75,11.62,-13.6,15.39,-54.59,93.71,15.69,2.13,5.35,0.1631,0.458,-0.6933,0.3102,0.6591,-0.9144,0.3048,-0.3925,0.307,-0.0215,0.6658,-0.9247,0.4396,-0.5381,0.3377,0.4483,0.4932,-0.7017,0.006,0.013,0.0,0.0,0.006,0.0,0.0,0.0,0.0,0.0,0.0,0.0,0.006,0.0,0.0,0.0,0.0,0.0,0.0982,0.0,0.0982,0.1887,0.2025,-0.224,0.1902,-0.8145,1.5877,-0.0138,0.1994,-0.2378,0.2654,-0.9557,1.6291,0.273,0.0368,0.092,0.0116,-0.0,-0.0,0.0,-0.0,-0.0,-0.0,-0.0,-0.0,-0.0,-0.0,-0.0,0.0,0.0,-0.0,0.0,-0.0,0.0,-0.0058,-0.0648,0.006,0.0042,-0.0154,0.1644,0.4584,-0.694,0.3115,0.6611,-0.913,0.3056,-0.3901,0.3079,-0.0232,0.6671,-0.9234,0.4385,-0.5372,0.3376,0.4459,0.4933,-0.7,0.0,0.0,0.0,0.0,0.0,0.0,0.0,0.0,0.0,
4.96,run,0.41,3.2,-0.36,-0.0,1.03,0.0,0.0,0.0,0.123,5.27,0.62,5.8,10.99,11.6,-12.66,10.72,-46.49,91.41,-0.79,11.78,-13.54,15.38,-54.58,93.6,15.64,2.29,5.54,5.72,0.2,6.01,10.89,11.27,-12.64,10.68,-46.5,91.14,-0.77,11.65,-13.56,15.38,-54.52,93.75,15.66,2.1,5.47,0.1635,0.4582,-0.694,0.3111,0.6594,-0.9135,0.3052,-0.3909,0.3076,-0.0221,0.6663,-0.9243,0.4393,-0.5368,0.3382,0.4474,0.4927,-0.7004,0.006,0.013,0.0,0.0,0.006,0.0,0.0,0.0,0.0,0.0,0.0,0.0,0.006,0.0,0.0,0.0,0.0,0.0,0.0982,0.0,0.0982,0.1887,0.2025,-0.224,0.1902,-0.8145,1.5877,-0.0138,0.1994,-0.2378,0.2654,-0.9557,1.6291,0.273,0.0368,0.092,0.0081,-0.0,-0.0,0.0,-0.0,-0.0,-0.0,-0.0,-0.0,-0.0,-0.0,-0.0,0.0,0.0,-0.0,0.0,-0.0,0.0,-0.0056,-0.066,-0.0032,-0.0023,0.0042,0.1631,0.458,-0.6933,0.3102,0.6591,-0.9144,0.3048,-0.3925,0.307,-0.0215,0.6658,-0.9247,0.4396,-0.5381,0.3377,0.4483,0.4932,-0.7017,0.0,0.0,0.0,0.0,0.0,0.0,0.0,0.0,0.0,
