t_s,phase,roll_deg,pitch_deg,gyro_x_dps,gyro_y_dps,gyro_z_dps,height_ref_mm,vx_ref_mps,vy_ref_mps,max_cur_a,q0_deg,q1_deg,q2_deg,q3_deg,q4_deg,q5_deg,q6_deg,q7_deg,q8_deg,q9_deg,q10_deg,q11_deg,q12_deg,q13_deg,q14_deg,q15_deg,q16_deg,q17_deg,cmd0_deg,cmd1_deg,cmd2_deg,cmd3_deg,cmd4_deg,cmd5_deg,cmd6_deg,cmd7_deg,cmd8_deg,cmd9_deg,cmd10_deg,cmd11_deg,cmd12_deg,cmd13_deg,cmd14_deg,cmd15_deg,cmd16_deg,cmd17_deg,act0,act1,act2,act3,act4,act5,act6,act7,act8,act9,act10,act11,act12,act13,act14,act15,act16,act17,cur0_a,cur1_a,cur2_a,cur3_a,cur4_a,cur5_a,cur6_a,cur7_a,cur8_a,cur9_a,cur10_a,cur11_a,cur12_a,cur13_a,cur14_a,cur15_a,cur16_a,cur17_a,obs0,obs1,obs2,obs3,obs4,obs5,obs6,obs7,obs8,obs9,obs10,obs11,obs12,obs13,obs14,obs15,obs16,obs17,obs18,obs19,obs20,obs21,obs22,obs23,obs24,obs25,obs26,obs27,obs28,obs29,obs30,obs31,obs32,obs33,obs34,obs35,obs36,obs37,obs38,obs39,obs40,obs41,obs42,obs43,obs44,obs45,obs46,obs47,obs48,obs49,obs50,obs51,obs52,obs53,obs54,obs55,obs56,obs57,obs58,obs59,obs60,obs61,obs62,obs63,obs64,obs65,obs66,obs67,rot60_k
0.0,run,0.11,2.8,-0.4,-0.17,0.92,0.0,0.0,0.0,0.039,0.18,0.44,0.18,-0.26,-0.09,0.18,-0.18,0.09,0.44,0.09,0.44,0.09,0.09,0.35,0.18,0.0,0.26,0.18,-0.02,-1.06,1.68,1.24,-0.91,1.68,1.32,-1.41,1.94,-1.41,1.85,1.59,1.59,-1.32,1.68,1.5,-1.2,1.68,-0.0007,0.3328,-0.0828,0.1337,0.438,-0.3135,0.1654,-0.0802,-0.2011,-0.2258,0.5733,-0.0788,0.0706,-0.0261,-0.2536,0.4144,0.4328,-0.1741,0.006,0.013,0.0,0.006,0.013,0.0,0.0,0.013,0.006,0.019,0.0,0.006,0.013,0.039,0.013,0.013,0.006,0.006,-0.0046,0.0,0.0,0.0,0.0,0.0015,0.0,0.0,0.0,0.0,0.0015,0.0,0.0,0.0031,0.0,0.0,0.0,0.0,0.0131,0.0,0.0,0.0,0.0,0.0032,0.0,0.0,0.0,0.0,0.0038,0.0,0.0,0.0069,0.0,0.0,0.0,0.0,0.0,0.0,-0.0055,0.0027,0.0375,0.0,0.0,0.0,0.0,0.0,0.0,0.0,0.0,0.0,0.0,0.0,0.0,0.0,0.0,0.0,0.0,0.0,0.0,0.0,0.0,0.0,0.0,0.0,0.0,0.0,0.0,0.0,
0.04,run,0.11,2.81,-0.05,0.1,0.61,0.0,0.0,0.0,0.039,-0.18,0.44,0.26,-0.26,-0.09,0.44,-0.18,-0.18,0.53,-0.26,0.53,0.26,0.18,0.09,0.44,0.0,0.26,0.26,-0.44,0.44,3.18,2.74,0.59,3.18,2.82,-2.91,3.44,-2.17,3.35,3.09,3.09,-2.82,3.18,3.0,0.3,3.18,-0.0126,0.5478,-0.2827,0.1663,0.5628,-0.4391,0.179,0.1655,-0.1636,-0.0621,0.6188,-0.3971,0.1383,0.1349,-0.0202,0.3323,0.5761,-0.511,0.006,0.013,0.0,0.006,0.013,0.0,0.0,0.013,0.006,0.019,0.0,0.006,0.013,0.039,0.013,0.013,0.006,0.006,-0.0031,0.0,0.0,0.0,0.0,0.0,0.0,0.0,0.0,0.0,0.0015,0.0,0.0,0.0031,0.0,0.0,0.0,0.0,0.0117,0.0,0.0,0.0,0.0,-0.0003,0.0,0.0,0.0,0.0,0.0026,0.0,0.0,0.0049,0.0,0.0,0.0,0.0,-0.0037,-0.0005,-0.0071,-0.003,0.016,-0.0007,0.3328,-0.0828,0.1337,0.438,-0.3135,0.1654,-0.0802,-0.2011,-0.2258,0.5733,-0.0788,0.0706,-0.0261,-0.2536,0.4144,0.4328,-0.1741,0.0,0.0,0.0,0.0,0.0,0.0,0.0,0.0,0.0,
0.08,run,0.13,2.83,0.79,0.46,-0.6,0.0,0.0,0.0,0.039,0.18,0.09,0.79,0.26,-0.26,1.14,0.44,-0.88,1.05,-1.05,1.14,0.97,1.05,-0.7,1.23,1.14,-0.09,0.88,-0.26,1.94,4.68,4.24,2.09,4.68,4.32,-4.41,4.94,-0.67,4.85,4.59,4.59,-4.32,4.68,4.5,1.8,4.68,-0.0075,0.613,-0.3742,0.1936,0.6367,-0.4815,0.2033,0.175,-0.0799,-0.018,0.6353,-0.4557,0.1639,0.1714,-0.0641,0.2854,0.559,-0.507,0.006,0.013,0.0,0.006,0.013,0.0,0.0,0.013,0.006,0.019,0.0,0.006,0.013,0.039,0.013,0.013,0.006,0.006,-0.0092,0.0,0.0015,0.0,0.0,0.0046,0.0,-0.0046,0.0015,-0.0061,0.0031,0.0031,0.0015,-0.0015,0.0046,0.0,0.0,0.0015,-0.0154,0.0,0.0059,0.0,0.0,0.0175,0.0,-0.0177,0.0059,-0.0236,0.0077,0.0118,0.0059,-0.0143,0.0177,0.0,0.0,0.0059,-0.0039,0.0001,-0.0008,0.0018,0.0107,-0.0126,0.5478,-0.2827,0.1663,0.5628,-0.4391,0.179,0.1655,-0.1636,-0.0621,0.6188,-0.3971,0.1383,0.1349,-0.0202,0.3323,0.5761,-0.511,0.0,0.0,0.0,0.0,0.0,0.0,0.0,0.0,0.0,
0.12,run,0.11,2.82,-0.46,-0.39,0.29,0.0,0.0,0.0,0.045,-0.79,-0.26,1.67,1.14,-0.26,2.2,1.32,-1.58,1.58,-1.76,2.02,2.11,1.93,-1.49,2.29,2.11,-0.35,1.67,-0.53,3.44,6.18,5.74,3.59,6.18,5.82,-5.91,6.44,0.16,6.35,6.09,5.07,-5.82,6.18,6.0,3.3,6.18,-0.0152,0.5865,-0.3806,0.1714,0.6251,-0.4952,0.1917,0.1773,-0.1172,0.0045,0.6234,-0.4776,0.1449,0.187,-0.1428,0.2722,0.5763,-0.5444,0.006,0.006,0.013,0.019,0.0,0.019,0.013,0.045,0.039,0.006,0.006,0.013,0.013,0.039,0.013,0.019,0.0,0.013,-0.0031,-0.0061,0.0107,0.0092,-0.0031,0.0169,0.0107,-0.0169,0.0107,-0.0199,0.0138,0.0153,0.0169,-0.0153,0.0184,0.0199,-0.0061,0.0123,0.0121,-0.0229,0.0385,0.0343,-0.0114,0.058,0.04,-0.0582,0.0385,-0.068,0.0455,0.054,0.0613,-0.0615,0.0639,0.0744,-0.0229,0.0442,-0.0024,0.0018,0.0137,0.0081,-0.0105,-0.0075,0.613,-0.3742,0.1936,0.6367,-0.4815,0.2033,0.175,-0.0799,-0.018,0.6353,-0.4557,0.1639,0.1714,-0.0641,0.2854,0.559,-0.507,0.0,0.0,0.0,0.0,0.0,0.0,0.0,0.0,0.0,
0.16,run,0.07,2.86,-0.39,0.71,2.99,0.0,0.0,0.0,0.045,-0.53,-0.18,2.81,2.2,-0.09,3.43,2.37,-2.81,2.55,-2.02,3.08,3.25,3.16,-2.72,3.43,2.99,-0.35,2.81,-1.13,4.94,7.68,5.64,5.09,7.68,5.89,-7.41,7.94,0.23,7.14,7.59,3.7,-7.32,7.68,7.5,4.8,7.68,-0.0323,0.5501,-0.4055,0.1612,0.5806,-0.5058,0.1683,0.2043,-0.206,0.0065,0.5843,-0.4948,0.1056,0.2107,-0.2722,0.2685,0.5741,-0.6011,0.006,0.006,0.013,0.019,0.0,0.019,0.013,0.045,0.039,0.006,0.006,0.013,0.013,0.039,0.013,0.019,0.0,0.013,-0.0199,-0.0123,0.0261,0.0245,-0.0031,0.0353,0.0261,-0.0291,0.0199,-0.0322,0.0291,0.0353,0.0322,-0.0291,0.0368,0.0368,-0.0107,0.0261,-0.0549,-0.039,0.0845,0.0816,-0.008,0.1097,0.0856,-0.0868,0.0615,-0.0937,0.0894,0.1127,0.1005,-0.0949,0.1138,0.1154,-0.0333,0.0827,-0.0044,0.0013,-0.008,-0.0069,0.0051,-0.0152,0.5865,-0.3806,0.1714,0.6251,-0.4952,0.1917,0.1773,-0.1172,0.0045,0.6234,-0.4776,0.1449,0.187,-0.1428,0.2722,0.5763,-0.5444,0.0,0.0,0.0,0.0,0.0,0.0,0.0,0.0,0.0,
0.2,run,0.05,2.81,-0.44,-1.26,-3.75,0.0,0.0,0.0,0.045,-0.53,0.0,4.04,3.34,0.53,4.66,3.52,-4.13,4.04,-2.02,4.31,4.57,4.04,-4.04,4.75,4.75,-0.09,3.96,-2.15,3.44,9.18,5.53,3.7,9.18,4.76,-8.91,9.44,0.1,5.64,9.09,2.2,-8.82,9.18,9.0,5.57,8.83,-0.0614,0.5145,-0.4258,0.158,0.5218,-0.5109,0.1361,0.2559,-0.3288,0.0028,0.5243,-0.4979,0.0495,0.2585,-0.4471,0.2621,0.5558,-0.6608,0.006,0.006,0.013,0.019,0.0,0.019,0.013,0.045,0.039,0.006,0.006,0.013,0.013,0.039,0.013,0.019,0.0,0.013,-0.0153,-0.0107,0.046,0.043,0.0,0.0568,0.0445,-0.0506,0.0368,-0.0368,0.0476,0.0552,0.0537,-0.0506,0.0568,0.0522,-0.0107,0.046,-0.0211,-0.0216,0.1343,0.1265,0.006,0.1578,0.1293,-0.1417,0.1066,-0.0829,0.132,0.1541,0.1513,-0.1474,0.1548,0.1386,-0.0233,0.1331,-0.0079,0.0049,-0.0068,0.0123,0.0521,-0.0323,0.5501,-0.4055,0.1612,0.5806,-0.5058,0.1683,0.2043,-0.206,0.0065,0.5843,-0.4948,0.1056,0.2107,-0.2722,0.2685,0.5741,-0.6011,0.0,0.0,0.0,0.0,0.0,0.0,0.0,0.0,0.0,
0.24,run,0.04,2.82,-0.22,0.19,2.44,0.0,0.0,0.0,0.045,-1.58,0.88,5.36,4.31,1.58,5.98,4.48,-5.54,5.36,-1.49,5.36,5.98,4.66,-5.36,6.15,5.62,0.7,5.36,-2.76,2.09,10.68,5.77,2.2,10.68,3.97,-8.29,10.94,-0.52,4.14,10.59,0.7,-9.16,10.68,9.49,4.36,7.33,-0.0787,0.4926,-0.4611,0.165,0.448,-0.5193,0.1133,0.3038,-0.4368,-0.0148,0.4626,-0.5222,0.0109,0.288,-0.5804,0.2713,0.5337,-0.7211,0.0,0.0,0.006,0.013,0.006,0.013,0.013,0.026,0.013,0.0,0.0,0.006,0.006,0.026,0.0,0.019,0.013,0.013,-0.0153,-0.0077,0.0675,0.0629,0.0107,0.0782,0.0644,-0.0736,0.0629,-0.0368,0.069,0.0782,0.069,-0.0736,0.0798,0.0828,-0.0061,0.066,-0.0147,-0.0037,0.1739,0.1627,0.0441,0.1903,0.1647,-0.1848,0.1716,-0.058,0.1722,0.1934,0.163,-0.1887,0.1939,0.2111,0.0008,0.1673,-0.0094,-0.0,-0.0077,-0.022,-0.0654,-0.0614,0.5145,-0.4258,0.158,0.5218,-0.5109,0.1361,0.2559,-0.3288,0.0028,0.5243,-0.4979,0.0495,0.2585,-0.4471,0.2621,0.5558,-0.6608,0.0,0.0,0.0,0.0,0.0,0.0,0.0,0.0,0.0,
0.28,run,0.09,2.82,0.79,0.23,-1.2,0.0,0.0,0.0,0.045,-1.58,1.85,6.77,4.92,2.37,7.47,5.1,-6.77,6.77,-0.44,6.24,7.29,4.92,-6.68,7.56,7.21,1.85,6.59,-3.0,0.59,12.18,5.98,0.7,12.18,3.86,-7.14,12.44,-0.54,2.64,12.09,-0.29,-8.75,11.43,9.89,2.86,5.83,-0.0858,0.4484,-0.5012,0.1708,0.394,-0.5267,0.1104,0.3248,-0.4977,-0.0153,0.3991,-0.5287,-0.0082,0.2954,-0.6303,0.2826,0.4873,-0.7622,0.0,0.0,0.006,0.013,0.006,0.013,0.013,0.026,0.013,0.0,0.0,0.006,0.006,0.026,0.0,0.019,0.013,0.013,-0.0337,0.0077,0.0905,0.0798,0.0291,0.1012,0.0813,-0.0982,0.0859,-0.0276,0.0874,0.1028,0.0798,-0.0966,0.1043,0.0982,0.0077,0.0905,-0.0796,0.0551,0.2083,0.1774,0.1001,0.2198,0.1788,-0.2217,0.2067,-0.006,0.1898,0.2277,0.1545,-0.2187,0.2281,0.2055,0.0525,0.2095,-0.0102,0.0016,-0.0039,0.0033,0.0425,-0.0787,0.4926,-0.4611,0.165,0.448,-0.5193,0.1133,0.3038,-0.4368,-0.0148,0.4626,-0.5222,0.0109,0.288,-0.5804,0.2713,0.5337,-0.7211,0.0,0.0,0.0,0.0,0.0,0.0,0.0,0.0,0.0,
0.32,run,0.09,2.79,-0.15,-0.71,-2.61,0.0,0.0,0.0,0.045,-2.55,2.55,8.09,5.36,3.08,8.79,5.54,-7.65,8.09,-0.53,6.77,8.7,4.92,-7.73,8.88,8.35,2.9,7.56,-3.2,-0.91,13.68,5.39,-0.8,13.68,4.17,-8.12,13.94,-0.12,1.14,13.59,-0.22,-10.18,10.46,10.78,1.36,4.33,-0.0914,0.3834,-0.5342,0.1541,0.3195,-0.5301,0.1192,0.307,-0.5288,-0.0034,0.3293,-0.5447,-0.0062,0.2694,-0.6417,0.3079,0.4368,-0.7989,0.0,0.0,0.006,0.013,0.006,0.013,0.013,0.026,0.013,0.0,0.0,0.006,0.006,0.026,0.0,0.019,0.013,0.013,-0.0337,0.0245,0.115,0.0905,0.043,0.1273,0.092,-0.1197,0.1104,-0.0092,0.1028,0.1258,0.0844,-0.1197,0.1289,0.1258,0.0276,0.112,-0.0557,0.1021,0.2382,0.1646,0.122,0.252,0.1655,-0.236,0.237,0.0651,0.1906,0.246,0.1255,-0.2397,0.252,0.2477,0.1118,0.2274,-0.0054,0.0015,0.0139,0.0041,-0.0209,-0.0858,0.4484,-0.5012,0.1708,0.394,-0.5267,0.1104,0.3248,-0.4977,-0.0153,0.3991,-0.5287,-0.0082,0.2954,-0.6303,0.2826,0.4873,-0.7622,0.0,0.0,0.0,0.0,0.0,0.0,0.0,0.0,0.0,
0.36,run,0.01,2.79,-0.77,-0.03,4.98,0.0,0.0,0.0,0.045,-3.34,3.08,9.58,5.45,3.43,10.2,5.54,-8.26,9.49,-0.44,6.86,10.2,4.22,-8.53,10.02,8.88,3.52,8.17,-3.3,-2.41,15.18,4.63,-2.3,15.18,4.62,-9.62,15.44,0.14,-0.36,15.09,-0.01,-11.68,11.46,11.89,-0.14,2.83,-0.0942,0.3049,-0.5546,0.1323,0.2395,-0.5258,0.1319,0.2781,-0.5434,0.004,0.263,-0.5437,-0.0004,0.2279,-0.6299,0.3397,0.3858,-0.817,0.006,0.006,0.006,0.0,0.0,0.013,0.013,0.019,0.019,0.006,0.0,0.006,0.013,0.033,0.006,0.006,0.006,0.006,-0.0506,0.0368,0.1381,0.0982,0.0552,0.1503,0.0997,-0.135,0.1335,-0.0107,0.112,0.1503,0.0844,-0.1381,0.1519,0.1457,0.046,0.1289,-0.102,0.1173,0.2527,0.1439,0.1313,0.2623,0.1445,-0.2225,0.2519,0.0398,0.1678,0.2639,0.0878,-0.2365,0.2624,0.2479,0.147,0.2222,-0.0057,-0.0016,-0.0027,-0.0123,-0.0455,-0.0914,0.3834,-0.5342,0.1541,0.3195,-0.5301,0.1192,0.307,-0.5288,-0.0034,0.3293,-0.5447,-0.0062,0.2694,-0.6417,0.3079,0.4368,-0.7989,0.0,0.0,0.0,0.0,0.0,0.0,0.0,0.0,0.0,
0.4,run,0.08,2.8,0.37,0.13,-1.01,0.0,0.0,0.0,0.045,-2.9,3.16,10.9,5.45,3.43,11.6,5.54,-8.79,10.9,0.0,6.86,11.6,3.25,-9.49,10.72,10.63,4.04,8.53,-3.43,-3.91,16.68,4.34,-3.8,16.68,5.03,-11.12,16.94,0.28,-1.86,16.59,0.32,-13.18,12.96,12.78,-1.64,1.33,-0.0979,0.2332,-0.5655,0.124,0.1843,-0.5244,0.1438,0.2512,-0.5499,0.0081,0.2147,-0.5309,0.0092,0.1861,-0.6053,0.3653,0.3413,-0.8232,0.006,0.006,0.006,0.0,0.0,0.013,0.013,0.019,0.019,0.006,0.0,0.006,0.013,0.033,0.006,0.006,0.006,0.006,-0.0644,0.046,0.1641,0.0997,0.0614,0.1749,0.0997,-0.1457,0.158,-0.0092,0.1135,0.1764,0.0721,-0.1519,0.1718,0.1549,0.0568,0.1396,-0.1232,0.1166,0.2747,0.1065,0.1149,0.2757,0.1012,-0.196,0.2684,0.0336,0.1232,0.2825,0.0154,-0.2174,0.2585,0.2081,0.1432,0.1959,-0.0125,-0.0016,-0.0134,-0.0005,0.0869,-0.0942,0.3049,-0.5546,0.1323,0.2395,-0.5258,0.1319,0.2781,-0.5434,0.004,0.263,-0.5437,-0.0004,0.2279,-0.6299,0.3397,0.3858,-0.817,0.0,0.0,0.0,0.0,0.0,0.0,0.0,0.0,0.0,
0.44,run,0.05,2.86,-0.14,-0.3,-0.75,0.0,0.0,0.0,0.045,-3.6,3.16,12.3,5.36,3.25,13.01,5.1,-9.32,12.39,0.44,6.33,12.92,2.29,-10.63,11.34,10.9,4.13,8.53,-3.51,-5.41,17.33,3.6,-5.3,18.18,5.48,-12.62,17.81,0.69,-3.36,18.09,0.78,-14.68,13.95,13.55,-3.14,-0.17,-0.1003,0.172,-0.5608,0.1028,0.1199,-0.5216,0.1565,0.2059,-0.5552,0.0198,0.1766,-0.53,0.0224,0.1382,-0.6006,0.3872,0.3188,-0.8421,0.006,0.006,0.006,0.0,0.0,0.013,0.013,0.019,0.019,0.006,0.0,0.006,0.013,0.033,0.006,0.006,0.006,0.006,-0.0568,0.0476,0.1871,0.0997,0.0614,0.1994,0.0997,-0.1549,0.1825,-0.0015,0.1135,0.201,0.0552,-0.1687,0.1841,0.1856,0.066,0.1457,-0.0573,0.0874,0.279,0.0745,0.0804,0.2855,0.0708,-0.1719,0.2804,0.0524,0.0863,0.2903,-0.0528,-0.2158,0.2272,0.2613,0.1349,0.1602,-0.0065,-0.0002,0.0065,0.0022,-0.0175,-0.0979,0.2332,-0.5655,0.124,0.1843,-0.5244,0.1438,0.2512,-0.5499,0.0081,0.2147,-0.5309,0.0092,0.1861,-0.6053,0.3653,0.3413,-0.8232,0.0,0.0,0.0,0.0,0.0,0.0,0.0,0.0,0.0,
0.48,run,0.02,2.85,0.02,0.52,3.15,0.0,0.0,0.0,0.045,-3.6,2.55,13.89,4.75,2.46,14.5,5.01,-10.2,13.71,0.53,5.36,14.41,1.23,-11.78,12.3,12.13,3.96,8.26,-3.64,-6.91,18.83,3.1,-6.8,19.68,5.94,-14.12,18.35,0.95,-4.86,19.59,1.25,-16.18,15.45,14.07,-4.64,-1.67,-0.1039,0.1186,-0.5402,0.0884,0.0856,-0.5234,0.1696,0.1745,-0.5488,0.0272,0.1548,-0.5188,0.0358,0.104,-0.5825,0.4021,0.3081,-0.841,0.0,0.026,0.006,0.0,0.019,0.006,0.006,0.033,0.019,0.013,0.026,0.006,0.0,0.039,0.006,0.0,0.019,0.013,-0.069,0.0476,0.2117,0.0982,0.0583,0.224,0.092,-0.1641,0.2086,0.0061,0.1043,0.224,0.0383,-0.1887,0.1948,0.1902,0.0675,0.1457,-0.0859,0.0612,0.2869,0.0464,0.0449,0.2914,0.021,-0.1547,0.2936,0.0653,0.026,0.289,-0.0999,-0.2254,0.1991,0.2001,0.1002,0.1122,-0.0092,0.0049,-0.0024,-0.0053,-0.013,-0.1003,0.172,-0.5608,0.1028,0.1199,-0.5216,0.1565,0.2059,-0.5552,0.0198,0.1766,-0.53,0.0224,0.1382,-0.6006,0.3872,0.3188,-0.8421,0.0,0.0,0.0,0.0,0.0,0.0,0.0,0.0,0.0,
0.52,run,-0.01,2.83,-0.55,-0.65,-1.81,0.0,0.0,0.0,0.045,-3.25,1.49,15.03,3.43,1.41,15.82,5.01,-11.25,15.12,0.44,4.22,15.82,0.7,-13.1,13.45,13.1,3.34,7.38,-3.75,-8.41,20.33,2.83,-8.3,20.23,6.38,-15.62,18.88,1.21,-6.36,21.09,1.71,-17.68,16.02,14.48,-6.14,-3.17,-0.1071,0.0839,-0.5234,0.0809,0.0657,-0.5267,0.1821,0.1512,-0.5426,0.0345,0.1524,-0.5153,0.0488,0.0766,-0.5762,0.4138,0.3135,-0.8437,0.0,0.026,0.006,0.0,0.019,0.006,0.006,0.033,0.019,0.013,0.026,0.006,0.0,0.039,0.006,0.0,0.019,0.013,-0.069,0.0368,0.2393,0.0874,0.0445,0.25,0.0905,-0.1795,0.2316,0.0077,0.0874,0.25,0.0199,-0.2086,0.2117,0.2117,0.0644,0.1411,-0.0601,0.0027,0.3041,-0.0077,-0.0203,0.3016,0.0089,-0.1657,0.2916,0.0515,-0.0449,0.2999,-0.1388,-0.2324,0.2025,0.2204,0.0586,0.0613,-0.0117,0.004,0.0003,0.0091,0.0549,-0.1039,0.1186,-0.5402,0.0884,0.0856,-0.5234,0.1696,0.1745,-0.5488,0.0272,0.1548,-0.5188,0.0358,0.104,-0.5825,0.4021,0.3081,-0.841,0.0,0.0,0.0,0.0,0.0,0.0,0.0,0.0,0.0,
0.56,run,-0.01,2.85,-0.39,-0.09,0.93,0.0,0.0,0.0,0.045,-4.04,0.26,16.44,3.25,0.09,17.31,5.45,-12.48,16.26,1.41,2.81,17.14,0.44,-14.41,14.5,13.62,2.37,6.24,-3.87,-9.91,21.83,2.24,-9.8,19.92,7.01,-17.12,20.38,1.76,-7.86,20.46,2.38,-19.18,17.13,15.08,-6.68,-4.67,-0.1106,0.0581,-0.4965,0.0639,0.0435,-0.5304,0.2003,0.1263,-0.5246,0.0503,0.1549,-0.524,0.0679,0.0524,-0.5632,0.4309,0.3331,-0.8484,0.0,0.026,0.006,0.0,0.019,0.006,0.006,0.033,0.019,0.013,0.026,0.006,0.0,0.039,0.006,0.0,0.019,0.013,-0.0629,0.0184,0.2592,0.0644,0.0261,0.273,0.0905,-0.1979,0.2562,0.0061,0.0675,0.2746,0.0107,-0.2316,0.2316,0.2286,0.0537,0.1258,-0.0189,-0.0677,0.2883,-0.0923,-0.0837,0.2981,0.0063,-0.1855,0.2969,0.0302,-0.1068,0.3027,-0.132,-0.2497,0.2171,0.2181,0.0005,-0.0151,-0.0143,0.0018,-0.0096,-0.0114,-0.0315,-0.1071,0.0839,-0.5234,0.0809,0.0657,-0.5267,0.1821,0.1512,-0.5426,0.0345,0.1524,-0.5153,0.0488,0.0766,-0.5762,0.4138,0.3135,-0.8437,0.0,0.0,0.0,0.0,0.0,0.0,0.0,0.0,0.0,
0.6,run,-0.01,2.89,0.65,0.45,-0.24,0.0,0.0,0.0,0.045,-3.96,-1.14,17.75,3.16,-1.23,18.54,6.15,-13.89,17.31,1.41,1.41,18.54,0.44,-15.73,15.56,14.41,1.23,4.92,-3.8,-11.41,23.33,1.77,-11.3,18.78,7.61,-18.62,21.58,2.14,-9.36,20.22,3.01,-20.68,18.56,15.43,-5.85,-6.17,-0.1085,0.0346,-0.4722,0.0504,0.0387,-0.5438,0.2174,0.1117,-0.5108,0.061,0.1605,-0.5268,0.086,0.0345,-0.5463,0.4409,0.3482,-0.8501,0.006,0.026,0.013,0.013,0.026,0.006,0.006,0.033,0.026,0.013,0.019,0.0,0.013,0.033,0.006,0.013,0.033,0.013,-0.0767,-0.0031,0.2838,0.0614,0.0031,0.2991,0.0982,-0.2194,0.2761,0.023,0.043,0.2976,0.0061,-0.2546,0.25,0.2378,0.0368,0.1058,-0.0647,-0.1275,0.2933,-0.0761,-0.1445,0.3059,0.033,-0.21,0.2822,0.0841,-0.1663,0.2977,-0.1095,-0.2606,0.2207,0.187,-0.0626,-0.0849,-0.0149,0.0038,-0.0068,-0.0015,0.0163,-0.1106,0.0581,-0.4965,0.0639,0.0435,-0.5304,0.2003,0.1263,-0.5246,0.0503,0.1549,-0.524,0.0679,0.0524,-0.5632,0.4309,0.3331,-0.8484,0.0,0.0,0.0,0.0,0.0,0.0,0.0,0.0,0.0,
0.64,run,-0.05,2.88,-0.16,0.37,0.75,0.0,0.0,0.0,0.045,-3.52,-2.46,19.25,2.55,-2.64,19.34,6.68,-15.21,18.54,1.67,0.0,19.51,1.23,-17.14,16.61,15.03,-0.18,3.52,-3.67,-12.91,24.83,0.98,-12.8,17.9,8.0,-19.95,22.74,2.73,-10.86,19.51,3.58,-22.18,18.85,15.86,-4.54,-7.53,-0.1048,0.0143,-0.4465,0.028,0.0294,-0.5542,0.2286,0.0918,-0.4971,0.078,0.1673,-0.5351,0.1022,0.0164,-0.5429,0.4531,0.3719,-0.8533,0.006,0.026,0.013,0.013,0.026,0.006,0.006,0.033,0.026,0.013,0.019,0.0,0.013,0.033,0.006,0.013,0.033,0.013,-0.0752,-0.0276,0.3068,0.0598,-0.0199,0.3206,0.1104,-0.2439,0.2945,0.023,0.0184,0.3221,0.0061,-0.2777,0.2684,0.2516,0.0169,0.0828,-0.0396,-0.1808,0.2912,-0.059,-0.187,0.2943,0.0689,-0.2386,0.2662,0.0589,-0.208,0.3,-0.0767,-0.2682,0.2231,0.1824,-0.1182,-0.1453,-0.0142,0.0075,0.0113,0.0078,-0.0042,-0.1085,0.0346,-0.4722,0.0504,0.0387,-0.5438,0.2174,0.1117,-0.5108,0.061,0.1605,-0.5268,0.086,0.0345,-0.5463,0.4409,0.3482,-0.8501,0.0,0.0,0.0,0.0,0.0,0.0,0.0,0.0,0.0,
0.68,run,-0.07,2.87,-0.53,-0.76,-1.32,0.0,0.0,0.0,0.045,-4.13,-3.96,20.65,1.49,-4.13,19.95,7.21,-16.61,19.69,2.29,-1.41,20.21,2.02,-18.54,17.67,15.47,-1.58,2.11,-3.58,-14.41,26.33,0.3,-14.3,16.98,8.52,-20.94,24.09,3.39,-12.36,18.87,4.16,-23.68,20.14,16.32,-3.34,-7.53,-0.1024,-0.0001,-0.4186,0.0087,0.025,-0.565,0.2435,0.0738,-0.4813,0.0968,0.1779,-0.5428,0.1189,-0.0001,-0.5278,0.4663,0.3938,-0.8533,0.006,0.026,0.013,0.013,0.026,0.006,0.006,0.033,0.026,0.013,0.019,0.0,0.013,0.033,0.006,0.013,0.033,0.013,-0.0675,-0.0506,0.3329,0.0491,-0.0445,0.3344,0.1197,-0.2669,0.316,0.0276,-0.0061,0.339,0.0199,-0.3022,0.2869,0.2623,-0.0077,0.0583,0.0014,-0.2141,0.303,-0.0821,-0.2242,0.2585,0.0832,-0.2545,0.268,0.0587,-0.2389,0.2741,-0.0012,-0.2811,0.2262,0.1685,-0.1761,-0.195,-0.0176,0.006,-0.0028,0.0065,0.0131,-0.1048,0.0143,-0.4465,0.028,0.0294,-0.5542,0.2286,0.0918,-0.4971,0.078,0.1673,-0.5351,0.1022,0.0164,-0.5429,0.4531,0.3719,-0.8533,0.0,0.0,0.0,0.0,0.0,0.0,0.0,0.0,0.0,
0.72,run,-0.04,2.86,0.41,0.88,0.55,0.0,0.0,0.0,0.045,-3.43,-5.36,21.97,1.41,-5.54,20.04,7.73,-17.93,20.83,2.29,-2.81,20.57,2.99,-19.86,18.54,15.91,-2.72,0.7,-3.4,-15.91,27.83,-0.41,-15.8,16.41,9.14,-22.25,25.59,4.09,-13.86,18.16,4.8,-25.18,21.64,16.66,-1.98,-8.07,-0.0972,-0.0153,-0.3912,-0.0116,0.022,-0.5717,0.2612,0.05,-0.4607,0.1168,0.1876,-0.551,0.1371,-0.0234,-0.5043,0.4761,0.4186,-0.8597,0.013,0.019,0.019,0.026,0.026,0.006,0.006,0.033,0.019,0.019,0.026,0.006,0.006,0.026,0.006,0.006,0.019,0.013,-0.0782,-0.0767,0.3574,0.0307,-0.0706,0.3451,0.1289,-0.2915,0.3359,0.0383,-0.0307,0.3513,0.0337,-0.3267,0.3053,0.27,-0.0322,0.0337,-0.0389,-0.2469,0.3034,-0.126,-0.254,0.2209,0.0925,-0.2695,0.2618,0.0811,-0.2586,0.2376,0.0505,-0.2881,0.2268,0.1465,-0.2146,-0.2278,-0.0199,0.0054,-0.0093,-0.0133,-0.023,-0.1024,-0.0001,-0.4186,0.0087,0.025,-0.565,0.2435,0.0738,-0.4813,0.0968,0.1779,-0.5428,0.1189,-0.0001,-0.5278,0.4663,0.3938,-0.8533,0.0,0.0,0.0,0.0,0.0,0.0,0.0,0.0,0.0,
0.76,run,-0.02,2.84,-0.05,-0.38,-1.69,0.0,0.0,0.0,0.045,-3.25,-6.77,23.47,1.14,-6.94,20.04,8.26,-19.34,22.15,3.52,-4.39,20.57,3.78,-21.36,19.69,16.44,-3.69,-0.79,-3.25,-17.41,29.33,-1.25,-17.3,15.77,9.43,-23.62,27.09,4.78,-13.96,17.9,5.3,-26.68,23.04,16.95,-0.75,-7.96,-0.0929,-0.0306,-0.3647,-0.0356,0.0274,-0.5792,0.2693,0.0252,-0.4453,0.1365,0.2007,-0.5541,0.1513,-0.0427,-0.4937,0.4843,0.4409,-0.8583,0.013,0.019,0.019,0.026,0.026,0.006,0.006,0.033,0.019,0.019,0.026,0.006,0.006,0.026,0.006,0.006,0.019,0.013,-0.066,-0.1012,0.3804,0.0291,-0.0951,0.3467,0.1381,-0.3145,0.3559,0.0383,-0.0552,0.3574,0.0506,-0.3497,0.3206,0.2777,-0.0522,0.0092,0.0189,-0.2652,0.299,-0.094,-0.2701,0.1604,0.0994,-0.2752,0.2583,0.0567,-0.2733,0.1894,0.0989,-0.2882,0.2165,0.1314,-0.2252,-0.2518,-0.0175,0.005,0.0071,0.0154,0.0096,-0.0972,-0.0153,-0.3912,-0.0116,0.022,-0.5717,0.2612,0.05,-0.4607,0.1168,0.1876,-0.551,0.1371,-0.0234,-0.5043,0.4761,0.4186,-0.8597,0.0,0.0,0.0,0.0,0.0,0.0,0.0,0.0,0.0,
0.8,run,-0.03,2.85,-0.18,-0.08,0.92,0.0,0.0,0.0,0.045,-3.69,-8.26,24.87,-0.18,-8.44,19.16,8.79,-20.48,23.38,3.87,-5.8,20.04,4.48,-22.76,20.74,16.61,-4.31,-2.2,-3.08,-18.91,30.83,-2.09,-18.8,15.07,9.85,-25.12,28.59,5.66,-13.72,17.36,5.88,-28.18,24.54,17.17,0.18,-8.88,-0.0879,-0.0446,-0.3399,-0.0597,0.0282,-0.5874,0.2815,-0.0041,-0.4228,0.1617,0.205,-0.5605,0.1679,-0.0695,-0.471,0.4907,0.4579,-0.8691,0.013,0.019,0.019,0.026,0.026,0.006,0.006,0.033,0.019,0.019,0.026,0.006,0.006,0.026,0.006,0.006,0.019,0.013,-0.0629,-0.1258,0.4065,0.0245,-0.1197,0.3467,0.1473,-0.339,0.3789,0.0598,-0.0828,0.3574,0.0644,-0.3758,0.3405,0.2869,-0.069,-0.0169,0.0242,-0.2729,0.3021,-0.0821,-0.2764,0.1123,0.1023,-0.28,0.2627,0.1161,-0.2896,0.1326,0.1183,-0.2946,0.2225,0.1247,-0.2177,-0.2691,-0.0156,0.0026,-0.0008,-0.0066,-0.0295,-0.0929,-0.0306,-0.3647,-0.0356,0.0274,-0.5792,0.2693,0.0252,-0.4453,0.1365,0.2007,-0.5541,0.1513,-0.0427,-0.4937,0.4843,0.4409,-0.8583,0.0,0.0,0.0,0.0,0.0,0.0,0.0,0.0,0.0,
0.84,run,-0.01,2.86,0.34,0.88,2.25,0.0,0.0,0.0,0.045,-3.08,-9.67,26.28,-0.88,-9.84,18.19,9.23,-21.88,24.61,4.57,-7.21,19.07,5.19,-24.08,21.88,16.96,-4.66,-3.69,-2.87,-20.41,32.33,-2.78,-20.3,14.99,10.34,-26.62,30.09,6.29,-13.05,17.26,6.31,-29.68,26.04,17.4,1.41,-8.97,-0.0821,-0.059,-0.3144,-0.0793,0.0402,-0.5883,0.2955,-0.0365,-0.3996,0.1796,0.2172,-0.5617,0.1803,-0.0983,-0.4419,0.4971,0.4802,-0.8702,0.013,0.019,0.013,0.013,0.026,0.019,0.006,0.033,0.026,0.0,0.026,0.006,0.006,0.026,0.006,0.0,0.0,0.013,-0.0706,-0.1519,0.431,0.0015,-0.1457,0.3313,0.1565,-0.359,0.4004,0.066,-0.1074,0.3482,0.0767,-0.4004,0.359,0.2899,-0.0798,-0.0414,-0.0115,-0.2878,0.3025,-0.1428,-0.2902,0.0217,0.1057,-0.2699,0.2635,0.104,-0.2937,0.0587,0.1283,-0.2972,0.224,0.0987,-0.1922,-0.2794,-0.0161,0.0034,-0.0032,-0.0014,0.016,-0.0879,-0.0446,-0.3399,-0.0597,0.0282,-0.5874,0.2815,-0.0041,-0.4228,0.1617,0.205,-0.5605,0.1679,-0.0695,-0.471,0.4907,0.4579,-0.8691,0.0,0.0,0.0,0.0,0.0,0.0,0.0,0.0,0.0,
0.88,run,-0.03,2.83,-0.07,-0.84,-3.63,0.0,0.0,0.0,0.045,-2.72,-11.16,27.77,-1.05,-11.34,16.96,9.67,-23.29,26.02,5.54,-8.7,18.19,5.8,-25.66,23.38,17.23,-4.66,-5.1,-2.71,-21.91,33.83,-3.58,-21.8,14.51,10.67,-28.12,31.59,7.03,-12.52,16.91,6.78,-31.18,27.54,17.6,2.38,-9.63,-0.0774,-0.0703,-0.2933,-0.1022,0.0528,-0.594,0.305,-0.0712,-0.3742,0.2009,0.2268,-0.5658,0.1937,-0.1255,-0.4151,0.5029,0.4977,-0.878,0.013,0.019,0.013,0.013,0.026,0.019,0.006,0.033,0.026,0.0,0.026,0.006,0.006,0.026,0.006,0.0,0.0,0.013,-0.0598,-0.1764,0.4556,-0.0107,-0.1703,0.3145,0.1641,-0.3835,0.4218,0.0782,-0.1319,0.3313,0.089,-0.4234,0.3789,0.2961,-0.0859,-0.0675,0.0323,-0.2937,0.304,-0.1461,-0.2954,-0.0482,0.1028,-0.2812,0.2652,0.1189,-0.2978,-0.0223,0.136,-0.2945,0.2317,0.0921,-0.1576,-0.2936,-0.0147,0.0045,0.0059,0.0154,0.0392,-0.0821,-0.059,-0.3144,-0.0793,0.0402,-0.5883,0.2955,-0.0365,-0.3996,0.1796,0.2172,-0.5617,0.1803,-0.0983,-0.4419,0.4971,0.4802,-0.8702,0.0,0.0,0.0,0.0,0.0,0.0,0.0,0.0,0.0,
0.92,run,-0.05,2.84,-0.07,0.37,2.05,0.0,0.0,0.0,0.045,-2.81,-12.57,29.18,-2.11,-12.74,15.91,10.02,-24.61,27.33,6.06,-10.02,17.49,6.24,-27.07,24.61,17.23,-4.31,-6.42,-2.41,-23.41,35.33,-4.5,-21.74,14.05,11.03,-29.62,33.09,7.89,-12.45,16.34,7.32,-32.68,29.04,17.79,3.28,-10.36,-0.069,-0.0803,-0.2726,-0.1286,0.0592,-0.5994,0.3151,-0.109,-0.3377,0.2254,0.2282,-0.5724,0.209,-0.1567,-0.3857,0.5083,0.5142,-0.8866,0.013,0.019,0.013,0.013,0.026,0.019,0.006,0.033,0.026,0.0,0.026,0.006,0.006,0.026,0.006,0.0,0.0,0.013,-0.0537,-0.2025,0.4817,-0.0138,-0.1963,0.293,0.1718,-0.408,0.4464,0.0951,-0.158,0.316,0.0997,-0.451,0.405,0.3007,-0.0859,-0.092,0.0447,-0.2996,0.3068,-0.1133,-0.3008,-0.1112,0.0996,-0.2853,0.2741,0.1441,-0.3025,-0.0709,0.1339,-0.3057,0.2562,0.0811,-0.1103,-0.294,-0.0163,0.0024,-0.0012,-0.0146,-0.0634,-0.0774,-0.0703,-0.2933,-0.1022,0.0528,-0.594,0.305,-0.0712,-0.3742,0.2009,0.2268,-0.5658,0.1937,-0.1255,-0.4151,0.5029,0.4977,-0.878,0.0,0.0,0.0,0.0,0.0,0.0,0.0,0.0,0.0,
0.96,run,-0.06,2.84,0.06,0.2,1.9,0.0,0.0,0.0,0.045,-2.81,-13.97,30.59,-3.43,-14.24,15.12,10.46,-26.02,28.74,6.77,-11.16,16.88,6.77,-28.48,25.93,17.67,-3.6,-7.65,-2.23,-24.91,36.83,-4.97,-20.7,13.99,11.42,-31.12,34.59,8.21,-11.86,16.35,7.57,-34.18,30.54,17.93,4.07,-10.41,-0.0637,-0.0912,-0.2546,-0.142,0.0782,-0.6002,0.3263,-0.1396,-0.3146,0.2347,0.2388,-0.5724,0.2164,-0.1817,-0.3543,0.5122,0.5285,-0.8872,0.006,0.033,0.006,0.006,0.019,0.013,0.006,0.019,0.026,0.006,0.006,0.006,0.006,0.033,0.0,0.0,0.013,0.013,-0.0552,-0.227,0.5062,-0.0322,-0.2209,0.2746,0.1779,-0.431,0.4694,0.1043,-0.181,0.3037,0.1074,-0.4755,0.4264,0.3007,-0.0798,-0.115,0.0256,-0.3009,0.306,-0.1477,-0.3018,-0.1462,0.0926,-0.2852,0.2774,0.1351,-0.2973,-0.0953,0.1222,-0.3052,0.2592,0.0568,-0.0544,-0.2913,-0.0183,0.0028,-0.0012,0.0065,0.0358,-0.069,-0.0803,-0.2726,-0.1286,0.0592,-0.5994,0.3151,-0.109,-0.3377,0.2254,0.2282,-0.5724,0.209,-0.1567,-0.3857,0.5083,0.5142,-0.8866,0.0,0.0,0.0,0.0,0.0,0.0,0.0,0.0,0.0,
1.0,run,-0.12,2.82,-0.92,-0.64,-1.37,0.0,0.0,0.0,0.045,-1.93,-15.64,32.34,-3.69,-15.91,14.33,10.9,-27.69,30.41,7.65,-12.13,16.52,7.29,-30.23,27.6,17.75,-2.2,-8.96,-2.07,-26.41,38.33,-5.51,-20.14,13.84,11.74,-32.62,36.09,8.71,-11.47,15.78,7.83,-35.68,32.04,18.07,4.88,-11.37,-0.0591,-0.099,-0.2419,-0.1575,0.0884,-0.6019,0.3354,-0.1725,-0.2876,0.2489,0.2461,-0.5791,0.2236,-0.2057,-0.3258,0.5163,0.5432,-0.8984,0.006,0.033,0.006,0.006,0.019,0.013,0.006,0.019,0.026,0.006,0.006,0.006,0.006,0.033,0.0,0.0,0.013,0.013,-0.0552,-0.2516,0.5308,-0.0552,-0.247,0.2608,0.1856,-0.4556,0.4939,0.1166,-0.201,0.293,0.1166,-0.5001,0.4495,0.3083,-0.0675,-0.1365,0.0179,-0.3032,0.3067,-0.1902,-0.3095,-0.1544,0.0937,-0.2922,0.2867,0.1408,-0.2833,-0.1072,0.1202,-0.3062,0.2682,0.0686,0.0082,-0.2849,-0.0187,0.003,0.0011,0.0035,0.0331,-0.0637,-0.0912,-0.2546,-0.142,0.0782,-0.6002,0.3263,-0.1396,-0.3146,0.2347,0.2388,-0.5724,0.2164,-0.1817,-0.3543,0.5122,0.5285,-0.8872,0.0,0.0,0.0,0.0,0.0,0.0,0.0,0.0,0.0,
1.04,run,-0.13,2.83,-0.36,-0.05,0.17,0.0,0.0,0.0,0.045,-2.46,-17.14,33.75,-4.22,-17.31,13.97,11.16,-29.0,31.82,8.0,-12.48,16.35,7.47,-31.55,28.92,17.93,-0.79,-9.67,-1.82,-27.91,39.83,-6.12,-19.27,13.35,12.03,-34.12,37.59,9.16,-11.17,15.08,8.07,-37.18,33.54,18.21,5.44,-11.86,-0.0519,-0.1039,-0.2304,-0.1748,0.1042,-0.6076,0.3437,-0.2086,-0.2509,0.2617,0.2514,-0.5873,0.2306,-0.2299,-0.2963,0.5204,0.5535,-0.9042,0.006,0.033,0.006,0.006,0.019,0.013,0.006,0.019,0.026,0.006,0.006,0.006,0.006,0.033,0.0,0.0,0.013,0.013,-0.0399,-0.2807,0.5614,-0.0598,-0.2761,0.247,0.1933,-0.4847,0.5231,0.1319,-0.2178,0.2869,0.1258,-0.5308,0.4786,0.3099,-0.043,-0.1595,0.0601,-0.3026,0.3098,-0.1474,-0.307,-0.1509,0.0894,-0.2949,0.291,0.1461,-0.2506,-0.094,0.1127,-0.3094,0.2781,0.0528,0.0818,-0.2707,-0.0238,0.0012,-0.0161,-0.0111,-0.0239,-0.0591,-0.099,-0.2419,-0.1575,0.0884,-0.6019,0.3354,-0.1725,-0.2876,0.2489,0.2461,-0.5791,0.2236,-0.2057,-0.3258,0.5163,0.5432,-0.8984,0.0,0.0,0.0,0.0,0.0,0.0,0.0,0.0,0.0,
1.08,run,-0.11,2.87,0.07,0.58,2.09,0.0,0.0,0.0,0.045,-2.02,-18.54,35.07,-5.54,-18.46,13.62,11.51,-30.32,33.13,8.61,-12.57,15.73,7.91,-32.96,30.23,18.02,0.62,-10.55,-1.69,-29.41,41.33,-6.55,-18.24,13.29,12.3,-35.62,39.09,9.31,-10.59,14.72,8.02,-38.6,35.04,18.23,6.21,-12.33,-0.0483,-0.1144,-0.2159,-0.1871,0.1229,-0.6084,0.3514,-0.2408,-0.2281,0.266,0.2619,-0.5915,0.229,-0.2472,-0.2798,0.5208,0.5675,-0.9098,0.019,0.019,0.013,0.0,0.019,0.0,0.006,0.026,0.019,0.006,0.0,0.006,0.006,0.026,0.006,0.0,0.013,0.006,-0.0491,-0.3068,0.586,-0.069,-0.3007,0.2408,0.1979,-0.5077,0.5476,0.1381,-0.224,0.2838,0.1289,-0.5538,0.5016,0.3129,-0.0184,-0.1718,0.0078,-0.3089,0.3082,-0.1374,-0.3063,-0.1285,0.0797,-0.2921,0.2951,0.1251,-0.1983,-0.0772,0.0903,-0.3022,0.2803,0.0484,0.1486,-0.2352,-0.0247,0.0019,-0.0063,-0.0009,0.003,-0.0519,-0.1039,-0.2304,-0.1748,0.1042,-0.6076,0.3437,-0.2086,-0.2509,0.2617,0.2514,-0.5873,0.2306,-0.2299,-0.2963,0.5204,0.5535,-0.9042,0.0,0.0,0.0,0.0,0.0,0.0,0.0,0.0,0.0,
1.12,run,-0.08,2.88,0.94,0.32,-2.91,0.0,0.0,0.0,0.045,-1.41,-19.95,36.56,-6.06,-19.34,13.45,11.87,-31.82,34.54,9.05,-12.39,15.12,7.91,-34.37,31.73,18.11,2.11,-11.25,-1.67,-30.91,42.83,-6.87,-17.2,13.3,12.49,-37.12,40.59,9.61,-9.98,14.15,7.92,-39.39,36.54,18.22,6.64,-12.91,-0.0477,-0.1198,-0.2059,-0.1963,0.1418,-0.6083,0.3569,-0.2708,-0.2069,0.2745,0.2732,-0.5983,0.2263,-0.2617,-0.2579,0.5206,0.5752,-0.9166,0.019,0.019,0.013,0.0,0.019,0.0,0.006,0.026,0.019,0.006,0.0,0.006,0.006,0.026,0.006,0.0,0.013,0.006,-0.0414,-0.3313,0.609,-0.092,-0.3206,0.2347,0.204,-0.5308,0.5706,0.1488,-0.2255,0.273,0.1365,-0.5783,0.5246,0.3145,0.0061,-0.1871,0.0344,-0.3087,0.3025,-0.1829,-0.2895,-0.113,0.0789,-0.2911,0.2933,0.128,-0.1446,-0.0945,0.0921,-0.3041,0.2829,0.0396,0.1965,-0.2224,-0.0228,0.0052,0.0012,0.0102,0.0366,-0.0483,-0.1144,-0.2159,-0.1871,0.1229,-0.6084,0.3514,-0.2408,-0.2281,0.266,0.2619,-0.5915,0.229,-0.2472,-0.2798,0.5208,0.5675,-0.9098,0.0,0.0,0.0,0.0,0.0,0.0,0.0,0.0,0.0,
1.16,run,-0.11,2.85,-0.62,-0.35,1.06,0.0,0.0,0.0,0.045,-2.02,-21.36,38.06,-5.89,-19.95,13.36,12.13,-33.22,35.95,9.32,-11.78,14.68,7.82,-35.86,33.13,18.11,3.43,-11.87,-1.54,-31.82,44.33,-7.27,-16.15,13.02,12.61,-38.62,42.09,9.95,-9.28,13.15,7.92,-40.38,38.04,18.15,7.17,-13.52,-0.044,-0.1241,-0.1975,-0.2077,0.1609,-0.6115,0.3604,-0.3059,-0.1778,0.2843,0.2858,-0.61,0.2263,-0.2797,-0.2438,0.5187,0.5849,-0.9238,0.019,0.019,0.013,0.0,0.019,0.0,0.006,0.026,0.019,0.006,0.0,0.006,0.006,0.026,0.006,0.0,0.013,0.006,-0.0307,-0.3559,0.6351,-0.1012,-0.3359,0.2316,0.2102,-0.5568,0.5952,0.1565,-0.2224,0.2623,0.1365,-0.6029,0.5507,0.316,0.0322,-0.1994,0.0641,-0.3077,0.309,-0.1624,-0.2599,-0.0906,0.0781,-0.3011,0.2969,0.1183,-0.0897,-0.1062,0.0645,-0.3044,0.2953,0.0335,0.2349,-0.2015,-0.0202,0.0061,0.0164,0.0057,-0.0508,-0.0477,-0.1198,-0.2059,-0.1963,0.1418,-0.6083,0.3569,-0.2708,-0.2069,0.2745,0.2732,-0.5983,0.2263,-0.2617,-0.2579,0.5206,0.5752,-0.9166,0.0,0.0,0.0,0.0,0.0,0.0,0.0,0.0,0.0,
1.2,run,-0.09,2.85,0.15,0.39,-0.76,0.0,0.0,0.0,0.052,-1.41,-22.85,39.38,-6.5,-20.13,13.1,12.3,-34.63,37.35,9.67,-10.81,13.97,7.82,-37.09,34.54,18.11,4.66,-12.57,-1.35,-32.36,45.83,-7.47,-14.67,12.36,12.91,-40.12,43.59,9.9,-8.35,12.3,7.7,-40.95,39.54,18.13,7.65,-13.61,-0.0385,-0.1338,-0.1876,-0.2135,0.1879,-0.6193,0.3688,-0.339,-0.1545,0.2828,0.3028,-0.62,0.2199,-0.29,-0.23,0.5179,0.5936,-0.9248,0.013,0.026,0.019,0.0,0.0,0.006,0.006,0.026,0.026,0.006,0.006,0.013,0.0,0.052,0.006,0.0,0.006,0.006,-0.0414,-0.3804,0.6611,-0.0982,-0.3467,0.2301,0.2148,-0.5814,0.6197,0.1611,-0.2117,0.2546,0.135,-0.6289,0.5752,0.316,0.0552,-0.2102,0.0046,-0.3074,0.3141,-0.1022,-0.2222,-0.0692,0.0719,-0.3028,0.2998,0.1,-0.0226,-0.1031,0.0394,-0.3109,0.2988,0.0234,0.2507,-0.1813,-0.0236,0.0041,-0.0108,-0.0061,0.0186,-0.044,-0.1241,-0.1975,-0.2077,0.1609,-0.6115,0.3604,-0.3059,-0.1778,0.2843,0.2858,-0.61,0.2263,-0.2797,-0.2438,0.5187,0.5849,-0.9238,0.0,0.0,0.0,0.0,0.0,0.0,0.0,0.0,0.0,
1.24,run,-0.06,2.84,0.24,-0.27,-0.16,0.0,0.0,0.0,0.052,-1.41,-24.17,40.78,-7.47,-20.13,12.83,12.48,-36.12,38.85,9.84,-10.02,13.27,7.82,-38.32,35.95,18.11,5.71,-13.1,-1.27,-32.61,47.33,-7.72,-13.36,12.28,12.99,-41.62,45.09,10.17,-7.37,11.33,7.59,-41.68,41.04,17.93,7.95,-14.05,-0.0363,-0.1384,-0.1769,-0.2205,0.2116,-0.6203,0.371,-0.3708,-0.1285,0.2905,0.3205,-0.6314,0.2169,-0.3033,-0.2131,0.5124,0.599,-0.93,0.013,0.026,0.019,0.0,0.0,0.006,0.006,0.026,0.026,0.006,0.006,0.013,0.0,0.052,0.006,0.0,0.006,0.006,-0.0307,-0.4065,0.6842,-0.1089,-0.3497,0.2255,0.2178,-0.6059,0.6443,0.1672,-0.1948,0.2424,0.135,-0.6504,0.5998,0.316,0.0767,-0.2224,0.0439,-0.3138,0.3069,-0.1121,-0.1671,-0.0658,0.062,-0.3048,0.3027,0.0932,0.048,-0.1186,0.0276,-0.2989,0.302,0.0164,0.2567,-0.1733,-0.0211,0.0037,0.0027,0.0069,-0.0133,-0.0385,-0.1338,-0.1876,-0.2135,0.1879,-0.6193,0.3688,-0.339,-0.1545,0.2828,0.3028,-0.62,0.2199,-0.29,-0.23,0.5179,0.5936,-0.9248,0.0,0.0,0.0,0.0,0.0,0.0,0.0,0.0,0.0,
1.28,run,-0.13,2.82,-1.5,-0.39,1.79,0.0,0.0,0.0,0.052,-1.41,-25.66,42.28,-7.47,-19.86,12.39,12.74,-37.53,40.17,9.84,-9.05,12.48,7.73,-39.2,37.35,18.02,6.68,-13.45,-1.13,-32.93,48.83,-7.91,-12.09,12.11,13.18,-43.12,46.59,10.39,-6.34,10.37,7.53,-42.32,42.54,17.73,8.34,-14.35,-0.0323,-0.1442,-0.1668,-0.2261,0.2347,-0.6222,0.3765,-0.4006,-0.1037,0.297,0.3393,-0.6428,0.2151,-0.3148,-0.1927,0.5067,0.6062,-0.9335,0.013,0.026,0.019,0.0,0.0,0.006,0.006,0.026,0.026,0.006,0.006,0.013,0.0,0.052,0.006,0.0,0.006,0.006,-0.0307,-0.4295,0.7087,-0.1258,-0.3497,0.2209,0.2209,-0.632,0.6703,0.1703,-0.181,0.2301,0.135,-0.6719,0.6243,0.316,0.0951,-0.2316,0.0307,-0.3053,0.3062,-0.1413,-0.117,-0.0632,0.0548,-0.3104,0.309,0.0767,0.085,-0.1287,0.0193,-0.2891,0.3027,0.0115,0.2482,-0.1556,-0.0193,0.003,0.0041,-0.0047,-0.0028,-0.0363,-0.1384,-0.1769,-0.2205,0.2116,-0.6203,0.371,-0.3708,-0.1285,0.2905,0.3205,-0.6314,0.2169,-0.3033,-0.2131,0.5124,0.599,-0.93,0.0,0.0,0.0,0.0,0.0,0.0,0.0,0.0,0.0,
1.32,run,-0.11,2.84,0.51,0.49,-1.4,0.0,0.0,0.0,0.071,-0.79,-27.07,43.68,-7.47,-18.98,12.22,12.83,-38.94,41.57,10.28,-8.17,11.6,7.56,-40.17,38.85,17.67,7.38,-13.97,-0.81,-33.32,50.33,-8.15,-10.59,11.48,13.43,-44.62,48.09,10.45,-5.19,9.07,7.56,-43.02,44.04,17.63,8.64,-14.57,-0.0232,-0.1512,-0.1603,-0.2327,0.2627,-0.6297,0.3838,-0.434,-0.0741,0.2986,0.3602,-0.658,0.2161,-0.3277,-0.1697,0.5038,0.6117,-0.9361,0.006,0.019,0.013,0.006,0.013,0.019,0.006,0.033,0.026,0.006,0.0,0.013,0.0,0.071,0.0,0.006,0.006,0.006,-0.0307,-0.4556,0.7348,-0.1258,-0.3451,0.2132,0.2255,-0.6565,0.6934,0.1703,-0.1641,0.2163,0.1335,-0.6872,0.6489,0.3145,0.112,-0.2378,0.0215,-0.3116,0.3122,-0.0989,-0.0646,-0.073,0.0556,-0.3095,0.3027,0.0537,0.1229,-0.1419,0.0078,-0.26,0.3041,0.0023,0.2371,-0.132,-0.0248,0.0011,-0.0261,-0.0069,0.0312,-0.0323,-0.1442,-0.1668,-0.2261,0.2347,-0.6222,0.3765,-0.4006,-0.1037,0.297,0.3393,-0.6428,0.2151,-0.3148,-0.1927,0.5067,0.6062,-0.9335,0.0,0.0,0.0,0.0,0.0,0.0,0.0,0.0,0.0,
1.36,run,-0.1,2.87,-0.18,0.03,1.77,0.0,0.0,0.0,0.071,-1.14,-28.48,45.09,-7.73,-17.75,12.04,13.01,-40.34,42.98,10.37,-7.21,10.55,7.56,-41.13,40.17,17.58,7.91,-14.33,-0.61,-33.52,51.83,-8.4,-9.17,11.14,13.48,-46.12,49.59,10.85,-4.24,8.16,7.64,-44.07,45.54,17.32,8.82,-14.94,-0.0173,-0.1549,-0.1502,-0.2399,0.2878,-0.6337,0.3852,-0.4642,-0.0445,0.3101,0.3775,-0.6687,0.2184,-0.3467,-0.1503,0.4949,0.615,-0.9405,0.006,0.019,0.013,0.006,0.013,0.019,0.006,0.033,0.026,0.006,0.0,0.013,0.0,0.071,0.0,0.006,0.006,0.006,-0.0199,-0.4801,0.7593,-0.1258,-0.3298,0.2102,0.227,-0.6811,0.7179,0.1779,-0.1488,0.201,0.1304,-0.7041,0.675,0.3083,0.1243,-0.247,0.0554,-0.3104,0.3108,-0.0692,0.0124,-0.0627,0.0447,-0.3088,0.3041,0.0664,0.1436,-0.157,-0.0061,-0.2454,0.3108,-0.0215,0.2121,-0.127,-0.0234,0.0028,0.0089,0.0085,-0.0245,-0.0232,-0.1512,-0.1603,-0.2327,0.2627,-0.6297,0.3838,-0.434,-0.0741,0.2986,0.3602,-0.658,0.2161,-0.3277,-0.1697,0.5038,0.6117,-0.9361,0.0,0.0,0.0,0.0,0.0,0.0,0.0,0.0,0.0,
1.4,run,-0.1,2.9,0.07,-0.13,0.19,0.0,0.0,0.0,0.071,-0.88,-29.88,46.49,-8.17,-16.44,11.43,13.18,-41.75,44.38,10.37,-6.15,9.67,7.56,-41.92,41.66,17.58,8.44,-14.5,-0.32,-34.0,52.95,-8.62,-7.73,10.41,13.71,-47.62,51.09,11.16,-3.08,7.09,7.71,-44.91,47.04,17.1,9.16,-15.24,-0.0092,-0.1637,-0.1417,-0.2461,0.314,-0.6422,0.3917,-0.4945,-0.0176,0.3189,0.3986,-0.6813,0.2204,-0.3619,-0.1235,0.4886,0.621,-0.944,0.006,0.019,0.013,0.006,0.013,0.019,0.006,0.033,0.026,0.006,0.0,0.013,0.0,0.071,0.0,0.006,0.006,0.006,-0.0261,-0.5047,0.7839,-0.1304,-0.3083,0.2071,0.2301,-0.7056,0.7424,0.1795,-0.1319,0.1825,0.1304,-0.721,0.698,0.3068,0.1335,-0.2531,0.0158,-0.3093,0.3096,-0.0657,0.0892,-0.0554,0.0428,-0.3082,0.3049,0.0522,0.1638,-0.1789,-0.0043,-0.2351,0.3039,-0.0208,0.183,-0.1119,-0.0223,0.0053,-0.0032,0.0006,0.0308,-0.0173,-0.1549,-0.1502,-0.2399,0.2878,-0.6337,0.3852,-0.4642,-0.0445,0.3101,0.3775,-0.6687,0.2184,-0.3467,-0.1503,0.4949,0.615,-0.9405,0.0,0.0,0.0,0.0,0.0,0.0,0.0,0.0,0.0,
1.44,run,-0.05,2.92,1.04,0.68,-1.91,0.0,0.0,0.0,0.078,-0.18,-31.11,47.99,-8.35,-15.03,10.99,13.36,-43.15,45.88,10.9,-5.19,8.7,7.56,-42.89,43.07,17.14,8.7,-14.85,-0.02,-34.18,53.55,-8.81,-6.47,9.99,13.8,-49.12,52.59,11.52,-2.02,5.91,7.92,-45.96,48.54,16.84,9.36,-15.55,-0.0006,-0.1668,-0.1348,-0.2519,0.3369,-0.6471,0.3944,-0.5234,0.0132,0.3292,0.4178,-0.6952,0.2264,-0.3811,-0.0949,0.4812,0.6247,-0.9477,0.0,0.013,0.006,0.006,0.006,0.006,0.006,0.026,0.019,0.006,0.0,0.006,0.0,0.078,0.013,0.006,0.006,0.006,-0.0215,-0.5292,0.8084,-0.1381,-0.2853,0.1963,0.2332,-0.7302,0.767,0.1795,-0.1135,0.1672,0.1304,-0.7348,0.724,0.3068,0.1427,-0.2562,0.0283,-0.3084,0.3087,-0.0747,0.1486,-0.079,0.0415,-0.3077,0.3054,0.0366,0.1836,-0.1827,-0.003,-0.2163,0.3104,-0.0145,0.1626,-0.0898,-0.0225,0.0078,0.0012,-0.0023,0.0032,-0.0092,-0.1637,-0.1417,-0.2461,0.314,-0.6422,0.3917,-0.4945,-0.0176,0.3189,0.3986,-0.6813,0.2204,-0.3619,-0.1235,0.4886,0.621,-0.944,0.0,0.0,0.0,0.0,0.0,0.0,0.0,0.0,0.0,
1.48,run,-0.1,2.91,-1.0,-0.19,1.86,0.0,0.0,0.0,0.078,-0.53,-32.26,49.31,-8.53,-13.54,10.37,13.36,-44.47,47.29,11.34,-4.13,7.56,7.73,-43.77,44.47,16.88,9.05,-15.21,0.28,-34.31,54.06,-8.97,-5.14,9.35,13.9,-50.62,54.09,11.98,-1.06,4.84,8.2,-47.26,50.04,16.61,9.5,-15.85,0.008,-0.1693,-0.1287,-0.2564,0.3611,-0.6547,0.3973,-0.5524,0.0436,0.3422,0.4352,-0.7077,0.2342,-0.4048,-0.0658,0.4746,0.6273,-0.9512,0.0,0.013,0.006,0.006,0.006,0.006,0.006,0.026,0.019,0.006,0.0,0.006,0.0,0.078,0.013,0.006,0.006,0.006,-0.0092,-0.5507,0.8345,-0.1411,-0.2608,0.1887,0.2362,-0.7547,0.7931,0.1887,-0.0966,0.1503,0.1304,-0.7517,0.7486,0.2991,0.1473,-0.2623,0.0658,-0.2965,0.3139,-0.0638,0.1962,-0.0841,0.0405,-0.3075,0.3116,0.0601,0.1919,-0.1912,-0.0021,-0.2147,0.3094,-0.039,0.1311,-0.0859,-0.0176,0.0097,0.0181,0.0119,-0.0334,-0.0006,-0.1668,-0.1348,-0.2519,0.3369,-0.6471,0.3944,-0.5234,0.0132,0.3292,0.4178,-0.6952,0.2264,-0.3811,-0.0949,0.4812,0.6247,-0.9477,0.0,0.0,0.0,0.0,0.0,0.0,0.0,0.0,0.0,
1.52,run,-0.12,2.95,0.33,0.26,-0.04,0.0,0.0,0.0,0.078,0.0,-33.05,50.62,-8.61,-12.22,9.93,13.62,-45.88,48.69,11.43,-3.08,6.59,7.91,-44.56,45.97,16.88,9.23,-15.47,0.69,-34.65,54.6,-9.1,-3.74,8.57,14.22,-52.12,55.59,12.25,-0.02,3.67,8.47,-48.37,51.54,16.46,9.75,-15.95,0.0196,-0.1755,-0.1223,-0.2599,0.3865,-0.6639,0.4062,-0.5792,0.0728,0.3501,0.4541,-0.7215,0.2419,-0.4249,-0.032,0.4702,0.6319,-0.9523,0.0,0.013,0.006,0.006,0.006,0.006,0.006,0.026,0.019,0.006,0.0,0.006,0.0,0.078,0.013,0.006,0.006,0.006,-0.0153,-0.5706,0.8575,-0.1442,-0.2347,0.1779,0.2362,-0.7777,0.8176,0.1963,-0.0782,0.1304,0.1335,-0.767,0.7731,0.2945,0.1534,-0.2684,0.0231,-0.2824,0.3061,-0.0562,0.2351,-0.0991,0.0284,-0.3016,0.3102,0.0709,0.2034,-0.2087,0.01,-0.2078,0.3086,-0.0445,0.1148,-0.0831,-0.0226,0.0088,-0.0174,-0.0033,0.0324,0.008,-0.1693,-0.1287,-0.2564,0.3611,-0.6547,0.3973,-0.5524,0.0436,0.3422,0.4352,-0.7077,0.2342,-0.4048,-0.0658,0.4746,0.6273,-0.9512,0.0,0.0,0.0,0.0,0.0,0.0,0.0,0.0,0.0,
1.56,run,-0.08,2.99,0.92,0.23,-0.61,0.0,0.0,0.0,0.156,0.7,-33.66,52.03,-8.88,-10.72,9.23,13.8,-47.2,50.1,11.95,-2.11,5.45,8.17,-45.53,47.37,16.35,9.49,-15.73,1.05,-34.53,54.57,-9.14,-2.58,7.67,14.3,-53.62,57.09,12.55,0.95,2.25,8.87,-49.66,53.04,16.34,9.84,-16.28,0.0301,-0.1732,-0.1227,-0.2613,0.4076,-0.6745,0.4086,-0.6052,0.1032,0.3587,0.4718,-0.7382,0.2536,-0.4483,0.0003,0.4668,0.6334,-0.9562,0.0,0.013,0.0,0.006,0.006,0.013,0.0,0.039,0.019,0.006,0.006,0.019,0.006,0.156,0.006,0.006,0.006,0.006,-0.0061,-0.5844,0.8805,-0.1457,-0.2117,0.1703,0.2408,-0.8023,0.8422,0.1979,-0.0598,0.1135,0.1365,-0.7808,0.7992,0.2945,0.1565,-0.273,0.0507,-0.2494,0.3006,-0.0451,0.2509,-0.0982,0.0371,-0.3032,0.3092,0.0554,0.2114,-0.2094,0.0185,-0.1973,0.3139,-0.0312,0.0918,-0.0755,-0.0238,0.0123,0.0057,0.0045,-0.0008,0.0196,-0.1755,-0.1223,-0.2599,0.3865,-0.6639,0.4062,-0.5792,0.0728,0.3501,0.4541,-0.7215,0.2419,-0.4249,-0.032,0.4702,0.6319,-0.9523,0.0,0.0,0.0,0.0,0.0,0.0,0.0,0.0,0.0,
1.6,run,-0.12,2.96,-1.29,-0.32,1.99,0.0,0.0,0.0,0.156,0.44,-34.1,53.0,-8.88,-9.4,8.53,14.06,-48.69,51.5,12.3,-1.05,4.39,8.53,-46.76,48.78,16.26,9.67,-15.91,1.38,-34.43,54.74,-9.11,-1.44,7.0,14.41,-55.12,58.59,12.86,1.76,1.18,9.22,-50.96,54.54,16.21,9.96,-16.34,0.0395,-0.1714,-0.1207,-0.2602,0.4283,-0.6824,0.4118,-0.6275,0.1296,0.3675,0.4865,-0.7508,0.2634,-0.472,0.0308,0.463,0.6356,-0.9569,0.0,0.013,0.0,0.006,0.006,0.013,0.0,0.039,0.019,0.006,0.006,0.019,0.006,0.156,0.006,0.006,0.006,0.006,0.0061,-0.5952,0.905,-0.1503,-0.1856,0.158,0.2439,-0.8253,0.8667,0.2071,-0.043,0.0936,0.1411,-0.7977,0.8237,0.2853,0.1611,-0.2777,0.0815,-0.2149,0.3025,-0.0488,0.2735,-0.1147,0.0375,-0.2985,0.3085,0.0733,0.2113,-0.2214,0.0302,-0.2014,0.3118,-0.0563,0.0816,-0.0701,-0.0202,0.016,0.0161,0.0039,-0.0106,0.0301,-0.1732,-0.1227,-0.2613,0.4076,-0.6745,0.4086,-0.6052,0.1032,0.3587,0.4718,-0.7382,0.2536,-0.4483,0.0003,0.4668,0.6334,-0.9562,0.0,0.0,0.0,0.0,0.0,0.0,0.0,0.0,0.0,
1.64,run,0.06,3.1,1.39,1.03,0.42,0.0,0.0,0.0,0.156,1.58,-34.19,54.58,-8.88,-4.57,7.12,14.24,-53.17,56.07,12.74,1.49,1.41,9.14,-49.66,53.17,16.26,9.84,-16.17,1.81,-34.26,54.56,-8.95,-0.29,5.83,14.71,-56.62,60.09,12.86,2.76,-0.22,9.57,-51.98,56.04,16.23,10.15,-16.27,0.0518,-0.1683,-0.1228,-0.2557,0.4492,-0.6961,0.4203,-0.6476,0.1557,0.3675,0.5047,-0.7673,0.2734,-0.4905,0.0627,0.4637,0.6391,-0.9562,0.006,0.006,0.0,0.0,0.006,0.006,0.0,0.026,0.019,0.0,0.0,0.006,0.0,0.091,0.0,0.0,0.0,0.0,0.0015,-0.6029,0.9219,-0.1503,-0.1626,0.1457,0.2485,-0.8514,0.8912,0.2132,-0.0245,0.0752,0.1473,-0.8191,0.8483,0.2838,0.1641,-0.2807,0.0399,-0.1791,0.2748,-0.0342,0.2774,-0.1262,0.0435,-0.3065,0.3077,0.0742,0.2167,-0.2238,0.0441,-0.2213,0.31,-0.0452,0.0686,-0.0605,-0.0242,0.0137,-0.0225,-0.0057,0.0347,0.0395,-0.1714,-0.1207,-0.2602,0.4283,-0.6824,0.4118,-0.6275,0.1296,0.3675,0.4865,-0.7508,0.2634,-0.472,0.0308,0.463,0.6356,-0.9569,0.0,0.0,0.0,0.0,0.0,0.0,0.0,0.0,0.0,
1.68,run,0.04,3.1,0.12,-0.18,-0.78,0.0,0.0,0.0,0.156,1.58,-34.19,54.58,-8.88,-3.34,7.03,14.24,-54.14,57.04,12.74,1.67,1.05,9.14,-50.1,53.96,16.26,9.84,-16.17,2.63,-32.76,53.06,-7.72,1.21,4.33,14.95,-58.12,61.59,12.61,4.26,-1.72,10.53,-53.48,57.54,16.41,10.19,-15.76,0.075,-0.1286,-0.1472,-0.2207,0.5048,-0.7383,0.4271,-0.6849,0.2153,0.3604,0.5477,-0.8113,0.3008,-0.5463,0.1382,0.4688,0.6399,-0.9501,0.006,0.006,0.0,0.0,0.006,0.006,0.0,0.026,0.019,0.0,0.0,0.006,0.0,0.091,0.0,0.0,0.0,0.0,0.0215,-0.6044,0.9495,-0.1503,-0.0782,0.1212,0.2516,-0.9296,0.971,0.2209,0.0199,0.023,0.158,-0.8698,0.925,0.2838,0.1672,-0.2853,0.0499,-0.1271,0.2228,-0.0239,0.2872,-0.1154,0.0338,-0.3007,0.3033,0.0604,0.2007,-0.2141,0.0427,-0.2107,0.3015,-0.0316,0.0514,-0.0474,-0.0083,0.0253,0.0243,0.0179,0.0074,0.0518,-0.1683,-0.1228,-0.2557,0.4492,-0.6961,0.4203,-0.6476,0.1557,0.3675,0.5047,-0.7673,0.2734,-0.4905,0.0627,0.4637,0.6391,-0.9562,0.0,0.0,0.0,0.0,0.0,0.0,0.0,0.0,0.0,
1.72,run,-0.01,3.08,-0.8,-0.19,2.08,0.0,0.0,0.0,0.156,1.58,-34.19,54.58,-8.88,-2.2,6.5,14.41,-55.11,58.1,12.74,2.02,0.53,9.49,-50.71,55.02,16.26,9.93,-16.17,2.92,-32.47,53.18,-7.87,2.71,2.83,15.11,-59.62,63.09,12.73,5.45,-3.22,11.05,-54.98,59.04,16.26,10.48,-15.64,0.0835,-0.1359,-0.1391,-0.2249,0.5072,-0.7352,0.4316,-0.6963,0.2325,0.3637,0.5536,-0.8107,0.3157,-0.5544,0.1568,0.4647,0.6451,-0.9487,0.006,0.006,0.0,0.0,0.006,0.006,0.0,0.026,0.019,0.0,0.0,0.006,0.0,0.091,0.0,0.0,0.0,0.0,0.0215,-0.6044,0.9495,-0.1503,-0.0568,0.1197,0.2516,-0.9465,0.9879,0.2209,0.023,0.0169,0.158,-0.8774,0.9388,0.2838,0.1672,-0.2853,0.0349,-0.0889,0.156,-0.0167,0.281,-0.0865,0.0237,-0.2733,0.2751,0.0423,0.1519,-0.1727,0.0299,-0.176,0.2625,-0.0221,0.036,-0.0332,-0.0099,0.0255,0.0021,-0.0031,-0.0137,0.075,-0.1286,-0.1472,-0.2207,0.5048,-0.7383,0.4271,-0.6849,0.2153,0.3604,0.5477,-0.8113,0.3008,-0.5463,0.1382,0.4688,0.6399,-0.9501,0.0,0.0,0.0,0.0,0.0,0.0,0.0,0.0,0.0,
1.76,run,0.01,3.09,0.2,0.17,-1.14,0.0,0.0,0.0,0.156,2.9,-33.93,54.32,-8.88,-0.88,5.71,14.77,-56.51,59.33,12.74,2.72,-0.35,10.11,-51.5,56.43,16.26,10.2,-16.08,3.19,-31.9,52.68,-7.57,3.7,1.73,15.24,-61.12,64.59,12.53,6.15,-4.72,11.32,-56.06,60.54,16.34,10.53,-15.37,0.0912,-0.1255,-0.145,-0.2162,0.5219,-0.7444,0.4354,-0.7035,0.2469,0.3579,0.5664,-0.8213,0.3235,-0.5647,0.1799,0.4668,0.6459,-0.9455,0.0,0.006,0.006,0.013,0.006,0.013,0.006,0.019,0.026,0.006,0.0,0.006,0.013,0.143,0.006,0.0,0.0,0.006,0.0215,-0.6044,0.9495,-0.1503,-0.0368,0.1104,0.2546,-0.9633,1.0063,0.2209,0.0291,0.0077,0.1641,-0.8882,0.9572,0.2838,0.1687,-0.2853,0.0244,-0.0623,0.1092,-0.0117,0.2707,-0.0947,0.028,-0.254,0.261,0.0296,0.1291,-0.1551,0.0437,-0.1631,0.2521,-0.0155,0.0309,-0.0232,-0.0142,0.0242,-0.014,-0.0033,0.0363,0.0835,-0.1359,-0.1391,-0.2249,0.5072,-0.7352,0.4316,-0.6963,0.2325,0.3637,0.5536,-0.8107,0.3157,-0.5544,0.1568,0.4647,0.6451,-0.9487,0.0,0.0,0.0,0.0,0.0,0.0,0.0,0.0,0.0,
1.8,run,0.01,3.09,-0.66,-0.25,1.0,0.0,0.0,0.0,0.156,2.81,-33.22,53.61,-8.61,0.53,4.75,14.94,-57.92,60.73,12.66,3.69,-1.49,10.81,-52.73,57.66,16.26,10.37,-15.73,3.42,-30.94,51.55,-7.02,4.37,0.7,15.25,-62.62,66.09,12.28,6.78,-5.97,11.68,-56.74,62.04,16.5,10.36,-14.92,0.0976,-0.108,-0.1582,-0.2006,0.5339,-0.7565,0.4357,-0.7102,0.2649,0.3509,0.5779,-0.8349,0.3338,-0.5772,0.2051,0.4715,0.6429,-0.9402,0.0,0.006,0.006,0.013,0.006,0.013,0.006,0.019,0.026,0.006,0.0,0.006,0.013,0.143,0.006,0.0,0.0,0.006,0.0445,-0.5998,0.9449,-0.1503,-0.0138,0.0966,0.2608,-0.9879,1.0278,0.2209,0.0414,-0.0077,0.1749,-0.902,0.9817,0.2838,0.1733,-0.2838,0.1043,-0.0261,0.059,-0.0082,0.2767,-0.1186,0.0428,-0.2708,0.264,0.0207,0.1369,-0.1667,0.0713,-0.1665,0.2694,-0.0108,0.039,-0.0105,-0.0129,0.025,0.0035,0.003,-0.0199,0.0912,-0.1255,-0.145,-0.2162,0.5219,-0.7444,0.4354,-0.7035,0.2469,0.3579,0.5664,-0.8213,0.3235,-0.5647,0.1799,0.4668,0.6459,-0.9455,0.0,0.0,0.0,0.0,0.0,0.0,0.0,0.0,0.0,
1.84,run,0.0,3.1,-0.22,0.16,0.87,0.0,0.0,0.0,0.156,3.08,-32.52,53.0,-7.73,1.76,3.43,14.94,-59.33,62.05,12.48,4.75,-2.81,11.25,-54.05,59.06,16.26,10.37,-15.56,3.69,-30.11,50.61,-6.42,5.23,-0.52,15.41,-64.12,67.59,11.81,7.55,-7.16,11.96,-57.31,63.54,16.69,10.48,-14.36,0.1054,-0.0929,-0.1693,-0.1834,0.5496,-0.7708,0.4403,-0.7155,0.2798,0.3375,0.5917,-0.8489,0.3417,-0.5874,0.2271,0.4768,0.6451,-0.9337,0.0,0.006,0.006,0.013,0.006,0.013,0.006,0.019,0.026,0.006,0.0,0.006,0.013,0.143,0.006,0.0,0.0,0.006,0.043,-0.5875,0.9327,-0.1457,0.0107,0.0798,0.2638,-1.0124,1.0523,0.2194,0.0583,-0.0276,0.1871,-0.9235,1.0032,0.2838,0.1764,-0.2777,0.0673,0.0274,-0.0044,0.0114,0.285,-0.1458,0.0414,-0.2809,0.2762,0.0088,0.1586,-0.1909,0.0956,-0.1964,0.2685,-0.0076,0.0387,0.0155,-0.0126,0.0251,-0.0116,-0.0043,0.0175,0.0976,-0.108,-0.1582,-0.2006,0.5339,-0.7565,0.4357,-0.7102,0.2649,0.3509,0.5779,-0.8349,0.3338,-0.5772,0.2051,0.4715,0.6429,-0.9402,0.0,0.0,0.0,0.0,0.0,0.0,0.0,0.0,0.0,
1.88,run,0.03,3.12,0.69,0.42,-0.95,0.0,0.0,0.0,0.156,3.87,-31.64,52.21,-7.21,2.9,2.11,15.12,-60.73,63.46,12.04,5.71,-4.22,11.69,-55.11,60.47,16.7,10.37,-15.12,3.95,-29.19,49.41,-5.82,6.2,-1.98,15.52,-64.74,69.09,11.38,8.23,-8.5,12.3,-58.0,65.04,16.91,10.52,-13.92,0.1128,-0.0761,-0.1835,-0.1663,0.5673,-0.788,0.4435,-0.7226,0.2993,0.3251,0.6042,-0.8647,0.3515,-0.6,0.2501,0.4832,0.6459,-0.9284,0.0,0.006,0.006,0.013,0.006,0.013,0.006,0.026,0.026,0.006,0.006,0.013,0.006,0.065,0.006,0.0,0.0,0.006,0.0476,-0.5752,0.9219,-0.1304,0.0322,0.0568,0.2638,-1.037,1.0753,0.2163,0.0767,-0.0506,0.1948,-0.9465,1.0278,0.2838,0.1764,-0.2746,0.0643,0.0651,-0.0433,0.0654,0.28,-0.1883,0.029,-0.2886,0.2795,-0.0053,0.18,-0.2198,0.0956,-0.2237,0.2799,-0.0053,0.0271,0.0224,-0.0136,0.0259,-0.0039,0.0029,0.0151,0.1054,-0.0929,-0.1693,-0.1834,0.5496,-0.7708,0.4403,-0.7155,0.2798,0.3375,0.5917,-0.8489,0.3417,-0.5874,0.2271,0.4768,0.6451,-0.9337,0.0,0.0,0.0,0.0,0.0,0.0,0.0,0.0,0.0,
1.92,run,0.0,3.1,-0.85,-0.46,1.58,0.0,0.0,0.0,0.156,3.34,-30.85,51.33,-6.94,3.96,0.79,15.12,-62.05,64.78,11.6,6.68,-5.54,12.04,-55.99,61.88,16.79,10.46,-14.59,4.19,-28.02,47.91,-5.13,7.0,-3.35,15.55,-65.03,70.59,10.89,8.95,-9.71,12.69,-58.54,66.54,17.14,10.48,-13.4,0.1198,-0.055,-0.2011,-0.1466,0.5818,-0.8041,0.4443,-0.7278,0.3167,0.3113,0.6174,-0.879,0.3627,-0.6097,0.2738,0.4896,0.6452,-0.9223,0.0,0.006,0.006,0.013,0.006,0.013,0.006,0.026,0.026,0.006,0.006,0.013,0.006,0.065,0.006,0.0,0.0,0.006,0.0614,-0.5599,0.9081,-0.1212,0.0522,0.0337,0.2669,-1.0615,1.0999,0.2086,0.0936,-0.0752,0.2025,-0.9649,1.0523,0.2915,0.1764,-0.2669,0.0968,0.1031,-0.0821,0.0803,0.2708,-0.2181,0.0318,-0.294,0.2877,-0.0325,0.1893,-0.2459,0.0957,-0.2256,0.288,0.025,0.019,0.0444,-0.0111,0.0277,0.012,0.0074,-0.0166,0.1128,-0.0761,-0.1835,-0.1663,0.5673,-0.788,0.4435,-0.7226,0.2993,0.3251,0.6042,-0.8647,0.3515,-0.6,0.2501,0.4832,0.6459,-0.9284,0.0,0.0,0.0,0.0,0.0,0.0,0.0,0.0,0.0,
1.96,run,0.03,3.1,0.47,0.37,-0.92,0.0,0.0,0.0,0.156,4.13,-29.97,50.36,-6.06,5.01,-0.53,15.29,-63.19,66.18,11.16,7.56,-6.94,12.3,-56.87,63.19,16.79,10.46,-14.15,4.44,-27.16,46.96,-4.54,7.77,-4.31,15.73,-65.09,72.09,10.32,9.6,-10.57,12.99,-58.87,68.04,17.28,10.6,-12.71,0.1268,-0.0393,-0.2123,-0.1297,0.5959,-0.8154,0.4495,-0.7289,0.3302,0.2948,0.6291,-0.889,0.3712,-0.6158,0.2924,0.4937,0.6473,-0.9142,0.0,0.006,0.006,0.013,0.006,0.013,0.006,0.026,0.026,0.006,0.006,0.013,0.006,0.065,0.006,0.0,0.0,0.006,0.0522,-0.5461,0.8928,-0.1166,0.0706,0.0107,0.2669,-1.0845,1.1229,0.201,0.1104,-0.0982,0.2086,-0.9802,1.0769,0.293,0.1779,-0.2577,0.0332,0.1241,-0.1151,0.0735,0.2587,-0.2391,0.0222,-0.2923,0.2878,-0.0516,0.1959,-0.2586,0.09,-0.2156,0.2938,0.0233,0.0191,0.0657,-0.0134,0.0259,-0.0149,-0.0081,0.0275,0.1198,-0.055,-0.2011,-0.1466,0.5818,-0.8041,0.4443,-0.7278,0.3167,0.3113,0.6174,-0.879,0.3627,-0.6097,0.2738,0.4896,0.6452,-0.9223,0.0,0.0,0.0,0.0,0.0,0.0,0.0,0.0,0.0,
2.0,run,0.04,3.07,0.44,-0.29,-0.84,0.0,0.0,0.0,0.156,4.57,-28.92,49.39,-5.62,5.98,-1.76,15.47,-64.07,67.59,10.72,8.35,-8.17,12.74,-57.66,64.69,17.31,10.46,-13.62,4.62,-26.07,45.53,-3.88,8.57,-5.6,15.72,-65.3,73.59,9.85,10.18,-11.52,13.35,-59.41,69.54,17.51,10.57,-12.23,0.1321,-0.0194,-0.2291,-0.1108,0.6104,-0.8306,0.4491,-0.7326,0.3455,0.2814,0.6397,-0.9002,0.3814,-0.6257,0.3116,0.5002,0.6467,-0.9086,0.006,0.0,0.013,0.013,0.013,0.013,0.006,0.013,0.026,0.006,0.0,0.006,0.006,0.045,0.006,0.006,0.0,0.006,0.066,-0.5308,0.8759,-0.1012,0.089,-0.0123,0.27,-1.1045,1.1474,0.1933,0.1258,-0.1227,0.2132,-0.9956,1.0999,0.293,0.1779,-0.25,0.075,0.1443,-0.1438,0.1089,0.2501,-0.2536,0.0271,-0.2793,0.2934,-0.0648,0.1946,-0.273,0.0803,-0.2084,0.2919,0.0163,0.0133,0.0747,-0.0109,0.0253,0.0081,0.0065,-0.0161,0.1268,-0.0393,-0.2123,-0.1297,0.5959,-0.8154,0.4495,-0.7289,0.3302,0.2948,0.6291,-0.889,0.3712,-0.6158,0.2924,0.4937,0.6473,-0.9142,0.0,0.0,0.0,0.0,0.0,0.0,0.0,0.0,0.0,
2.04,run,-0.04,3.06,-1.53,-0.68,2.45,0.0,0.0,0.0,0.156,4.13,-28.04,48.25,-4.92,6.94,-3.08,15.47,-64.69,68.99,10.11,9.14,-9.4,13.1,-58.27,66.09,17.4,10.46,-13.01,4.82,-24.83,44.03,-3.11,9.2,-6.71,15.74,-65.23,75.09,9.23,10.79,-12.33,13.66,-59.64,71.04,17.68,10.54,-11.54,0.1378,0.0032,-0.248,-0.0889,0.6218,-0.8437,0.4496,-0.7314,0.3565,0.2637,0.6507,-0.9098,0.3903,-0.6299,0.3297,0.5051,0.6462,-0.9005,0.006,0.0,0.013,0.013,0.013,0.013,0.006,0.013,0.026,0.006,0.0,0.006,0.006,0.045,0.006,0.006,0.0,0.006,0.0736,-0.5123,0.859,-0.0936,0.1058,-0.0337,0.273,-1.1198,1.172,0.1856,0.1396,-0.1442,0.2209,-1.0094,1.1259,0.3022,0.1779,-0.2408,0.0813,0.1701,-0.164,0.105,0.2383,-0.2581,0.0305,-0.2531,0.2975,-0.0742,0.188,-0.2717,0.085,-0.1977,0.3021,0.0459,0.0093,0.0868,-0.0102,0.0232,0.0077,-0.0051,-0.0147,0.1321,-0.0194,-0.2291,-0.1108,0.6104,-0.8306,0.4491,-0.7326,0.3455,0.2814,0.6397,-0.9002,0.3814,-0.6257,0.3116,0.5002,0.6467,-0.9086,0.0,0.0,0.0,0.0,0.0,0.0,0.0,0.0,0.0,
2.08,run,-0.02,3.05,0.14,-0.17,-0.26,0.0,0.0,0.0,0.156,5.01,-27.16,47.11,-4.39,7.73,-4.22,15.47,-65.13,70.4,9.76,9.76,-10.46,13.36,-58.8,67.5,17.31,10.46,-12.48,5.02,-23.77,42.72,-2.45,9.91,-7.55,15.82,-65.02,76.59,8.5,11.35,-12.88,13.89,-59.7,72.54,17.81,10.65,-10.73,0.1435,0.0224,-0.2621,-0.07,0.6348,-0.8535,0.452,-0.7276,0.3666,0.2429,0.6609,-0.9162,0.3969,-0.6309,0.3436,0.5089,0.6482,-0.891,0.006,0.0,0.013,0.013,0.013,0.013,0.006,0.013,0.026,0.006,0.0,0.006,0.006,0.045,0.006,0.006,0.0,0.006,0.066,-0.497,0.8391,-0.0813,0.1227,-0.0568,0.273,-1.1305,1.1965,0.1749,0.1534,-0.1657,0.227,-1.0201,1.1505,0.3037,0.1779,-0.2301,0.0282,0.1764,-0.1893,0.1194,0.2299,-0.2666,0.0213,-0.2173,0.3,-0.092,0.1832,-0.2704,0.0824,-0.1785,0.3032,0.0379,0.0065,0.1009,-0.0168,0.0219,-0.0266,-0.0118,0.0428,0.1378,0.0032,-0.248,-0.0889,0.6218,-0.8437,0.4496,-0.7314,0.3565,0.2637,0.6507,-0.9098,0.3903,-0.6299,0.3297,0.5051,0.6462,-0.9005,0.0,0.0,0.0,0.0,0.0,0.0,0.0,0.0,0.0,
2.12,run,-0.03,3.05,-0.34,-0.27,-0.2,0.0,0.0,0.0,0.156,5.01,-26.02,45.88,-3.69,8.61,-5.45,15.47,-65.04,71.81,9.14,10.46,-11.51,13.62,-59.24,68.99,17.93,10.46,-11.87,5.14,-22.61,41.24,-1.74,10.45,-8.53,15.75,-64.95,78.09,8.0,11.71,-13.45,14.18,-60.06,74.04,17.99,10.62,-10.2,0.147,0.0434,-0.2795,-0.0497,0.6445,-0.865,0.4501,-0.7264,0.3758,0.2285,0.6674,-0.9229,0.4051,-0.6375,0.3565,0.5139,0.6477,-0.8847,0.006,0.006,0.019,0.006,0.006,0.006,0.006,0.0,0.026,0.006,0.006,0.006,0.006,0.026,0.006,0.0,0.0,0.006,0.0813,-0.4817,0.8191,-0.0721,0.1365,-0.0767,0.273,-1.1382,1.221,0.1687,0.1641,-0.1841,0.2316,-1.0293,1.175,0.3022,0.1779,-0.2209,0.0772,0.1809,-0.2072,0.118,0.2126,-0.2613,0.0149,-0.1808,0.3019,-0.0874,0.1685,-0.2582,0.0749,-0.1594,0.3042,0.0208,0.0046,0.1051,-0.0151,0.0211,0.0024,-0.003,-0.0045,0.1435,0.0224,-0.2621,-0.07,0.6348,-0.8535,0.452,-0.7276,0.3666,0.2429,0.6609,-0.9162,0.3969,-0.6309,0.3436,0.5089,0.6482,-0.891,0.0,0.0,0.0,0.0,0.0,0.0,0.0,0.0,0.0,
2.16,run,-0.07,3.05,-0.05,0.4,0.8,0.0,0.0,0.0,0.156,4.92,-24.96,44.56,-2.99,9.4,-6.59,15.47,-65.04,73.21,8.44,11.07,-12.39,13.89,-59.41,70.4,17.93,10.46,-11.16,5.31,-21.21,39.74,-0.94,11.04,-9.49,15.66,-64.72,79.59,7.22,12.21,-13.92,14.42,-60.17,75.54,18.12,10.65,-9.42,0.1516,0.0689,-0.2995,-0.0268,0.6553,-0.8763,0.4475,-0.7221,0.3838,0.2063,0.6765,-0.9285,0.412,-0.6395,0.3685,0.5177,0.6482,-0.8755,0.006,0.006,0.019,0.006,0.006,0.006,0.006,0.0,0.026,0.006,0.006,0.006,0.006,0.026,0.006,0.0,0.0,0.006,0.0813,-0.4617,0.7977,-0.0598,0.1519,-0.0982,0.273,-1.1367,1.2456,0.158,0.1764,-0.2025,0.2362,-1.037,1.2011,0.3129,0.1779,-0.2102,0.054,0.2013,-0.2254,0.1286,0.2063,-0.2633,0.0104,-0.1208,0.3032,-0.1014,0.1638,-0.2496,0.0697,-0.1403,0.3105,0.0547,0.0032,0.1138,-0.0167,0.0216,-0.006,-0.0047,-0.0034,0.147,0.0434,-0.2795,-0.0497,0.6445,-0.865,0.4501,-0.7264,0.3758,0.2285,0.6674,-0.9229,0.4051,-0.6375,0.3565,0.5139,0.6477,-0.8847,0.0,0.0,0.0,0.0,0.0,0.0,0.0,0.0,0.0,
2.2,run,-0.05,3.04,0.03,-0.32,-1.1,0.0,0.0,0.0,0.156,5.27,-23.91,43.33,-2.29,10.02,-7.65,15.47,-64.86,74.62,7.91,11.51,-13.18,14.15,-59.59,71.81,17.93,10.46,-10.55,5.43,-19.98,38.24,-0.18,11.6,-10.27,15.59,-64.32,81.09,6.46,12.62,-14.32,14.63,-60.16,77.04,18.22,10.74,-8.62,0.1552,0.0912,-0.3182,-0.0051,0.6655,-0.8855,0.4455,-0.7149,0.3893,0.1847,0.6839,-0.9331,0.418,-0.6393,0.3772,0.5207,0.6497,-0.8662,0.006,0.006,0.019,0.006,0.006,0.006,0.006,0.0,0.026,0.006,0.006,0.006,0.006,0.026,0.006,0.0,0.0,0.006,0.0798,-0.4433,0.7747,-0.0476,0.1657,-0.1181,0.273,-1.1367,1.2701,0.1457,0.1871,-0.2178,0.2408,-1.04,1.2257,0.3129,0.1779,-0.1979,0.0321,0.21,-0.2441,0.136,0.1962,-0.2591,0.0073,-0.0846,0.3043,-0.117,0.155,-0.2323,0.066,-0.1097,0.3095,0.0383,0.0022,0.1257,-0.0195,0.0213,-0.0008,0.007,0.0139,0.1516,0.0689,-0.2995,-0.0268,0.6553,-0.8763,0.4475,-0.7221,0.3838,0.2063,0.6765,-0.9285,0.412,-0.6395,0.3685,0.5177,0.6482,-0.8755,0.0,0.0,0.0,0.0,0.0,0.0,0.0,0.0,0.0,
2.24,run,-0.08,3.03,-0.75,-0.18,0.85,0.0,0.0,0.0,0.156,5.19,-22.76,41.92,-1.58,10.72,-8.7,15.47,-64.51,76.03,7.21,12.13,-13.8,14.41,-59.68,73.21,18.11,10.46,-9.93,5.56,-18.75,36.74,0.56,11.96,-11.05,15.49,-63.98,82.59,5.85,12.89,-14.74,14.84,-60.27,78.54,18.35,10.71,-7.91,0.1588,0.1136,-0.3372,0.0161,0.6719,-0.8947,0.4425,-0.7088,0.3956,0.1671,0.689,-0.9381,0.4241,-0.6412,0.3856,0.5243,0.6493,-0.8578,0.006,0.0,0.013,0.013,0.0,0.019,0.0,0.013,0.026,0.006,0.0,0.006,0.006,0.026,0.006,0.0,0.0,0.006,0.0859,-0.4249,0.7532,-0.0353,0.1764,-0.1365,0.273,-1.1336,1.2947,0.1365,0.1948,-0.2316,0.2454,-1.0431,1.2502,0.3129,0.1779,-0.1871,0.0455,0.216,-0.2515,0.1413,0.1776,-0.2505,0.0051,-0.0477,0.3051,-0.1164,0.1373,-0.2144,0.0635,-0.0883,0.3087,0.0268,0.0016,0.1283,-0.018,0.0204,0.0005,-0.0055,-0.0193,0.1552,0.0912,-0.3182,-0.0051,0.6655,-0.8855,0.4455,-0.7149,0.3893,0.1847,0.6839,-0.9331,0.418,-0.6393,0.3772,0.5207,0.6497,-0.8662,0.0,0.0,0.0,0.0,0.0,0.0,0.0,0.0,0.0,
2.28,run,-0.06,3.03,0.39,0.11,-0.5,0.0,0.0,0.0,0.156,5.54,-21.36,40.34,-0.62,11.43,-9.84,15.47,-64.07,77.78,6.33,12.66,-14.5,14.68,-59.68,74.88,18.28,10.55,-8.96,5.68,-17.41,35.24,1.35,12.43,-11.66,15.36,-63.33,84.09,5.07,13.3,-15.07,14.98,-59.99,80.04,18.39,10.69,-6.9,0.1622,0.138,-0.3587,0.0387,0.6806,-0.9019,0.439,-0.6969,0.3994,0.1449,0.6963,-0.9419,0.4281,-0.6362,0.3935,0.5255,0.649,-0.8459,0.006,0.0,0.013,0.013,0.0,0.019,0.0,0.013,0.026,0.006,0.0,0.006,0.006,0.026,0.006,0.0,0.0,0.006,0.0844,-0.405,0.7286,-0.023,0.1887,-0.1549,0.273,-1.1275,1.3192,0.1243,0.2056,-0.2424,0.25,-1.0446,1.2747,0.316,0.1779,-0.1764,0.0261,0.2261,-0.2682,0.145,0.1704,-0.2445,0.0036,-0.0103,0.3058,-0.1276,0.1364,-0.1904,0.0617,-0.0676,0.3083,0.0303,0.0011,0.1301,-0.021,0.0192,-0.013,-0.0031,0.0148,0.1588,0.1136,-0.3372,0.0161,0.6719,-0.8947,0.4425,-0.7088,0.3956,0.1671,0.689,-0.9381,0.4241,-0.6412,0.3856,0.5243,0.6493,-0.8578,0.0,0.0,0.0,0.0,0.0,0.0,0.0,0.0,0.0,
2.32,run,-0.06,3.06,0.18,-0.13,1.18,0.0,0.0,0.0,0.156,5.54,-20.21,39.02,-0.09,11.78,-10.63,15.47,-63.98,79.1,5.89,12.83,-14.77,14.77,-59.68,76.29,18.28,10.55,-8.35,5.79,-15.91,33.74,2.28,12.9,-12.45,15.13,-62.69,85.59,4.3,13.65,-15.49,15.16,-59.92,81.54,18.48,10.66,-5.94,0.1653,0.1674,-0.3843,0.0651,0.6892,-0.9112,0.4323,-0.6853,0.4032,0.1227,0.7028,-0.9469,0.433,-0.635,0.4006,0.5281,0.6484,-0.8346,0.006,0.0,0.013,0.013,0.0,0.019,0.0,0.013,0.026,0.006,0.0,0.006,0.006,0.026,0.006,0.0,0.0,0.006,0.0905,-0.3804,0.701,-0.0061,0.201,-0.1749,0.273,-1.1198,1.3499,0.1089,0.2148,-0.2546,0.2546,-1.0446,1.3039,0.3191,0.1795,-0.1595,0.0373,0.2346,-0.2736,0.1539,0.1574,-0.2331,0.0025,0.0166,0.3094,-0.137,0.1241,-0.1714,0.0575,-0.0473,0.3064,0.0307,0.0055,0.1435,-0.0191,0.0197,0.0068,0.0019,-0.0087,0.1622,0.138,-0.3587,0.0387,0.6806,-0.9019,0.439,-0.6969,0.3994,0.1449,0.6963,-0.9419,0.4281,-0.6362,0.3935,0.5255,0.649,-0.8459,0.0,0.0,0.0,0.0,0.0,0.0,0.0,0.0,0.0,
2.36,run,-0.08,3.05,-0.14,-0.07,0.03,0.0,0.0,0.0,0.156,5.62,-19.07,37.71,0.62,12.22,-11.43,15.47,-63.46,80.6,5.19,13.18,-15.21,14.94,-59.68,77.78,18.37,10.55,-7.65,5.89,-14.61,32.24,2.99,13.18,-12.95,15.05,-61.9,87.09,3.67,13.9,-15.74,15.27,-59.54,83.04,18.48,10.59,-5.0,0.1681,0.1889,-0.405,0.0854,0.6941,-0.9171,0.4299,-0.6708,0.4051,0.1049,0.7073,-0.9499,0.4362,-0.6279,0.4056,0.5281,0.6472,-0.8236,0.0,0.006,0.013,0.013,0.006,0.006,0.006,0.0,0.019,0.006,0.0,0.006,0.0,0.0,0.006,0.0,0.0,0.013,0.0905,-0.3605,0.678,0.0031,0.2071,-0.1887,0.273,-1.1183,1.3729,0.1012,0.2178,-0.2592,0.2562,-1.0446,1.3284,0.3191,0.1795,-0.1488,0.0261,0.2386,-0.2774,0.1421,0.1331,-0.2147,0.0018,0.0173,0.3025,-0.1245,0.0983,-0.1372,0.046,-0.0331,0.3061,0.0215,0.0039,0.1405,-0.0189,0.0221,0.0031,-0.0023,0.0206,0.1653,0.1674,-0.3843,0.0651,0.6892,-0.9112,0.4323,-0.6853,0.4032,0.1227,0.7028,-0.9469,0.433,-0.635,0.4006,0.5281,0.6484,-0.8346,0.0,0.0,0.0,0.0,0.0,0.0,0.0,0.0,0.0,
2.4,run,-0.07,3.07,0.17,0.25,0.42,0.0,0.0,0.0,0.156,5.98,-17.49,36.04,1.49,12.83,-12.3,15.47,-62.58,82.18,4.31,13.62,-15.64,15.21,-59.5,79.28,18.37,10.55,-6.68,6.01,-13.24,30.74,3.69,13.51,-13.47,14.84,-61.25,88.59,3.07,14.15,-16.02,15.37,-59.43,84.54,18.52,10.51,-4.12,0.1716,0.2138,-0.4252,0.1056,0.7001,-0.9232,0.4241,-0.6591,0.4087,0.0878,0.7119,-0.9531,0.4391,-0.6259,0.4101,0.5292,0.6457,-0.8132,0.0,0.006,0.013,0.013,0.006,0.006,0.006,0.0,0.019,0.006,0.0,0.006,0.0,0.0,0.006,0.0,0.0,0.013,0.092,-0.3405,0.655,0.0153,0.2148,-0.2025,0.273,-1.1091,1.399,0.089,0.224,-0.2669,0.2592,-1.0446,1.3545,0.3206,0.1795,-0.1365,0.024,0.2414,-0.2799,0.1452,0.1218,-0.2017,0.0012,0.0464,0.3089,-0.1329,0.0917,-0.1246,0.0436,-0.0232,0.3114,0.0208,0.0027,0.1441,-0.0206,0.0212,-0.0024,-0.0013,0.0006,0.1681,0.1889,-0.405,0.0854,0.6941,-0.9171,0.4299,-0.6708,0.4051,0.1049,0.7073,-0.9499,0.4362,-0.6279,0.4056,0.5281,0.6472,-0.8236,0.0,0.0,0.0,0.0,0.0,0.0,0.0,0.0,0.0,
2.44,run,-0.07,3.07,-0.3,-0.12,0.15,0.0,0.0,0.0,0.156,5.8,-16.44,34.72,2.2,13.1,-12.83,15.21,-62.05,83.58,3.69,13.89,-15.73,15.21,-59.24,80.77,18.37,10.55,-5.89,6.13,-11.74,29.24,4.56,13.94,-13.91,14.51,-60.25,90.09,2.37,14.45,-16.27,15.43,-59.07,86.04,18.51,10.39,-2.87,0.175,0.2438,-0.4517,0.1304,0.708,-0.9284,0.4145,-0.6409,0.4102,0.0676,0.7172,-0.9561,0.4408,-0.6195,0.4147,0.529,0.6434,-0.7985,0.0,0.006,0.013,0.013,0.006,0.006,0.006,0.0,0.019,0.006,0.0,0.006,0.0,0.0,0.006,0.0,0.0,0.013,0.0982,-0.3129,0.6259,0.0307,0.2255,-0.2178,0.273,-1.0937,1.4266,0.0736,0.2316,-0.2746,0.2638,-1.0416,1.3806,0.3206,0.1795,-0.1197,0.0366,0.2582,-0.2901,0.1512,0.1199,-0.1908,0.0009,0.0821,0.3054,-0.1426,0.089,-0.112,0.0454,-0.0063,0.3023,0.0145,0.0019,0.1554,-0.0197,0.0234,0.0029,0.0043,0.0074,0.1716,0.2138,-0.4252,0.1056,0.7001,-0.9232,0.4241,-0.6591,0.4087,0.0878,0.7119,-0.9531,0.4391,-0.6259,0.4101,0.5292,0.6457,-0.8132,0.0,0.0,0.0,0.0,0.0,0.0,0.0,0.0,0.0,
2.48,run,-0.06,3.09,0.62,0.22,0.06,0.0,0.0,0.0,0.156,6.15,-15.21,33.31,2.99,13.45,-13.45,14.85,-61.26,84.99,3.08,14.06,-16.26,15.29,-59.15,82.27,18.54,10.55,-5.01,6.23,-10.34,27.74,5.24,14.16,-14.18,14.32,-59.44,91.59,1.82,14.6,-16.47,15.51,-58.83,87.54,18.5,10.25,-1.98,0.178,0.2666,-0.4723,0.1496,0.712,-0.9316,0.4092,-0.6262,0.4121,0.0521,0.72,-0.9584,0.443,-0.6152,0.4171,0.5285,0.6409,-0.788,0.006,0.006,0.013,0.013,0.006,0.006,0.0,0.006,0.019,0.006,0.0,0.006,0.006,0.006,0.013,0.0,0.006,0.006,0.0951,-0.2945,0.6029,0.043,0.2301,-0.227,0.2684,-1.0845,1.4511,0.0629,0.2362,-0.2761,0.2638,-1.037,1.4067,0.3206,0.1795,-0.1058,0.0142,0.2492,-0.2887,0.1515,0.1011,-0.1678,-0.0165,0.0917,0.3052,-0.1398,0.0794,-0.0841,0.0318,0.0127,0.3086,0.0102,0.0013,0.1602,-0.02,0.0232,-0.0053,-0.0021,0.0026,0.175,0.2438,-0.4517,0.1304,0.708,-0.9284,0.4145,-0.6409,0.4102,0.0676,0.7172,-0.9561,0.4408,-0.6195,0.4147,0.529,0.6434,-0.7985,0.0,0.0,0.0,0.0,0.0,0.0,0.0,0.0,0.0,
2.52,run,-0.06,3.11,0.28,0.41,0.13,0.0,0.0,0.0,0.156,6.15,-13.8,31.99,3.78,13.89,-13.89,14.5,-60.38,86.4,2.37,14.41,-16.35,15.29,-58.89,83.58,18.46,10.55,-3.96,6.33,-8.93,26.24,5.93,14.48,-14.49,14.02,-58.58,93.09,1.34,14.77,-16.63,15.53,-58.6,89.04,18.48,10.08,-1.0,0.1807,0.2922,-0.4947,0.1694,0.7179,-0.9352,0.4007,-0.6106,0.4127,0.0384,0.723,-0.9603,0.4437,-0.6109,0.4196,0.528,0.6379,-0.7765,0.006,0.006,0.013,0.013,0.006,0.006,0.0,0.006,0.019,0.006,0.0,0.006,0.006,0.006,0.013,0.0,0.006,0.006,0.1012,-0.273,0.5783,0.0568,0.2362,-0.2378,0.2623,-1.0707,1.4757,0.0522,0.2393,-0.2853,0.2654,-1.0354,1.4327,0.3237,0.1795,-0.0905,0.0329,0.2548,-0.2939,0.1577,0.0937,-0.1576,-0.0345,0.1158,0.3054,-0.138,0.0671,-0.0933,0.028,0.0146,0.3136,0.0186,0.0009,0.1695,-0.0186,0.0248,0.0108,0.0038,0.0011,0.178,0.2666,-0.4723,0.1496,0.712,-0.9316,0.4092,-0.6262,0.4121,0.0521,0.72,-0.9584,0.443,-0.6152,0.4171,0.5285,0.6409,-0.788,0.0,0.0,0.0,0.0,0.0,0.0,0.0,0.0,0.0,
2.56,run,-0.09,3.13,-0.03,0.16,0.38,0.0,0.0,0.0,0.156,6.15,-12.57,30.5,4.48,14.15,-14.24,14.41,-59.68,87.8,1.76,14.59,-16.44,15.38,-58.71,85.08,18.46,10.55,-3.08,6.42,-7.63,24.74,6.59,14.69,-14.52,13.69,-57.59,94.59,0.87,14.84,-16.67,15.53,-58.25,90.54,18.4,9.85,0.04,0.1834,0.3158,-0.5162,0.1882,0.7217,-0.9356,0.3913,-0.5925,0.4131,0.0249,0.7243,-0.9609,0.4438,-0.6045,0.4207,0.5257,0.6337,-0.7642,0.006,0.006,0.013,0.013,0.006,0.006,0.0,0.006,0.019,0.006,0.0,0.006,0.006,0.006,0.013,0.0,0.006,0.006,0.1012,-0.2485,0.5553,0.0706,0.2439,-0.2454,0.2562,-1.0554,1.5002,0.0399,0.2454,-0.2869,0.2654,-1.0308,1.4557,0.3221,0.1795,-0.0721,0.023,0.2706,-0.2922,0.1623,0.0944,-0.1392,-0.0472,0.1387,0.3061,-0.1427,0.07,-0.0711,0.0196,0.0275,0.306,0.0073,0.0007,0.1878,-0.0191,0.0268,0.0049,0.0071,0.0023,0.1807,0.2922,-0.4947,0.1694,0.7179,-0.9352,0.4007,-0.6106,0.4127,0.0384,0.723,-0.9603,0.4437,-0.6109,0.4196,0.528,0.6379,-0.7765,0.0,0.0,0.0,0.0,0.0,0.0,0.0,0.0,0.0,
2.6,run,-0.08,3.15,0.86,0.24,-1.32,0.0,0.0,0.0,0.156,6.42,-11.16,29.09,5.27,14.41,-14.41,14.06,-58.8,89.21,1.14,14.77,-16.61,15.38,-58.45,86.57,18.46,10.28,-2.11,6.49,-6.39,23.24,7.2,14.87,-14.64,13.44,-56.63,96.09,0.45,14.92,-16.69,15.53,-57.93,92.04,18.31,9.58,0.97,0.1854,0.3383,-0.5358,0.2056,0.725,-0.9369,0.3839,-0.5751,0.4133,0.0128,0.7259,-0.961,0.4439,-0.5988,0.4224,0.5232,0.6287,-0.7533,0.0,0.006,0.013,0.019,0.0,0.013,0.006,0.006,0.026,0.006,0.0,0.0,0.006,0.006,0.006,0.006,0.006,0.006,0.1012,-0.227,0.5292,0.0828,0.2485,-0.2516,0.2546,-1.0431,1.5248,0.0291,0.2485,-0.2884,0.2669,-1.0278,1.4818,0.3221,0.1795,-0.0568,0.0161,0.2693,-0.3016,0.1593,0.0832,-0.1203,-0.0388,0.1428,0.3056,-0.1399,0.0604,-0.0555,0.0194,0.0307,0.3112,0.0051,0.0005,0.1886,-0.0216,0.0281,-0.0005,0.0027,0.0066,0.1834,0.3158,-0.5162,0.1882,0.7217,-0.9356,0.3913,-0.5925,0.4131,0.0249,0.7243,-0.9609,0.4438,-0.6045,0.4207,0.5257,0.6337,-0.7642,0.0,0.0,0.0,0.0,0.0,0.0,0.0,0.0,0.0,
2.64,run,-0.08,3.14,-0.29,-0.26,0.37,0.0,0.0,0.0,0.156,6.24,-9.84,27.69,5.89,14.68,-14.5,13.8,-57.92,90.7,0.7,14.77,-16.52,15.38,-58.01,87.89,18.37,10.11,-1.05,6.54,-5.22,21.74,7.76,15.01,-14.89,13.1,-55.8,97.59,0.13,14.9,-16.78,15.56,-57.79,93.54,18.25,9.29,1.72,0.1868,0.3596,-0.5559,0.2218,0.7275,-0.9399,0.3744,-0.5599,0.4121,0.0038,0.7255,-0.9621,0.4445,-0.5962,0.4222,0.5214,0.6234,-0.7445,0.0,0.006,0.013,0.019,0.0,0.013,0.006,0.006,0.026,0.006,0.0,0.0,0.006,0.006,0.006,0.006,0.006,0.006,0.1058,-0.2025,0.5047,0.0966,0.2531,-0.2546,0.2485,-1.0278,1.5493,0.0184,0.2516,-0.2915,0.2669,-1.0232,1.5079,0.3221,0.1749,-0.0399,0.0286,0.2808,-0.3033,0.1634,0.0755,-0.0957,-0.0502,0.1576,0.3061,-0.1383,0.0538,-0.0504,0.0136,0.0388,0.3159,0.0036,-0.017,0.1954,-0.0202,0.0296,0.0151,0.0042,-0.023,0.1854,0.3383,-0.5358,0.2056,0.725,-0.9369,0.3839,-0.5751,0.4133,0.0128,0.7259,-0.961,0.4439,-0.5988,0.4224,0.5232,0.6287,-0.7533,0.0,0.0,0.0,0.0,0.0,0.0,0.0,0.0,0.0,
2.68,run,-0.1,3.14,-0.08,0.05,0.67,0.0,0.0,0.0,0.156,6.42,-8.61,26.28,6.59,14.77,-14.5,13.45,-56.95,92.11,0.26,14.77,-16.79,15.47,-57.92,89.38,18.28,9.84,-0.09,6.61,-4.17,20.24,8.31,15.03,-14.71,12.85,-54.74,99.09,-0.21,14.85,-16.61,15.54,-57.4,95.04,18.07,8.91,2.59,0.1888,0.3787,-0.5745,0.2374,0.7278,-0.9378,0.3671,-0.5407,0.4102,-0.006,0.7246,-0.9601,0.4439,-0.5891,0.4221,0.5164,0.6166,-0.7343,0.0,0.006,0.013,0.019,0.0,0.013,0.006,0.006,0.026,0.006,0.0,0.0,0.006,0.006,0.006,0.006,0.006,0.006,0.1028,-0.1795,0.4801,0.1074,0.2577,-0.2562,0.2439,-1.0124,1.5754,0.0107,0.2516,-0.2899,0.2669,-1.0155,1.5309,0.3206,0.1718,-0.0215,0.0085,0.2828,-0.3044,0.1546,0.0701,-0.0727,-0.0524,0.1678,0.3121,-0.1255,0.0377,-0.0295,0.0095,0.0559,0.3074,-0.0033,-0.0234,0.2058,-0.0208,0.0292,-0.0051,-0.0045,0.0064,0.1868,0.3596,-0.5559,0.2218,0.7275,-0.9399,0.3744,-0.5599,0.4121,0.0038,0.7255,-0.9621,0.4445,-0.5962,0.4222,0.5214,0.6234,-0.7445,0.0,0.0,0.0,0.0,0.0,0.0,0.0,0.0,0.0,
2.72,run,-0.1,3.15,-0.01,0.01,-0.84,0.0,0.0,0.0,0.156,6.5,-7.21,24.87,7.21,14.94,-14.59,13.18,-56.16,93.43,-0.09,14.77,-16.79,15.38,-57.66,90.79,18.11,9.58,0.79,6.63,-3.1,18.74,8.8,15.09,-14.79,12.56,-53.81,99.69,-0.44,14.76,-16.45,15.5,-57.17,96.54,17.95,8.53,3.32,0.1895,0.3981,-0.5915,0.2513,0.7289,-0.9387,0.3589,-0.5238,0.4081,-0.0125,0.7229,-0.9582,0.4429,-0.5849,0.4213,0.513,0.6096,-0.7257,0.0,0.0,0.006,0.006,0.0,0.006,0.006,0.006,0.026,0.013,0.0,0.006,0.0,0.013,0.006,0.0,0.019,0.006,0.1058,-0.158,0.4556,0.1197,0.2592,-0.2562,0.2378,-0.9956,1.5999,0.0031,0.2516,-0.2945,0.2684,-1.014,1.557,0.3191,0.1672,-0.0046,0.0175,0.2786,-0.3052,0.1543,0.0549,-0.0509,-0.0597,0.1808,0.3105,-0.1167,0.0264,-0.0379,0.0124,0.0449,0.313,-0.008,-0.0336,0.2074,-0.0223,0.0293,-0.0015,0.0009,0.0118,0.1888,0.3787,-0.5745,0.2374,0.7278,-0.9378,0.3671,-0.5407,0.4102,-0.006,0.7246,-0.9601,0.4439,-0.5891,0.4221,0.5164,0.6166,-0.7343,0.0,0.0,0.0,0.0,0.0,0.0,0.0,0.0,0.0,
2.76,run,-0.09,3.14,0.24,0.17,0.06,0.0,0.0,0.0,0.156,6.5,-5.8,23.12,7.91,14.94,-14.68,12.83,-54.93,95.19,-0.44,14.77,-16.52,15.38,-57.22,92.55,17.84,9.23,1.93,6.62,-2.27,17.24,9.2,15.01,-14.81,12.29,-53.07,99.51,-0.6,14.55,-16.28,15.51,-57.06,98.04,17.8,8.09,3.8,0.1892,0.4132,-0.6059,0.2628,0.7274,-0.939,0.351,-0.5103,0.406,-0.0172,0.7191,-0.9562,0.4431,-0.583,0.4196,0.5086,0.6017,-0.72,0.0,0.0,0.006,0.006,0.0,0.006,0.006,0.006,0.026,0.013,0.0,0.006,0.0,0.013,0.006,0.0,0.019,0.006,0.1074,-0.1335,0.431,0.1304,0.2623,-0.2577,0.2332,-0.9817,1.623,-0.0031,0.2516,-0.2945,0.2669,-1.0094,1.5815,0.316,0.1626,0.0107,0.018,0.2867,-0.3053,0.1481,0.0499,-0.0414,-0.059,0.1781,0.3033,-0.1046,0.0185,-0.0265,0.003,0.0486,0.3108,-0.0171,-0.0407,0.2025,-0.0223,0.0299,-0.0003,0.0002,-0.0146,0.1895,0.3981,-0.5915,0.2513,0.7289,-0.9387,0.3589,-0.5238,0.4081,-0.0125,0.7229,-0.9582,0.4429,-0.5849,0.4213,0.513,0.6096,-0.7257,0.0,0.0,0.0,0.0,0.0,0.0,0.0,0.0,0.0,
2.8,run,-0.1,3.11,-0.09,-0.19,-0.62,0.0,0.0,0.0,0.156,6.5,-4.66,21.71,8.35,14.94,-14.68,12.74,-54.23,96.5,-0.44,14.77,-16.52,15.38,-57.22,93.96,17.84,8.96,2.64,6.62,-1.37,15.74,9.66,14.87,-14.55,11.97,-52.05,99.2,-0.79,14.25,-15.9,15.46,-56.84,99.54,17.54,7.5,4.33,0.189,0.4295,-0.623,0.276,0.725,-0.9359,0.3419,-0.4919,0.4023,-0.0225,0.7136,-0.9518,0.4418,-0.579,0.4171,0.5011,0.591,-0.7137,0.0,0.0,0.006,0.006,0.0,0.006,0.006,0.006,0.026,0.013,0.0,0.006,0.0,0.013,0.006,0.0,0.019,0.006,0.1074,-0.1089,0.4004,0.1427,0.2623,-0.2592,0.227,-0.9603,1.6536,-0.0092,0.2516,-0.2899,0.2669,-1.0017,1.6122,0.3114,0.1565,0.0307,0.0126,0.2777,-0.31,0.1422,0.0349,-0.0338,-0.0605,0.1921,0.3086,-0.0925,0.0129,-0.0041,0.0021,0.0581,0.3138,-0.0264,-0.0478,0.2043,-0.0218,0.0289,0.0041,0.003,0.001,0.1892,0.4132,-0.6059,0.2628,0.7274,-0.939,0.351,-0.5103,0.406,-0.0172,0.7191,-0.9562,0.4431,-0.583,0.4196,0.5086,0.6017,-0.72,0.0,0.0,0.0,0.0,0.0,0.0,0.0,0.0,0.0,
2.84,run,-0.1,3.12,-0.22,0.26,0.58,0.0,0.0,0.0,0.156,6.5,-3.6,20.3,8.88,14.94,-14.59,12.3,-53.35,97.56,-0.79,14.77,-16.17,15.38,-56.95,95.45,17.67,8.7,3.25,6.56,-0.68,14.24,10.01,14.7,-14.58,11.75,-51.36,98.87,-0.93,14.01,-15.61,15.45,-56.76,100.23,17.33,6.96,4.68,0.1875,0.4422,-0.635,0.2861,0.7218,-0.9362,0.3357,-0.4794,0.3985,-0.0265,0.7093,-0.9484,0.4415,-0.5775,0.4145,0.4951,0.581,-0.7096,0.0,0.006,0.013,0.013,0.006,0.0,0.006,0.006,0.013,0.0,0.019,0.0,0.0,0.0,0.006,0.0,0.026,0.006,0.1074,-0.089,0.3758,0.1503,0.2623,-0.2592,0.2255,-0.948,1.6766,-0.0092,0.2516,-0.2899,0.2669,-1.0017,1.6368,0.3114,0.1519,0.043,0.0088,0.2676,-0.3071,0.1277,0.0244,-0.0236,-0.048,0.1795,0.3005,-0.0647,0.009,-0.0029,0.0015,0.0407,0.3098,-0.0185,-0.0503,0.1881,-0.0225,0.0268,-0.0016,-0.0033,-0.0107,0.189,0.4295,-0.623,0.276,0.725,-0.9359,0.3419,-0.4919,0.4023,-0.0225,0.7136,-0.9518,0.4418,-0.579,0.4171,0.5011,0.591,-0.7137,0.0,0.0,0.0,0.0,0.0,0.0,0.0,0.0,0.0,
2.88,run,-0.11,3.11,-0.29,-0.1,0.22,0.0,0.0,0.0,0.156,6.5,-2.37,18.63,9.32,14.94,-14.5,12.04,-52.21,98.44,-0.79,14.59,-15.73,15.38,-56.87,97.03,17.23,8.0,4.04,6.49,-0.13,12.74,10.32,14.45,-14.34,11.52,-50.6,98.5,-1.01,13.64,-15.22,15.44,-56.57,99.98,17.1,6.39,4.94,0.1853,0.4521,-0.6464,0.2949,0.7172,-0.9334,0.3291,-0.4655,0.3941,-0.0288,0.7026,-0.9438,0.441,-0.5741,0.4115,0.4886,0.5706,-0.7066,0.0,0.006,0.013,0.013,0.006,0.0,0.006,0.006,0.013,0.0,0.019,0.0,0.0,0.0,0.006,0.0,0.026,0.006,0.1074,-0.0706,0.3513,0.1595,0.2623,-0.2577,0.2178,-0.9327,1.695,-0.0153,0.2516,-0.2838,0.2669,-0.9971,1.6628,0.3083,0.1473,0.0537,0.0062,0.2564,-0.307,0.1239,0.0171,-0.0108,-0.0624,0.1832,0.2794,-0.0683,0.0063,0.021,0.001,0.0457,0.3147,-0.0244,-0.0525,0.1719,-0.0226,0.0273,-0.0039,0.0046,0.0102,0.1875,0.4422,-0.635,0.2861,0.7218,-0.9362,0.3357,-0.4794,0.3985,-0.0265,0.7093,-0.9484,0.4415,-0.5775,0.4145,0.4951,0.581,-0.7096,0.0,0.0,0.0,0.0,0.0,0.0,0.0,0.0,0.0,
2.92,run,-0.1,3.13,0.07,0.06,-0.39,0.0,0.0,0.0,0.156,6.5,-1.58,17.23,9.58,14.94,-14.5,11.87,-51.59,98.96,-0.97,14.33,-15.73,15.38,-56.78,98.26,17.23,7.65,4.39,6.41,0.42,11.24,10.59,14.12,-14.31,11.28,-49.87,97.99,-1.03,13.2,-14.8,15.42,-56.52,99.67,16.84,5.65,5.16,0.1832,0.4621,-0.6579,0.3026,0.7113,-0.9331,0.3222,-0.4521,0.3882,-0.0293,0.6945,-0.9388,0.4407,-0.5732,0.4078,0.4812,0.5573,-0.704,0.0,0.006,0.013,0.013,0.006,0.0,0.006,0.006,0.013,0.0,0.019,0.0,0.0,0.0,0.006,0.0,0.026,0.006,0.1074,-0.0491,0.3221,0.1672,0.2623,-0.2562,0.2132,-0.9127,1.7104,-0.0153,0.2485,-0.2761,0.2669,-0.9956,1.6904,0.3007,0.135,0.0675,0.0043,0.2482,-0.3083,0.1113,0.012,-0.0026,-0.0584,0.1921,0.2447,-0.0478,-0.0054,0.0393,0.0007,0.0369,0.3087,-0.0417,-0.0761,0.1646,-0.0235,0.0264,-0.0051,-0.0018,0.0038,0.1853,0.4521,-0.6464,0.2949,0.7172,-0.9334,0.3291,-0.4655,0.3941,-0.0288,0.7026,-0.9438,0.441,-0.5741,0.4115,0.4886,0.5706,-0.7066,0.0,0.0,0.0,0.0,0.0,0.0,0.0,0.0,0.0,
2.96,run,-0.09,3.11,0.22,0.26,0.17,0.0,0.0,0.0,0.156,6.5,-0.7,15.91,10.02,14.85,-14.41,11.51,-50.8,98.96,-1.05,13.97,-15.21,15.38,-56.6,99.23,17.05,7.03,4.83,6.3,0.86,9.74,10.79,13.85,-14.35,11.12,-49.37,97.49,-1.06,12.87,-14.46,15.46,-56.53,99.34,16.65,5.12,5.23,0.1799,0.4702,-0.6657,0.3084,0.7063,-0.9336,0.3176,-0.4432,0.3822,-0.0303,0.6886,-0.9348,0.4417,-0.5732,0.404,0.4757,0.5477,-0.7032,0.006,0.006,0.019,0.006,0.013,0.0,0.006,0.006,0.0,0.0,0.013,0.0,0.0,0.0,0.0,0.0,0.026,0.0,0.1074,-0.0353,0.2976,0.1718,0.2623,-0.2562,0.2102,-0.902,1.7196,-0.0184,0.2439,-0.2761,0.2669,-0.994,1.7119,0.3007,0.1289,0.0736,0.003,0.2251,-0.3071,0.095,0.0084,-0.0019,-0.0523,0.1744,0.2055,-0.0449,-0.0209,0.0275,0.0005,0.0316,0.296,-0.0292,-0.0761,0.138,-0.0223,0.0278,0.0012,0.001,-0.0069,0.1832,0.4621,-0.6579,0.3026,0.7113,-0.9331,0.3222,-0.4521,0.3882,-0.0293,0.6945,-0.9388,0.4407,-0.5732,0.4078,0.4812,0.5573,-0.704,0.0,0.0,0.0,0.0,0.0,0.0,0.0,0.0,0.0,
3.0,run,-0.11,3.1,-0.35,-0.09,0.46,0.0,0.0,0.0,0.156,6.33,0.0,14.41,10.28,14.5,-14.33,11.25,-50.1,98.88,-0.97,13.54,-14.68,15.38,-56.69,99.76,16.44,6.42,5.01,6.19,1.07,8.24,10.93,13.49,-14.23,10.95,-48.81,96.9,-1.03,12.49,-14.12,15.48,-56.4,98.92,16.46,4.54,5.26,0.1769,0.474,-0.6729,0.3124,0.6998,-0.9321,0.313,-0.4329,0.3753,-0.0295,0.6816,-0.9308,0.4424,-0.5708,0.3991,0.4702,0.5372,-0.7028,0.006,0.006,0.019,0.006,0.013,0.0,0.006,0.006,0.0,0.0,0.013,0.0,0.0,0.0,0.0,0.0,0.026,0.0,0.1074,-0.0199,0.2746,0.1795,0.2608,-0.2546,0.204,-0.8882,1.7196,-0.0199,0.2378,-0.2669,0.2669,-0.991,1.7288,0.2976,0.1181,0.0813,0.0021,0.2152,-0.3013,0.0953,0.0001,0.0045,-0.0596,0.1739,0.1439,-0.0372,-0.0377,0.0538,0.0003,0.0336,0.2705,-0.0319,-0.0935,0.1254,-0.0211,0.0266,0.0039,0.0046,0.003,0.1799,0.4702,-0.6657,0.3084,0.7063,-0.9336,0.3176,-0.4432,0.3822,-0.0303,0.6886,-0.9348,0.4417,-0.5732,0.404,0.4757,0.5477,-0.7032,0.0,0.0,0.0,0.0,0.0,0.0,0.0,0.0,0.0,
3.04,run,-0.08,3.11,0.47,0.33,-0.16,0.0,0.0,0.0,0.156,6.33,0.53,12.92,10.46,14.24,-14.33,11.25,-49.48,98.35,-0.97,13.18,-14.5,15.38,-56.6,100.02,16.44,5.8,5.01,6.11,1.26,7.48,11.02,13.17,-14.33,10.87,-48.28,96.49,-1.0,12.14,-13.73,15.47,-56.31,98.58,16.28,3.99,5.51,0.1746,0.4775,-0.6767,0.3148,0.6939,-0.9332,0.3105,-0.4234,0.3705,-0.0285,0.6752,-0.9263,0.442,-0.5693,0.3951,0.4652,0.5271,-0.6999,0.006,0.006,0.019,0.006,0.013,0.0,0.006,0.006,0.0,0.0,0.013,0.0,0.0,0.0,0.0,0.0,0.026,0.0,0.1043,-0.0077,0.2485,0.1841,0.2546,-0.2531,0.1994,-0.8759,1.7181,-0.0184,0.2301,-0.2577,0.2669,-0.9925,1.738,0.2869,0.1074,0.0844,-0.01,0.1966,-0.3087,0.084,-0.0229,0.0089,-0.059,0.1677,0.095,-0.0203,-0.0551,0.0721,0.0002,0.0178,0.2239,-0.0626,-0.1057,0.0993,-0.0232,0.0257,-0.0061,-0.0015,0.008,0.1769,0.474,-0.6729,0.3124,0.6998,-0.9321,0.313,-0.4329,0.3753,-0.0295,0.6816,-0.9308,0.4424,-0.5708,0.3991,0.4702,0.5372,-0.7028,0.0,0.0,0.0,0.0,0.0,0.0,0.0,0.0,0.0,
3.08,run,-0.09,3.1,-0.08,-0.11,-0.33,0.0,0.0,0.0,0.156,5.98,0.97,11.51,10.63,13.89,-14.33,11.07,-48.87,97.82,-0.97,12.83,-13.89,15.38,-56.43,100.02,16.44,5.19,5.1,6.0,1.34,7.16,11.02,12.86,-14.39,10.76,-47.95,95.84,-0.95,11.9,-13.55,15.51,-56.25,98.14,16.15,3.56,5.43,0.1714,0.4789,-0.6805,0.315,0.6885,-0.934,0.3074,-0.4173,0.3628,-0.0273,0.671,-0.9241,0.4433,-0.5682,0.3899,0.4615,0.5193,-0.7009,0.0,0.0,0.013,0.0,0.013,0.0,0.006,0.0,0.019,0.0,0.019,0.006,0.006,0.0,0.006,0.006,0.026,0.0,0.1043,0.0015,0.2224,0.1871,0.25,-0.2531,0.1994,-0.8652,1.7089,-0.0184,0.224,-0.2546,0.2669,-0.991,1.7426,0.2869,0.0966,0.0844,-0.007,0.1722,-0.3139,0.0703,-0.0333,0.0062,-0.0413,0.1577,0.0319,-0.0142,-0.0616,0.062,0.0002,0.0182,0.174,-0.0438,-0.1143,0.0695,-0.0203,0.0265,0.0081,0.0058,-0.0028,0.1746,0.4775,-0.6767,0.3148,0.6939,-0.9332,0.3105,-0.4234,0.3705,-0.0285,0.6752,-0.9263,0.442,-0.5693,0.3951,0.4652,0.5271,-0.6999,0.0,0.0,0.0,0.0,0.0,0.0,0.0,0.0,0.0,
3.12,run,-0.09,3.09,-0.07,0.03,-0.31,0.0,0.0,0.0,0.156,6.06,1.14,9.67,10.63,13.36,-14.33,10.9,-48.16,97.03,-0.97,12.3,-13.62,15.38,-56.34,98.96,16.08,4.48,5.27,5.93,1.37,6.92,11.07,12.6,-14.36,10.7,-47.67,95.35,-0.99,11.72,-13.41,15.55,-56.2,97.62,16.01,3.19,5.5,0.1694,0.4795,-0.6832,0.3164,0.6835,-0.9337,0.3056,-0.4122,0.3571,-0.0282,0.6676,-0.9224,0.4441,-0.5672,0.3838,0.4574,0.5126,-0.7,0.0,0.0,0.013,0.0,0.013,0.0,0.006,0.0,0.019,0.0,0.019,0.006,0.006,0.0,0.006,0.006,0.026,0.0,0.0982,0.0092,0.1979,0.1902,0.2439,-0.2531,0.1963,-0.8544,1.6997,-0.0184,0.2178,-0.2439,0.2669,-0.9879,1.7426,0.2869,0.0859,0.0859,-0.0279,0.1493,-0.3118,0.0607,-0.0463,0.0043,-0.0404,0.1507,-0.0122,-0.0099,-0.0661,0.0837,0.0001,0.0243,0.1218,-0.0307,-0.1203,0.0544,-0.0216,0.0254,-0.0015,-0.0019,-0.0058,0.1714,0.4789,-0.6805,0.315,0.6885,-0.934,0.3074,-0.4173,0.3628,-0.0273,0.671,-0.9241,0.4433,-0.5682,0.3899,0.4615,0.5193,-0.7009,0.0,0.0,0.0,0.0,0.0,0.0,0.0,0.0,0.0,
3.16,run,-0.08,3.1,0.02,0.1,0.29,0.0,0.0,0.0,0.156,5.98,1.14,8.61,10.63,13.27,-14.33,10.81,-48.08,96.33,-0.97,12.3,-13.54,15.47,-56.34,98.35,16.08,4.22,5.27,5.87,1.28,6.89,11.0,12.32,-14.29,10.65,-47.36,94.75,-0.92,11.58,-13.26,15.56,-55.97,97.17,15.94,2.9,5.67,0.1677,0.4778,-0.6836,0.3143,0.6786,-0.9328,0.3042,-0.4066,0.3499,-0.0263,0.6651,-0.9207,0.4446,-0.563,0.3785,0.4555,0.5073,-0.6979,0.0,0.0,0.013,0.0,0.013,0.0,0.006,0.0,0.019,0.0,0.019,0.006,0.006,0.0,0.006,0.006,0.026,0.0,0.0997,0.0123,0.1657,0.1902,0.2347,-0.2531,0.1933,-0.8422,1.6858,-0.0184,0.2086,-0.2393,0.2669,-0.9863,1.7242,0.2807,0.0736,0.089,-0.0155,0.1126,-0.303,0.0425,-0.0567,0.003,-0.0364,0.1378,-0.0449,-0.007,-0.0705,0.0707,0.0001,0.021,0.0368,-0.0376,-0.1165,0.0462,-0.0216,0.0245,-0.0012,0.0005,-0.0054,0.1694,0.4795,-0.6832,0.3164,0.6835,-0.9337,0.3056,-0.4122,0.3571,-0.0282,0.6676,-0.9224,0.4441,-0.5672,0.3838,0.4574,0.5126,-0.7,0.0,0.0,0.0,0.0,0.0,0.0,0.0,0.0,0.0,
3.2,run,-0.09,3.08,0.15,0.12,0.13,0.0,0.0,0.0,0.156,5.89,1.14,7.82,10.63,13.1,-14.33,10.81,-47.55,95.89,-0.97,12.04,-13.27,15.38,-56.25,97.65,16.0,3.87,5.54,5.79,1.2,6.83,10.99,12.13,-14.13,10.63,-47.25,94.27,-0.93,11.5,-13.2,15.59,-55.8,96.88,15.88,2.7,5.59,0.1655,0.4764,-0.6844,0.3141,0.6752,-0.931,0.3036,-0.4045,0.3443,-0.0266,0.6636,-0.92,0.4454,-0.56,0.375,0.4538,0.5036,-0.6989,0.0,0.0,0.006,0.006,0.013,0.0,0.006,0.006,0.013,0.0,0.013,0.0,0.006,0.0,0.0,0.006,0.019,0.0,0.0982,0.0123,0.1473,0.1902,0.2332,-0.2531,0.1917,-0.8406,1.6736,-0.0184,0.2086,-0.2378,0.2684,-0.9863,1.7135,0.2807,0.069,0.089,-0.0166,0.0788,-0.2808,0.0297,-0.0454,0.0021,-0.0312,0.1022,-0.0772,-0.0049,-0.0494,0.0552,0.0058,0.0147,-0.0143,-0.0263,-0.0987,0.0323,-0.0202,0.0252,0.0004,0.0017,0.0051,0.1677,0.4778,-0.6836,0.3143,0.6786,-0.9328,0.3042,-0.4066,0.3499,-0.0263,0.6651,-0.9207,0.4446,-0.563,0.3785,0.4555,0.5073,-0.6979,0.0,0.0,0.0,0.0,0.0,0.0,0.0,0.0,0.0,
3.24,run,-0.11,3.05,-0.6,-0.25,-0.25,0.0,0.0,0.0,0.156,5.89,1.14,7.29,10.63,12.74,-14.33,10.81,-47.37,95.36,-0.97,11.95,-13.36,15.47,-55.9,97.12,15.91,3.43,5.54,5.78,1.16,6.77,10.97,11.98,-13.93,10.57,-47.08,93.82,-0.92,11.41,-13.05,15.57,-55.66,96.46,15.8,2.54,5.63,0.1652,0.4756,-0.685,0.3135,0.6723,-0.9286,0.302,-0.4015,0.3391,-0.0263,0.662,-0.9182,0.4449,-0.5575,0.3701,0.4515,0.5008,-0.6985,0.0,0.0,0.006,0.006,0.013,0.0,0.006,0.006,0.013,0.0,0.013,0.0,0.006,0.0,0.0,0.006,0.019,0.0,0.0966,0.0123,0.1335,0.1902,0.2301,-0.2531,0.1917,-0.8314,1.6659,-0.0184,0.204,-0.2332,0.2669,-0.9848,1.7012,0.2792,0.0629,0.0936,-0.0174,0.0552,-0.2484,0.0208,-0.0433,0.0015,-0.0218,0.1061,-0.0828,-0.0034,-0.0518,0.0559,-0.0017,0.0161,-0.0561,-0.0242,-0.0922,0.0399,-0.0212,0.0236,0.0027,0.0021,0.0023,0.1655,0.4764,-0.6844,0.3141,0.6752,-0.931,0.3036,-0.4045,0.3443,-0.0266,0.6636,-0.92,0.4454,-0.56,0.375,0.4538,0.5036,-0.6989,0.0,0.0,0.0,0.0,0.0,0.0,0.0,0.0,0.0,
3.28,run,-0.08,3.07,0.42,0.19,0.54,0.0,0.0,0.0,0.156,5.89,1.14,7.12,10.63,12.57,-14.24,10.81,-47.37,94.83,-0.97,11.95,-13.1,15.38,-55.9,96.77,15.91,3.25,5.54,5.75,1.13,6.75,10.93,11.94,-14.08,10.6,-47.06,93.7,-0.9,11.49,-13.15,15.63,-55.61,96.27,15.83,2.51,5.76,0.1642,0.4751,-0.6852,0.3122,0.6716,-0.9303,0.3027,-0.4011,0.3377,-0.0258,0.6635,-0.9194,0.4465,-0.5565,0.3679,0.4523,0.5002,-0.697,0.0,0.0,0.006,0.006,0.013,0.0,0.006,0.006,0.013,0.0,0.013,0.0,0.006,0.0,0.0,0.006,0.019,0.0,0.0966,0.0123,0.1243,0.1902,0.224,-0.2531,0.1917,-0.8283,1.6567,-0.0184,0.2025,-0.2347,0.2684,-0.9787,1.692,0.2777,0.0552,0.0936,-0.0122,0.0386,-0.2084,0.0146,-0.0533,0.001,-0.0153,0.0858,-0.0925,-0.0024,-0.042,0.0334,0.0046,0.0343,-0.0738,-0.0227,-0.0933,0.0279,-0.0235,0.0214,-0.0105,-0.0043,-0.0044,0.1652,0.4756,-0.685,0.3135,0.6723,-0.9286,0.302,-0.4015,0.3391,-0.0263,0.662,-0.9182,0.4449,-0.5575,0.3701,0.4515,0.5008,-0.6985,0.0,0.0,0.0,0.0,0.0,0.0,0.0,0.0,0.0,
3.32,run,-0.09,3.07,-0.09,-0.03,-0.31,0.0,0.0,0.0,0.156,5.71,1.14,6.94,10.63,12.39,-14.15,10.81,-47.02,94.48,-0.97,11.95,-13.1,15.47,-55.72,96.33,15.91,3.16,5.54,5.73,0.98,6.69,10.89,11.84,-13.87,10.57,-47.03,93.38,-0.88,11.42,-13.13,15.63,-55.47,96.0,15.8,2.46,5.63,0.1637,0.4723,-0.686,0.3113,0.6698,-0.9279,0.3021,-0.4006,0.3339,-0.0251,0.6622,-0.9192,0.4465,-0.5539,0.3647,0.4515,0.4993,-0.6985,0.0,0.006,0.0,0.006,0.013,0.006,0.0,0.0,0.013,0.0,0.013,0.0,0.006,0.006,0.006,0.0,0.019,0.0,0.0966,0.0123,0.1212,0.1902,0.2209,-0.2516,0.1917,-0.8283,1.6475,-0.0184,0.2025,-0.2301,0.2669,-0.9787,1.6858,0.2777,0.0522,0.0936,-0.0085,0.027,-0.1573,0.0102,-0.0488,0.0065,-0.0107,0.06,-0.0991,-0.0017,-0.0294,0.0406,-0.0025,0.024,-0.0746,-0.0159,-0.0767,0.0196,-0.021,0.023,0.0073,0.0034,0.0094,0.1642,0.4751,-0.6852,0.3122,0.6716,-0.9303,0.3027,-0.4011,0.3377,-0.0258,0.6635,-0.9194,0.4465,-0.5565,0.3679,0.4523,0.5002,-0.697,0.0,0.0,0.0,0.0,0.0,0.0,0.0,0.0,0.0,
3.36,run,-0.07,3.09,0.27,0.11,0.08,0.0,0.0,0.0,0.156,5.71,1.14,6.86,10.63,12.39,-13.97,10.81,-47.11,94.04,-0.97,11.95,-13.18,15.56,-55.63,96.06,15.91,3.16,5.54,5.74,1.0,6.72,10.89,11.78,-13.87,10.55,-47.11,93.21,-0.92,11.43,-13.1,15.63,-55.51,95.76,15.8,2.46,5.64,0.1639,0.4727,-0.6856,0.3111,0.6688,-0.9278,0.3014,-0.402,0.3319,-0.0262,0.6623,-0.9188,0.4466,-0.5547,0.3619,0.4514,0.4993,-0.6983,0.0,0.006,0.0,0.006,0.013,0.006,0.0,0.0,0.013,0.0,0.013,0.0,0.006,0.006,0.006,0.0,0.019,0.0,0.0936,0.0123,0.1181,0.1902,0.2178,-0.25,0.1917,-0.8222,1.6414,-0.0184,0.2025,-0.2301,0.2684,-0.9756,1.6782,0.2777,0.0506,0.0936,-0.0174,0.0189,-0.1216,0.0071,-0.0456,0.0103,-0.0075,0.065,-0.0923,-0.0012,-0.0206,0.0284,0.004,0.0283,-0.0809,-0.0111,-0.0595,0.0137,-0.0215,0.023,-0.0016,-0.0005,-0.0054,0.1637,0.4723,-0.686,0.3113,0.6698,-0.9279,0.3021,-0.4006,0.3339,-0.0251,0.6622,-0.9192,0.4465,-0.5539,0.3647,0.4515,0.4993,-0.6985,0.0,0.0,0.0,0.0,0.0,0.0,0.0,0.0,0.0,
3.4,run,-0.08,3.1,-0.34,-0.07,0.43,0.0,0.0,0.0,0.156,5.71,1.14,6.86,10.63,12.39,-13.89,10.81,-47.11,93.87,-0.97,11.95,-13.18,15.56,-55.72,95.98,15.91,3.16,5.54,5.72,0.91,6.7,10.87,11.71,-13.78,10.54,-47.13,92.96,-0.91,11.39,-13.1,15.64,-55.45,95.63,15.81,2.44,5.55,0.1634,0.4711,-0.6858,0.3106,0.6675,-0.9268,0.3012,-0.4024,0.3289,-0.0261,0.6616,-0.9188,0.4468,-0.5536,0.3603,0.4517,0.499,-0.6994,0.0,0.006,0.0,0.006,0.013,0.006,0.0,0.0,0.013,0.0,0.013,0.0,0.006,0.006,0.006,0.0,0.019,0.0,0.0936,0.0123,0.1166,0.1902,0.2178,-0.247,0.1917,-0.8237,1.6337,-0.0184,0.2025,-0.2316,0.27,-0.9741,1.6736,0.2777,0.0506,0.0936,-0.0122,0.0132,-0.09,0.005,-0.0319,0.0169,-0.0052,0.0406,-0.0888,-0.0008,-0.0144,0.015,0.0076,0.0246,-0.0711,-0.0078,-0.0416,0.0096,-0.0197,0.0249,0.0047,0.0019,0.0014,0.1639,0.4727,-0.6856,0.3111,0.6688,-0.9278,0.3014,-0.402,0.3319,-0.0262,0.6623,-0.9188,0.4466,-0.5547,0.3619,0.4514,0.4993,-0.6983,0.0,0.0,0.0,0.0,0.0,0.0,0.0,0.0,0.0,
3.44,run,-0.08,3.09,-0.15,-0.08,-0.01,0.0,0.0,0.0,0.156,5.71,1.14,6.86,10.63,12.22,-13.89,10.81,-47.11,93.6,-0.97,11.95,-13.18,15.56,-55.55,95.62,15.91,3.16,5.54,5.71,0.94,6.68,10.9,11.67,-13.77,10.54,-47.13,92.89,-0.93,11.36,-13.06,15.63,-55.41,95.52,15.8,2.39,5.61,0.1632,0.4716,-0.6862,0.3114,0.6667,-0.9267,0.3012,-0.4023,0.3281,-0.0266,0.6611,-0.9183,0.4465,-0.5529,0.359,0.4513,0.4981,-0.6987,0.0,0.0,0.0,0.006,0.006,0.0,0.006,0.0,0.006,0.0,0.013,0.0,0.0,0.0,0.006,0.0,0.013,0.0,0.0936,0.0123,0.1166,0.1902,0.2178,-0.2454,0.1917,-0.8237,1.6306,-0.0184,0.2025,-0.2316,0.27,-0.9756,1.672,0.2777,0.0506,0.0936,-0.0085,0.0093,-0.063,0.0035,-0.0224,0.0175,-0.0037,0.0284,-0.0735,-0.0006,-0.0101,0.0105,0.0053,0.0116,-0.0555,-0.0054,-0.0291,0.0067,-0.0205,0.0253,-0.006,-0.0013,0.0075,0.1634,0.4711,-0.6858,0.3106,0.6675,-0.9268,0.3012,-0.4024,0.3289,-0.0261,0.6616,-0.9188,0.4468,-0.5536,0.3603,0.4517,0.499,-0.6994,0.0,0.0,0.0,0.0,0.0,0.0,0.0,0.0,0.0,
3.48,run,-0.07,3.09,0.07,0.03,0.29,0.0,0.0,0.0,0.156,5.71,1.14,6.86,10.63,12.22,-13.89,10.81,-47.11,93.43,-0.97,11.95,-13.18,15.56,-55.55,95.71,15.91,2.99,5.54,5.71,0.87,6.71,10.88,11.66,-13.72,10.54,-47.17,92.84,-0.93,11.38,-13.09,15.63,-55.39,95.39,15.81,2.45,5.6,0.1631,0.4704,-0.6857,0.3107,0.6666,-0.9261,0.3013,-0.4031,0.3276,-0.0266,0.6615,-0.9187,0.4466,-0.5525,0.3575,0.4518,0.4991,-0.6989,0.0,0.0,0.0,0.006,0.006,0.0,0.006,0.0,0.006,0.0,0.013,0.0,0.0,0.0,0.006,0.0,0.013,0.0,0.0936,0.0123,0.1166,0.1902,0.2148,-0.2454,0.1917,-0.8237,1.626,-0.0184,0.2025,-0.2316,0.27,-0.9725,1.6659,0.2777,0.0506,0.0936,-0.006,0.0065,-0.0441,0.0024,-0.0272,0.0122,-0.0026,0.0199,-0.0688,-0.0004,-0.0071,0.0074,0.0037,0.0196,-0.0619,-0.0038,-0.0204,0.0047,-0.0205,0.0245,-0.0027,-0.0014,-0.0001,0.1632,0.4716,-0.6862,0.3114,0.6667,-0.9267,0.3012,-0.4023,0.3281,-0.0266,0.6611,-0.9183,0.4465,-0.5529,0.359,0.4513,0.4981,-0.6987,0.0,0.0,0.0,0.0,0.0,0.0,0.0,0.0,0.0,
3.52,run,-0.08,3.08,-0.1,0.09,0.03,0.0,0.0,0.0,0.156,5.71,1.14,6.86,10.63,12.22,-13.89,10.81,-47.11,93.43,-0.97,11.95,-13.18,15.56,-55.55,95.36,15.91,2.99,5.54,5.72,0.84,6.65,10.86,11.67,-13.78,10.55,-47.18,92.8,-0.9,11.37,-13.15,15.63,-55.41,95.34,15.81,2.43,5.54,0.1633,0.4698,-0.6865,0.3103,0.6668,-0.9269,0.3013,-0.4033,0.3271,-0.0259,0.6613,-0.9194,0.4465,-0.553,0.3569,0.4517,0.4987,-0.6995,0.0,0.0,0.0,0.006,0.006,0.0,0.006,0.0,0.006,0.0,0.013,0.0,0.0,0.0,0.006,0.0,0.013,0.0,0.0936,0.0123,0.1166,0.1902,0.2148,-0.2454,0.1917,-0.8237,1.623,-0.0184,0.2025,-0.2316,0.27,-0.9725,1.6674,0.2777,0.0476,0.0936,-0.0042,0.0045,-0.0309,0.0017,-0.019,0.0086,-0.0018,0.0139,-0.0577,-0.0003,-0.0049,0.0052,0.0026,0.0137,-0.0386,-0.0027,-0.0239,0.0033,-0.0195,0.0248,0.0012,0.0005,0.005,0.1631,0.4704,-0.6857,0.3107,0.6666,-0.9261,0.3013,-0.4031,0.3276,-0.0266,0.6615,-0.9187,0.4466,-0.5525,0.3575,0.4518,0.4991,-0.6989,0.0,0.0,0.0,0.0,0.0,0.0,0.0,0.0,0.0,
3.56,run,-0.08,3.07,-0.11,0.0,0.2,0.0,0.0,0.0,0.156,5.71,1.14,6.86,10.63,12.22,-13.89,10.81,-47.11,93.43,-0.97,11.95,-13.18,15.56,-55.55,95.36,15.91,2.99,5.54,5.73,0.81,6.74,10.85,11.66,-13.77,10.54,-47.22,92.75,-0.92,11.39,-13.14,15.61,-55.4,95.23,15.82,2.47,5.58,0.1636,0.4692,-0.6854,0.3099,0.6666,-0.9267,0.3012,-0.4041,0.3265,-0.0263,0.6617,-0.9193,0.446,-0.5527,0.3556,0.4519,0.4994,-0.6991,0.0,0.006,0.0,0.0,0.013,0.0,0.006,0.0,0.019,0.0,0.013,0.0,0.0,0.006,0.006,0.0,0.006,0.0,0.0936,0.0123,0.1166,0.1902,0.2148,-0.2454,0.1917,-0.8237,1.623,-0.0184,0.2025,-0.2316,0.27,-0.9725,1.6613,0.2777,0.0476,0.0936,-0.0029,0.0032,-0.0216,0.0012,-0.0133,0.006,-0.0013,0.0098,-0.0404,-0.0002,-0.0035,0.0036,0.0018,0.0096,-0.0499,-0.0019,-0.0167,0.0023,-0.0206,0.0242,-0.0017,0.0015,0.0006,0.1633,0.4698,-0.6865,0.3103,0.6668,-0.9269,0.3013,-0.4033,0.3271,-0.0259,0.6613,-0.9194,0.4465,-0.553,0.3569,0.4517,0.4987,-0.6995,0.0,0.0,0.0,0.0,0.0,0.0,0.0,0.0,0.0,
3.6,run,-0.08,3.07,0.0,-0.02,0.0,0.0,0.0,0.0,0.156,5.71,1.14,6.86,10.63,12.22,-13.89,10.81,-47.11,93.43,-0.97,11.95,-13.18,15.56,-55.55,95.36,15.91,2.99,5.54,5.74,0.81,6.71,10.86,11.67,-13.75,10.54,-47.22,92.74,-0.93,11.39,-13.15,15.6,-55.4,95.2,15.8,2.46,5.57,0.1639,0.4693,-0.6858,0.3103,0.6668,-0.9265,0.3012,-0.4041,0.3264,-0.0265,0.6617,-0.9194,0.4456,-0.5528,0.3553,0.4515,0.4992,-0.6992,0.0,0.006,0.0,0.0,0.013,0.0,0.006,0.0,0.019,0.0,0.013,0.0,0.0,0.006,0.006,0.0,0.006,0.0,0.0936,0.0123,0.1166,0.1902,0.2148,-0.2454,0.1917,-0.8237,1.623,-0.0184,0.2025,-0.2316,0.27,-0.9725,1.6613,0.2777,0.0476,0.0936,-0.0021,0.0022,-0.0151,0.0008,-0.0093,0.0042,-0.0009,0.0068,-0.0283,-0.0001,-0.0024,0.0025,0.0013,0.0067,-0.035,-0.0013,-0.0117,0.0016,-0.0209,0.0233,-0.002,0.0001,0.0035,0.1636,0.4692,-0.6854,0.3099,0.6666,-0.9267,0.3012,-0.4041,0.3265,-0.0263,0.6617,-0.9193,0.446,-0.5527,0.3556,0.4519,0.4994,-0.6991,0.0,0.0,0.0,0.0,0.0,0.0,0.0,0.0,0.0,
3.64,run,-0.08,3.07,-0.06,0.01,0.19,0.0,0.0,0.0,0.156,5.71,1.14,6.86,10.63,12.22,-13.89,10.81,-47.11,93.43,-0.97,11.95,-13.18,15.56,-55.63,95.36,15.91,2.99,5.54,5.74,0.81,6.69,10.87,11.67,-13.75,10.54,-47.24,92.72,-0.93,11.38,-13.16,15.59,-55.42,95.16,15.8,2.45,5.55,0.164,0.4693,-0.686,0.3104,0.6667,-0.9265,0.3011,-0.4044,0.3261,-0.0266,0.6615,-0.9196,0.4454,-0.5532,0.3548,0.4514,0.4991,-0.6994,0.0,0.006,0.0,0.0,0.013,0.0,0.006,0.0,0.019,0.0,0.013,0.0,0.0,0.006,0.006,0.0,0.006,0.0,0.0936,0.0123,0.1166,0.1902,0.2148,-0.2454,0.1917,-0.8237,1.623,-0.0184,0.2025,-0.2316,0.27,-0.9725,1.6613,0.2777,0.0476,0.0936,-0.0014,0.0016,-0.0106,0.0006,-0.0065,0.0029,-0.0006,0.0048,-0.0198,-0.0001,-0.0017,0.0018,0.0009,0.0047,-0.0245,-0.0009,-0.0082,0.0011,-0.0207,0.0227,0.0,-0.0003,0.0,0.1639,0.4693,-0.6858,0.3103,0.6668,-0.9265,0.3012,-0.4041,0.3264,-0.0265,0.6617,-0.9194,0.4456,-0.5528,0.3553,0.4515,0.4992,-0.6992,0.0,0.0,0.0,0.0,0.0,0.0,0.0,0.0,0.0,
3.68,run,-0.08,3.06,-0.01,0.06,0.17,0.0,0.0,0.0,0.156,5.71,1.14,6.86,10.63,12.22,-13.89,10.81,-47.29,93.43,-0.97,11.95,-13.18,15.56,-55.55,95.36,15.91,2.99,5.54,5.74,0.81,6.68,10.87,11.67,-13.75,10.53,-47.23,92.7,-0.93,11.37,-13.15,15.58,-55.41,95.12,15.79,2.44,5.56,0.1641,0.4694,-0.6861,0.3106,0.6666,-0.9265,0.301,-0.4042,0.3258,-0.0266,0.6614,-0.9194,0.4451,-0.553,0.3544,0.4511,0.4989,-0.6992,0.0,0.006,0.0,0.006,0.013,0.006,0.006,0.006,0.019,0.0,0.013,0.0,0.0,0.0,0.006,0.0,0.013,0.0,0.0936,0.0123,0.1166,0.1902,0.2148,-0.2454,0.1917,-0.8237,1.623,-0.0184,0.2025,-0.2316,0.27,-0.9741,1.6613,0.2777,0.0476,0.0936,-0.001,0.0011,-0.0074,0.0004,-0.0046,0.0021,-0.0004,0.0033,-0.0139,-0.0001,-0.0012,0.0012,0.0006,-0.0024,-0.0171,-0.0006,-0.0057,0.0008,-0.0204,0.023,-0.0011,0.0002,0.0034,0.164,0.4693,-0.686,0.3104,0.6667,-0.9265,0.3011,-0.4044,0.3261,-0.0266,0.6615,-0.9196,0.4454,-0.5532,0.3548,0.4514,0.4991,-0.6994,0.0,0.0,0.0,0.0,0.0,0.0,0.0,0.0,0.0,
3.72,run,-0.08,3.06,-0.11,-0.02,0.16,0.0,0.0,0.0,0.156,5.71,1.14,6.86,10.63,12.22,-13.71,10.81,-47.29,93.43,-0.97,11.95,-13.18,15.56,-55.46,95.36,15.91,2.99,5.54,5.73,0.79,6.67,10.87,11.68,-13.76,10.55,-47.25,92.7,-0.93,11.39,-13.2,15.59,-55.41,95.13,15.8,2.46,5.53,0.1638,0.4689,-0.6862,0.3106,0.6668,-0.9266,0.3015,-0.4045,0.3259,-0.0267,0.6617,-0.92,0.4455,-0.553,0.3544,0.4514,0.4992,-0.6997,0.0,0.006,0.0,0.006,0.013,0.006,0.006,0.006,0.019,0.0,0.013,0.0,0.0,0.0,0.006,0.0,0.013,0.0,0.0936,0.0123,0.1166,0.1902,0.2148,-0.2454,0.1917,-0.8268,1.623,-0.0184,0.2025,-0.2316,0.27,-0.9725,1.6613,0.2777,0.0476,0.0936,-0.0007,0.0008,-0.0052,0.0003,-0.0032,0.0014,-0.0003,-0.0092,-0.0097,-0.0,-0.0008,0.0009,0.0004,0.0041,-0.012,-0.0004,-0.004,0.0006,-0.0204,0.0224,-0.0003,0.001,0.003,0.1641,0.4694,-0.6861,0.3106,0.6666,-0.9265,0.301,-0.4042,0.3258,-0.0266,0.6614,-0.9194,0.4451,-0.553,0.3544,0.4511,0.4989,-0.6992,0.0,0.0,0.0,0.0,0.0,0.0,0.0,0.0,0.0,
3.76,run,-0.09,3.05,-0.07,-0.06,0.14,0.0,0.0,0.0,0.156,5.71,1.14,6.86,10.63,12.22,-13.71,10.81,-47.29,93.43,-0.97,11.87,-13.18,15.56,-55.55,95.36,15.91,2.99,5.54,5.73,0.78,6.66,10.88,11.66,-13.76,10.55,-47.25,92.67,-0.94,11.39,-13.19,15.6,-55.41,95.13,15.8,2.43,5.52,0.1637,0.4687,-0.6863,0.3108,0.6666,-0.9266,0.3015,-0.4045,0.3255,-0.0267,0.6617,-0.9199,0.4456,-0.553,0.3545,0.4514,0.4988,-0.6998,0.0,0.006,0.0,0.006,0.013,0.006,0.006,0.006,0.019,0.0,0.013,0.0,0.0,0.0,0.006,0.0,0.013,0.0,0.0936,0.0123,0.1166,0.1902,0.2148,-0.2424,0.1917,-0.8268,1.623,-0.0184,0.2025,-0.2316,0.27,-0.971,1.6613,0.2777,0.0476,0.0936,-0.0005,0.0005,-0.0036,0.0002,-0.0022,0.0125,-0.0002,-0.0064,-0.0068,-0.0,-0.0006,0.0006,0.0003,0.0086,-0.0084,-0.0003,-0.0028,0.0004,-0.0209,0.0219,-0.002,-0.0003,0.0028,0.1638,0.4689,-0.6862,0.3106,0.6668,-0.9266,0.3015,-0.4045,0.3259,-0.0267,0.6617,-0.92,0.4455,-0.553,0.3544,0.4514,0.4992,-0.6997,0.0,0.0,0.0,0.0,0.0,0.0,0.0,0.0,0.0,
3.8,run,-0.08,3.06,-0.02,0.08,0.19,0.0,0.0,0.0,0.156,5.71,1.14,6.86,10.63,12.22,-13.71,10.81,-47.29,93.25,-0.97,11.78,-13.18,15.56,-55.46,95.36,15.91,2.99,5.54,5.74,0.81,6.67,10.88,11.66,-13.78,10.55,-47.23,92.64,-0.94,11.39,-13.17,15.58,-55.41,95.09,15.8,2.44,5.55,0.1639,0.4692,-0.6862,0.3108,0.6665,-0.9268,0.3014,-0.4042,0.3252,-0.0268,0.6616,-0.9197,0.4452,-0.5529,0.354,0.4514,0.4989,-0.6994,0.0,0.006,0.0,0.006,0.006,0.0,0.006,0.0,0.006,0.0,0.006,0.0,0.0,0.006,0.013,0.0,0.013,0.0,0.0936,0.0123,0.1166,0.1902,0.2148,-0.2424,0.1917,-0.8268,1.623,-0.0184,0.201,-0.2316,0.27,-0.9725,1.6613,0.2777,0.0476,0.0936,-0.0003,0.0004,-0.0025,0.0001,-0.0016,0.0088,-0.0001,-0.0045,-0.0048,-0.0,-0.0062,0.0004,0.0002,0.0003,-0.0059,-0.0002,-0.002,0.0003,-0.0211,0.0217,-0.0012,-0.001,0.0024,0.1637,0.4687,-0.6863,0.3108,0.6666,-0.9266,0.3015,-0.4045,0.3255,-0.0267,0.6617,-0.9199,0.4456,-0.553,0.3545,0.4514,0.4988,-0.6998,0.0,0.0,0.0,0.0,0.0,0.0,0.0,0.0,0.0,
3.84,run,-0.08,3.06,0.17,0.27,0.22,0.0,0.0,0.0,0.156,5.71,1.14,6.86,10.63,12.22,-13.71,10.81,-47.29,93.16,-0.97,11.78,-13.18,15.56,-55.55,95.36,15.91,2.99,5.54,5.73,0.79,6.67,10.87,11.65,-13.75,10.55,-47.22,92.63,-0.92,11.38,-13.17,15.59,-55.4,95.09,15.8,2.44,5.51,0.1638,0.4689,-0.6862,0.3104,0.6664,-0.9265,0.3015,-0.4039,0.3251,-0.0263,0.6615,-0.9196,0.4455,-0.5527,0.354,0.4514,0.499,-0.6999,0.0,0.006,0.0,0.006,0.006,0.0,0.006,0.0,0.006,0.0,0.006,0.0,0.0,0.006,0.013,0.0,0.013,0.0,0.0936,0.0123,0.1166,0.1902,0.2148,-0.2424,0.1917,-0.8268,1.6199,-0.0184,0.1994,-0.2316,0.27,-0.971,1.6613,0.2777,0.0476,0.0936,-0.0002,0.0003,-0.0018,0.0001,-0.0011,0.0061,-0.0001,-0.0031,-0.0148,-0.0,-0.0101,0.0003,0.0002,0.0059,-0.0041,-0.0002,-0.0014,0.0002,-0.0209,0.0219,-0.0004,0.0014,0.0032,0.1639,0.4692,-0.6862,0.3108,0.6665,-0.9268,0.3014,-0.4042,0.3252,-0.0268,0.6616,-0.9197,0.4452,-0.5529,0.354,0.4514,0.4989,-0.6994,0.0,0.0,0.0,0.0,0.0,0.0,0.0,0.0,0.0,
3.88,run,-0.1,3.06,-0.26,-0.11,0.03,0.0,0.0,0.0,0.156,5.71,1.14,6.86,10.63,12.22,-13.71,10.81,-47.29,93.16,-0.97,11.78,-13.18,15.56,-55.55,95.36,15.91,2.99,5.54,5.73,0.77,6.7,10.85,11.64,-13.75,10.54,-47.22,92.6,-0.91,11.36,-13.15,15.58,-55.39,95.04,15.79,2.44,5.49,0.1637,0.4686,-0.6859,0.3101,0.6662,-0.9265,0.3012,-0.404,0.3247,-0.026,0.6611,-0.9194,0.445,-0.5526,0.3535,0.4513,0.4989,-0.7001,0.0,0.006,0.0,0.006,0.006,0.0,0.006,0.0,0.006,0.0,0.006,0.0,0.0,0.006,0.013,0.0,0.013,0.0,0.0936,0.0123,0.1166,0.1902,0.2148,-0.2424,0.1917,-0.8268,1.6183,-0.0184,0.1994,-0.2316,0.27,-0.9725,1.6613,0.2777,0.0476,0.0936,-0.0002,0.0002,-0.0012,0.0001,-0.0008,0.0043,-0.0001,-0.0022,-0.0161,-0.0,-0.007,0.0002,0.0001,-0.0016,-0.0029,-0.0001,-0.001,0.0001,-0.0202,0.0225,0.0029,0.0047,0.0038,0.1638,0.4689,-0.6862,0.3104,0.6664,-0.9265,0.3015,-0.4039,0.3251,-0.0263,0.6615,-0.9196,0.4455,-0.5527,0.354,0.4514,0.499,-0.6999,0.0,0.0,0.0,0.0,0.0,0.0,0.0,0.0,0.0,
3.92,run,-0.09,3.06,-0.03,0.07,0.19,0.0,0.0,0.0,0.156,5.71,1.14,6.86,10.63,12.22,-13.71,10.81,-47.29,93.16,-0.97,11.78,-13.18,15.56,-55.55,95.1,15.91,2.99,5.54,5.73,0.81,6.7,10.87,11.66,-13.79,10.55,-47.23,92.67,-0.93,11.38,-13.17,15.58,-55.41,95.06,15.8,2.44,5.56,0.1638,0.4692,-0.6859,0.3105,0.6665,-0.9269,0.3014,-0.4043,0.3256,-0.0265,0.6615,-0.9196,0.445,-0.553,0.3536,0.4514,0.4988,-0.6993,0.0,0.006,0.0,0.0,0.013,0.0,0.006,0.0,0.013,0.0,0.006,0.0,0.0,0.006,0.006,0.0,0.013,0.0,0.0936,0.0123,0.1166,0.1902,0.2148,-0.2424,0.1917,-0.8268,1.6183,-0.0184,0.1994,-0.2316,0.27,-0.9725,1.6613,0.2777,0.0476,0.0936,-0.0001,0.0001,-0.0009,0.0,-0.0005,0.003,-0.0001,-0.0015,-0.0113,-0.0,-0.0049,0.0001,0.0001,-0.0011,-0.002,-0.0001,-0.0007,0.0001,-0.022,0.0221,-0.0045,-0.0019,0.0006,0.1637,0.4686,-0.6859,0.3101,0.6662,-0.9265,0.3012,-0.404,0.3247,-0.026,0.6611,-0.9194,0.445,-0.5526,0.3535,0.4513,0.4989,-0.7001,0.0,0.0,0.0,0.0,0.0,0.0,0.0,0.0,0.0,
3.96,run,-0.1,3.05,-0.1,-0.03,0.06,0.0,0.0,0.0,0.156,5.71,1.14,6.86,10.63,12.22,-13.71,10.81,-47.37,93.16,-0.97,11.78,-13.18,15.56,-55.55,95.1,15.91,2.99,5.54,5.74,0.75,6.76,10.84,11.66,-13.75,10.54,-47.24,92.63,-0.93,11.4,-13.17,15.56,-55.38,95.03,15.8,2.48,5.56,0.1641,0.4682,-0.6852,0.3098,0.6666,-0.9264,0.3013,-0.4043,0.3251,-0.0264,0.6618,-0.9196,0.4447,-0.5523,0.3533,0.4516,0.4996,-0.6993,0.0,0.006,0.0,0.0,0.013,0.0,0.006,0.0,0.013,0.0,0.006,0.0,0.0,0.006,0.006,0.0,0.013,0.0,0.0936,0.0123,0.1166,0.1902,0.2148,-0.2424,0.1917,-0.8268,1.6183,-0.0184,0.1994,-0.2316,0.27,-0.9725,1.6567,0.2777,0.0476,0.0936,-0.0001,0.0001,-0.0006,0.0,-0.0004,0.0021,-0.0,-0.0011,-0.0079,-0.0,-0.0034,0.0001,0.0001,-0.0008,-0.0185,-0.0001,-0.0005,0.0001,-0.0218,0.0221,-0.0005,0.0011,0.0034,0.1638,0.4692,-0.6859,0.3105,0.6665,-0.9269,0.3014,-0.4043,0.3256,-0.0265,0.6615,-0.9196,0.445,-0.553,0.3536,0.4514,0.4988,-0.6993,0.0,0.0,0.0,0.0,0.0,0.0,0.0,0.0,0.0,
4.0,run,-0.1,3.05,0.04,0.06,0.07,0.0,0.0,0.0,0.156,5.71,1.14,6.86,10.63,12.22,-13.71,10.81,-47.2,93.16,-0.97,11.78,-13.18,15.56,-55.55,95.1,15.91,2.99,5.54,5.74,0.75,6.76,10.85,11.68,-13.77,10.56,-47.26,92.67,-0.93,11.42,-13.21,15.57,-55.39,95.04,15.81,2.49,5.56,0.164,0.4683,-0.6851,0.3099,0.6669,-0.9267,0.3017,-0.4046,0.3255,-0.0266,0.6622,-0.9201,0.4448,-0.5525,0.3534,0.4518,0.4998,-0.6993,0.0,0.006,0.0,0.0,0.013,0.0,0.006,0.0,0.013,0.0,0.006,0.0,0.0,0.006,0.006,0.0,0.013,0.0,0.0936,0.0123,0.1166,0.1902,0.2148,-0.2424,0.1917,-0.8283,1.6183,-0.0184,0.1994,-0.2316,0.27,-0.9725,1.6567,0.2777,0.0476,0.0936,-0.0001,0.0001,-0.0004,0.0,-0.0003,0.0015,-0.0,-0.0065,-0.0055,-0.0,-0.0024,0.0001,0.0,-0.0006,-0.0129,-0.0,-0.0003,0.0,-0.0224,0.0212,-0.0017,-0.0006,0.0011,0.1641,0.4682,-0.6852,0.3098,0.6666,-0.9264,0.3013,-0.4043,0.3251,-0.0264,0.6618,-0.9196,0.4447,-0.5523,0.3533,0.4516,0.4996,-0.6993,0.0,0.0,0.0,0.0,0.0,0.0,0.0,0.0,0.0,
4.04,run,-0.11,3.05,-0.06,0.02,0.03,0.0,0.0,0.0,0.156,5.71,1.14,6.86,10.63,12.22,-13.71,10.81,-47.2,93.16,-0.97,11.78,-13.18,15.56,-55.55,95.1,15.91,2.99,5.54,5.75,0.75,6.76,10.84,11.68,-13.74,10.54,-47.25,92.67,-0.92,11.4,-13.18,15.55,-55.41,95.03,15.8,2.48,5.54,0.1644,0.4683,-0.6851,0.3097,0.667,-0.9264,0.301,-0.4046,0.3255,-0.0263,0.6619,-0.9197,0.4443,-0.5529,0.3533,0.4513,0.4996,-0.6995,0.0,0.006,0.0,0.0,0.006,0.0,0.006,0.0,0.006,0.0,0.006,0.0,0.0,0.006,0.0,0.0,0.013,0.0,0.0936,0.0123,0.1166,0.1902,0.2148,-0.2424,0.1917,-0.8253,1.6183,-0.0184,0.1994,-0.2316,0.27,-0.9725,1.6567,0.2777,0.0476,0.0936,-0.0,0.0,-0.0003,0.0,-0.0002,0.001,-0.0,0.0069,-0.0039,-0.0,-0.0017,0.0,0.0,-0.0004,-0.0091,-0.0,-0.0002,0.0,-0.0225,0.0217,0.0007,0.001,0.0012,0.164,0.4683,-0.6851,0.3099,0.6669,-0.9267,0.3017,-0.4046,0.3255,-0.0266,0.6622,-0.9201,0.4448,-0.5525,0.3534,0.4518,0.4998,-0.6993,0.0,0.0,0.0,0.0,0.0,0.0,0.0,0.0,0.0,
4.08,run,-0.1,3.05,0.05,0.05,0.08,0.0,0.0,0.0,0.156,5.71,1.14,6.86,10.63,12.22,-13.71,10.81,-47.2,93.16,-0.97,11.78,-13.18,15.56,-55.55,95.1,15.91,2.99,5.54,5.75,0.76,6.77,10.84,11.68,-13.75,10.54,-47.26,92.67,-0.92,11.4,-13.18,15.55,-55.41,95.03,15.79,2.48,5.55,0.1643,0.4683,-0.6851,0.3098,0.667,-0.9265,0.3011,-0.4047,0.3256,-0.0264,0.6619,-0.9197,0.4444,-0.5529,0.3532,0.4512,0.4996,-0.6994,0.0,0.006,0.0,0.0,0.006,0.0,0.006,0.0,0.006,0.0,0.006,0.0,0.0,0.006,0.0,0.0,0.013,0.0,0.0936,0.0123,0.1166,0.1902,0.2148,-0.2424,0.1917,-0.8253,1.6183,-0.0184,0.1994,-0.2316,0.27,-0.9725,1.6567,0.2777,0.0476,0.0936,-0.0,0.0,-0.0002,0.0,-0.0001,0.0007,-0.0,0.0048,-0.0027,-0.0,-0.0012,0.0,0.0,-0.0003,-0.0063,-0.0,-0.0002,0.0,-0.0229,0.0214,-0.0011,0.0003,0.0004,0.1644,0.4683,-0.6851,0.3097,0.667,-0.9264,0.301,-0.4046,0.3255,-0.0263,0.6619,-0.9197,0.4443,-0.5529,0.3533,0.4513,0.4996,-0.6995,0.0,0.0,0.0,0.0,0.0,0.0,0.0,0.0,0.0,
4.12,run,-0.11,3.05,-0.08,0.0,0.12,0.0,0.0,0.0,0.156,5.71,1.14,6.86,10.63,12.22,-13.71,10.81,-47.2,93.16,-0.97,11.78,-13.18,15.56,-55.55,95.1,15.91,2.99,5.54,5.75,0.75,6.76,10.84,11.68,-13.74,10.54,-47.25,92.66,-0.92,11.4,-13.18,15.55,-55.41,95.02,15.79,2.47,5.54,0.1643,0.4681,-0.6852,0.3098,0.6669,-0.9263,0.3011,-0.4046,0.3254,-0.0263,0.6618,-0.9198,0.4443,-0.5529,0.3532,0.4511,0.4995,-0.6996,0.0,0.006,0.0,0.0,0.006,0.0,0.006,0.0,0.006,0.0,0.006,0.0,0.0,0.006,0.0,0.0,0.013,0.0,0.0936,0.0123,0.1166,0.1902,0.2148,-0.2424,0.1917,-0.8253,1.6183,-0.0184,0.1994,-0.2316,0.27,-0.9725,1.6567,0.2777,0.0476,0.0936,-0.0,0.0,-0.0001,0.0,-0.0001,0.0005,-0.0,0.0034,-0.0019,-0.0,-0.0008,0.0,0.0,-0.0002,-0.0044,-0.0,-0.0001,0.0,-0.0225,0.0212,0.0009,0.0009,0.0014,0.1643,0.4683,-0.6851,0.3098,0.667,-0.9265,0.3011,-0.4047,0.3256,-0.0264,0.6619,-0.9197,0.4444,-0.5529,0.3532,0.4512,0.4996,-0.6994,0.0,0.0,0.0,0.0,0.0,0.0,0.0,0.0,0.0,
4.16,run,-0.11,3.04,-0.08,-0.06,0.11,0.0,0.0,0.0,0.156,5.71,1.14,6.86,10.63,12.22,-13.71,10.81,-47.2,93.16,-0.97,11.78,-13.18,15.56,-55.55,95.1,15.91,2.99,5.54,5.75,0.75,6.76,10.85,11.68,-13.74,10.54,-47.25,92.67,-0.92,11.4,-13.18,15.55,-55.4,95.02,15.79,2.47,5.55,0.1643,0.4682,-0.6852,0.3099,0.667,-0.9263,0.3012,-0.4045,0.3256,-0.0264,0.6619,-0.9198,0.4443,-0.5528,0.3532,0.4511,0.4995,-0.6994,0.0,0.006,0.0,0.006,0.006,0.0,0.006,0.0,0.006,0.0,0.006,0.0,0.0,0.0,0.0,0.0,0.013,0.0,0.0936,0.0123,0.1166,0.1902,0.2148,-0.2424,0.1917,-0.8253,1.6183,-0.0184,0.1994,-0.2316,0.27,-0.9725,1.6567,0.2777,0.0476,0.0936,-0.0,0.0,-0.0001,0.0,-0.0001,0.0004,-0.0,0.0024,-0.0013,-0.0,-0.0006,0.0,0.0,-0.0001,-0.0031,-0.0,-0.0001,0.0,-0.0228,0.0209,-0.0013,0.0001,0.002,0.1643,0.4681,-0.6852,0.3098,0.6669,-0.9263,0.3011,-0.4046,0.3254,-0.0263,0.6618,-0.9198,0.4443,-0.5529,0.3532,0.4511,0.4995,-0.6996,0.0,0.0,0.0,0.0,0.0,0.0,0.0,0.0,0.0,
4.2,run,-0.11,3.05,-0.02,0.05,0.09,0.0,0.0,0.0,0.156,5.71,1.14,6.86,10.63,12.22,-13.71,10.81,-47.2,93.16,-0.97,11.78,-13.18,15.56,-55.55,95.1,15.91,2.99,5.54,5.75,0.75,6.75,10.85,11.69,-13.74,10.54,-47.24,92.68,-0.92,11.41,-13.19,15.55,-55.4,95.02,15.79,2.47,5.56,0.1643,0.4682,-0.6853,0.31,0.667,-0.9263,0.3012,-0.4045,0.3256,-0.0264,0.6619,-0.9198,0.4443,-0.5528,0.3532,0.451,0.4994,-0.6993,0.0,0.006,0.0,0.006,0.006,0.0,0.006,0.0,0.006,0.0,0.006,0.0,0.0,0.0,0.0,0.0,0.013,0.0,0.0936,0.0123,0.1166,0.1902,0.2148,-0.2424,0.1917,-0.8253,1.6183,-0.0184,0.1994,-0.2316,0.27,-0.9725,1.6567,0.2777,0.0476,0.0936,-0.0,0.0,-0.0001,0.0,-0.0,0.0002,-0.0,0.0017,-0.0009,-0.0,-0.0004,0.0,0.0,-0.0001,-0.0022,-0.0,-0.0001,0.0,-0.0231,0.0206,-0.0013,-0.0011,0.0019,0.1643,0.4682,-0.6852,0.3099,0.667,-0.9263,0.3012,-0.4045,0.3256,-0.0264,0.6619,-0.9198,0.4443,-0.5528,0.3532,0.4511,0.4995,-0.6994,0.0,0.0,0.0,0.0,0.0,0.0,0.0,0.0,0.0,
4.24,run,-0.11,3.04,-0.01,0.03,0.09,0.0,0.0,0.0,0.156,5.71,1.14,6.86,10.63,12.22,-13.71,10.81,-47.2,93.16,-0.97,11.78,-13.18,15.56,-55.55,95.1,15.91,2.99,5.54,5.75,0.75,6.76,10.84,11.68,-13.74,10.54,-47.25,92.67,-0.92,11.4,-13.18,15.55,-55.41,95.01,15.78,2.47,5.54,0.1643,0.4681,-0.6851,0.3098,0.667,-0.9264,0.3011,-0.4045,0.3256,-0.0263,0.6618,-0.9198,0.4443,-0.5528,0.3531,0.451,0.4994,-0.6995,0.0,0.006,0.0,0.006,0.006,0.0,0.006,0.0,0.006,0.0,0.006,0.0,0.0,0.0,0.0,0.0,0.013,0.0,0.0936,0.0123,0.1166,0.1902,0.2148,-0.2424,0.1917,-0.8253,1.6183,-0.0184,0.1994,-0.2316,0.27,-0.9725,1.6567,0.2777,0.0476,0.0936,-0.0,0.0,-0.0001,0.0,-0.0,0.0002,-0.0,0.0012,-0.0007,-0.0,-0.0003,0.0,0.0,-0.0001,-0.0015,-0.0,-0.0,0.0,-0.0233,0.0209,-0.0004,0.0009,0.0015,0.1643,0.4682,-0.6853,0.31,0.667,-0.9263,0.3012,-0.4045,0.3256,-0.0264,0.6619,-0.9198,0.4443,-0.5528,0.3532,0.451,0.4994,-0.6993,0.0,0.0,0.0,0.0,0.0,0.0,0.0,0.0,0.0,
4.28,run,-0.11,3.04,-0.06,-0.03,0.11,0.0,0.0,0.0,0.156,5.71,1.14,6.86,10.63,12.22,-13.71,10.81,-47.2,93.16,-0.97,11.78,-13.18,15.56,-55.55,95.1,15.91,2.99,5.54,5.75,0.74,6.76,10.84,11.68,-13.74,10.54,-47.25,92.67,-0.92,11.4,-13.18,15.55,-55.41,95.01,15.78,2.47,5.54,0.1643,0.4681,-0.6852,0.3098,0.667,-0.9263,0.3012,-0.4045,0.3256,-0.0263,0.6618,-0.9198,0.4442,-0.5528,0.353,0.451,0.4994,-0.6995,0.0,0.006,0.0,0.006,0.013,0.0,0.006,0.0,0.006,0.0,0.006,0.0,0.0,0.006,0.0,0.0,0.006,0.0,0.0936,0.0123,0.1166,0.1902,0.2148,-0.2424,0.1917,-0.8253,1.6183,-0.0184,0.1994,-0.2316,0.27,-0.9725,1.6567,0.2777,0.0476,0.0936,-0.0,0.0,-0.0,0.0,-0.0,0.0001,-0.0,0.0008,-0.0005,-0.0,-0.0002,0.0,0.0,-0.0,-0.0011,-0.0,-0.0,0.0,-0.0233,0.0208,-0.0001,0.0006,0.0015,0.1643,0.4681,-0.6851,0.3098,0.667,-0.9264,0.3011,-0.4045,0.3256,-0.0263,0.6618,-0.9198,0.4443,-0.5528,0.3531,0.451,0.4994,-0.6995,0.0,0.0,0.0,0.0,0.0,0.0,0.0,0.0,0.0,
4.32,run,-0.11,3.04,-0.09,0.02,0.14,0.0,0.0,0.0,0.156,5.71,1.14,6.86,10.63,12.22,-13.71,10.81,-47.2,93.16,-0.97,11.78,-13.18,15.56,-55.55,95.1,15.91,2.99,5.54,5.75,0.75,6.75,10.85,11.69,-13.74,10.54,-47.24,92.68,-0.92,11.41,-13.18,15.55,-55.4,95.01,15.78,2.47,5.56,0.1643,0.4681,-0.6853,0.3099,0.667,-0.9263,0.3012,-0.4044,0.3256,-0.0263,0.6619,-0.9198,0.4443,-0.5528,0.3531,0.4509,0.4994,-0.6994,0.0,0.006,0.0,0.006,0.013,0.0,0.006,0.0,0.006,0.0,0.006,0.0,0.0,0.006,0.0,0.0,0.006,0.0,0.0936,0.0123,0.1166,0.1902,0.2148,-0.2424,0.1917,-0.8253,1.6183,-0.0184,0.1994,-0.2316,0.27,-0.9725,1.6567,0.2777,0.0476,0.0936,-0.0,0.0,-0.0,0.0,-0.0,0.0001,-0.0,0.0006,-0.0003,-0.0,-0.0001,0.0,0.0,-0.0,-0.0007,-0.0,-0.0,0.0,-0.0234,0.0204,-0.0011,-0.0005,0.0019,0.1643,0.4681,-0.6852,0.3098,0.667,-0.9263,0.3012,-0.4045,0.3256,-0.0263,0.6618,-0.9198,0.4442,-0.5528,0.353,0.451,0.4994,-0.6995,0.0,0.0,0.0,0.0,0.0,0.0,0.0,0.0,0.0,
4.36,run,-0.12,3.04,-0.04,0.03,0.09,0.0,0.0,0.0,0.156,5.71,1.14,6.86,10.63,12.22,-13.71,10.81,-47.2,93.16,-0.97,11.78,-13.18,15.56,-55.55,95.1,15.91,2.99,5.54,5.75,0.75,6.76,10.85,11.69,-13.73,10.54,-47.24,92.68,-0.92,11.41,-13.18,15.55,-55.4,95.01,15.78,2.46,5.56,0.1643,0.4681,-0.6852,0.3099,0.667,-0.9263,0.3012,-0.4044,0.3256,-0.0263,0.6619,-0.9198,0.4442,-0.5527,0.3531,0.4509,0.4994,-0.6993,0.0,0.006,0.0,0.006,0.013,0.0,0.006,0.0,0.006,0.0,0.006,0.0,0.0,0.006,0.0,0.0,0.006,0.0,0.0936,0.0123,0.1166,0.1902,0.2148,-0.2424,0.1917,-0.8253,1.6183,-0.0184,0.1994,-0.2316,0.27,-0.9725,1.6567,0.2777,0.0476,0.0936,-0.0,0.0,-0.0,0.0,-0.0,0.0001,-0.0,0.0004,-0.0002,-0.0,-0.0001,0.0,0.0,-0.0,-0.0005,-0.0,-0.0,0.0,-0.0235,0.0203,-0.0016,0.0003,0.0024,0.1643,0.4681,-0.6853,0.3099,0.667,-0.9263,0.3012,-0.4044,0.3256,-0.0263,0.6619,-0.9198,0.4443,-0.5528,0.3531,0.4509,0.4994,-0.6994,0.0,0.0,0.0,0.0,0.0,0.0,0.0,0.0,0.0,
4.4,run,-0.11,3.04,-0.02,-0.03,0.12,0.0,0.0,0.0,0.156,5.71,1.14,6.86,10.63,12.22,-13.71,10.81,-47.2,93.16,-0.97,11.78,-13.18,15.56,-55.55,95.1,15.91,2.99,5.54,5.75,0.75,6.76,10.85,11.69,-13.74,10.54,-47.24,92.67,-0.92,11.4,-13.18,15.55,-55.4,95.01,15.78,2.46,5.55,0.1643,0.4681,-0.6852,0.3099,0.667,-0.9263,0.3012,-0.4044,0.3256,-0.0263,0.6619,-0.9198,0.4442,-0.5528,0.353,0.4509,0.4994,-0.6994,0.0,0.013,0.0,0.0,0.013,0.0,0.006,0.0,0.013,0.0,0.0,0.0,0.0,0.006,0.0,0.0,0.006,0.0,0.0936,0.0123,0.1166,0.1902,0.2148,-0.2424,0.1917,-0.8253,1.6183,-0.0184,0.1994,-0.2316,0.27,-0.9725,1.6567,0.2777,0.0476,0.0936,-0.0,0.0,-0.0,0.0,-0.0,0.0,-0.0,0.0003,-0.0002,-0.0,-0.0001,0.0,0.0,-0.0,-0.0004,-0.0,-0.0,0.0,-0.0237,0.0203,-0.0007,0.0006,0.0016,0.1643,0.4681,-0.6852,0.3099,0.667,-0.9263,0.3012,-0.4044,0.3256,-0.0263,0.6619,-0.9198,0.4442,-0.5527,0.3531,0.4509,0.4994,-0.6993,0.0,0.0,0.0,0.0,0.0,0.0,0.0,0.0,0.0,
4.44,run,-0.12,3.04,-0.05,0.05,0.13,0.0,0.0,0.0,0.156,5.71,1.14,6.86,10.63,12.22,-13.71,10.81,-47.2,93.16,-0.97,11.78,-13.18,15.56,-55.55,95.1,15.91,2.99,5.54,5.75,0.75,6.75,10.85,11.69,-13.73,10.54,-47.24,92.68,-0.92,11.4,-13.18,15.55,-55.4,95.01,15.78,2.46,5.55,0.1643,0.4681,-0.6853,0.3099,0.667,-0.9263,0.3012,-0.4044,0.3256,-0.0263,0.6619,-0.9198,0.4442,-0.5528,0.353,0.4509,0.4993,-0.6994,0.0,0.013,0.0,0.0,0.013,0.0,0.006,0.0,0.013,0.0,0.0,0.0,0.0,0.006,0.0,0.0,0.006,0.0,0.0936,0.0123,0.1166,0.1902,0.2148,-0.2424,0.1917,-0.8253,1.6183,-0.0184,0.1994,-0.2316,0.27,-0.9725,1.6567,0.2777,0.0476,0.0936,-0.0,0.0,-0.0,0.0,-0.0,0.0,-0.0,0.0002,-0.0001,-0.0,-0.0,0.0,0.0,-0.0,-0.0003,-0.0,-0.0,0.0,-0.0237,0.0202,-0.0004,-0.0005,0.002,0.1643,0.4681,-0.6852,0.3099,0.667,-0.9263,0.3012,-0.4044,0.3256,-0.0263,0.6619,-0.9198,0.4442,-0.5528,0.353,0.4509,0.4994,-0.6994,0.0,0.0,0.0,0.0,0.0,0.0,0.0,0.0,0.0,
4.48,run,-0.12,3.04,-0.05,0.07,0.04,0.0,0.0,0.0,0.156,5.71,1.14,6.86,10.63,12.22,-13.71,10.81,-47.2,93.16,-0.97,11.78,-13.18,15.56,-55.55,95.1,15.91,2.99,5.54,5.75,0.75,6.76,10.85,11.69,-13.73,10.54,-47.24,92.68,-0.92,11.4,-13.18,15.55,-55.4,95.0,15.78,2.46,5.55,0.1643,0.4681,-0.6852,0.3099,0.667,-0.9263,0.3012,-0.4044,0.3256,-0.0263,0.6619,-0.9197,0.4442,-0.5527,0.353,0.4508,0.4993,-0.6994,0.0,0.013,0.0,0.0,0.013,0.0,0.006,0.0,0.013,0.0,0.0,0.0,0.0,0.006,0.0,0.0,0.006,0.0,0.0936,0.0123,0.1166,0.1902,0.2148,-0.2424,0.1917,-0.8253,1.6183,-0.0184,0.1994,-0.2316,0.27,-0.9725,1.6567,0.2777,0.0476,0.0936,-0.0,0.0,-0.0,0.0,-0.0,0.0,-0.0,0.0001,-0.0001,-0.0,-0.0,0.0,0.0,-0.0,-0.0002,-0.0,-0.0,0.0,-0.0239,0.0202,-0.0008,0.0009,0.0023,0.1643,0.4681,-0.6853,0.3099,0.667,-0.9263,0.3012,-0.4044,0.3256,-0.0263,0.6619,-0.9198,0.4442,-0.5528,0.353,0.4509,0.4993,-0.6994,0.0,0.0,0.0,0.0,0.0,0.0,0.0,0.0,0.0,
4.52,run,-0.12,3.04,-0.08,0.02,0.12,0.0,0.0,0.0,0.156,5.71,1.14,6.86,10.63,12.22,-13.71,10.81,-47.2,93.16,-0.97,11.78,-13.18,15.56,-55.55,95.1,15.91,2.99,5.54,5.75,0.75,6.77,10.84,11.69,-13.74,10.54,-47.25,92.68,-0.92,11.4,-13.18,15.55,-55.41,95.0,15.78,2.46,5.55,0.1642,0.4681,-0.6851,0.3098,0.667,-0.9264,0.3012,-0.4045,0.3256,-0.0263,0.6619,-0.9198,0.4442,-0.5528,0.353,0.4509,0.4993,-0.6994,0.0,0.006,0.0,0.006,0.006,0.0,0.006,0.0,0.006,0.0,0.006,0.0,0.0,0.006,0.0,0.0,0.013,0.0,0.0936,0.0123,0.1166,0.1902,0.2148,-0.2424,0.1917,-0.8253,1.6183,-0.0184,0.1994,-0.2316,0.27,-0.9725,1.6567,0.2777,0.0476,0.0936,-0.0,0.0,-0.0,0.0,-0.0,0.0,-0.0,0.0001,-0.0001,-0.0,-0.0,0.0,0.0,-0.0,-0.0001,-0.0,-0.0,0.0,-0.024,0.0202,-0.0009,0.0013,0.0007,0.1643,0.4681,-0.6852,0.3099,0.667,-0.9263,0.3012,-0.4044,0.3256,-0.0263,0.6619,-0.9197,0.4442,-0.5527,0.353,0.4508,0.4993,-0.6994,0.0,0.0,0.0,0.0,0.0,0.0,0.0,0.0,0.0,
4.56,run,-0.12,3.04,-0.07,0.03,0.15,0.0,0.0,0.0,0.156,5.71,1.14,6.86,10.63,12.22,-13.71,10.81,-47.2,93.16,-0.97,11.78,-13.18,15.56,-55.55,95.1,15.91,2.99,5.54,5.75,0.75,6.76,10.85,11.69,-13.74,10.54,-47.24,92.68,-0.92,11.4,-13.18,15.55,-55.4,95.01,15.78,2.46,5.56,0.1643,0.4681,-0.6851,0.3099,0.6671,-0.9263,0.3012,-0.4044,0.3257,-0.0263,0.6619,-0.9197,0.4442,-0.5528,0.353,0.4508,0.4993,-0.6993,0.0,0.006,0.0,0.006,0.006,0.0,0.006,0.0,0.006,0.0,0.006,0.0,0.0,0.006,0.0,0.0,0.013,0.0,0.0936,0.0123,0.1166,0.1902,0.2148,-0.2424,0.1917,-0.8253,1.6183,-0.0184,0.1994,-0.2316,0.27,-0.9725,1.6567,0.2777,0.0476,0.0936,-0.0,0.0,-0.0,0.0,-0.0,0.0,-0.0,0.0001,-0.0,-0.0,-0.0,0.0,0.0,-0.0,-0.0001,-0.0,-0.0,0.0,-0.0241,0.0203,-0.0013,0.0003,0.0022,0.1642,0.4681,-0.6851,0.3098,0.667,-0.9264,0.3012,-0.4045,0.3256,-0.0263,0.6619,-0.9198,0.4442,-0.5528,0.353,0.4509,0.4993,-0.6994,0.0,0.0,0.0,0.0,0.0,0.0,0.0,0.0,0.0,
4.6,run,-0.13,3.04,-0.08,-0.02,0.16,0.0,0.0,0.0,0.156,5.71,1.14,6.86,10.63,12.22,-13.71,10.81,-47.2,93.16,-0.97,11.78,-13.18,15.56,-55.55,95.1,15.91,2.99,5.54,5.75,0.75,6.77,10.85,11.69,-13.74,10.54,-47.24,92.69,-0.92,11.4,-13.18,15.55,-55.4,95.01,15.78,2.46,5.56,0.1643,0.4681,-0.6851,0.3099,0.6671,-0.9263,0.3012,-0.4044,0.3257,-0.0263,0.6619,-0.9197,0.4442,-0.5528,0.353,0.4508,0.4993,-0.6993,0.0,0.006,0.0,0.006,0.006,0.0,0.006,0.0,0.006,0.0,0.006,0.0,0.0,0.006,0.0,0.0,0.013,0.0,0.0936,0.0123,0.1166,0.1902,0.2148,-0.2424,0.1917,-0.8253,1.6183,-0.0184,0.1994,-0.2316,0.27,-0.9725,1.6567,0.2777,0.0476,0.0936,-0.0,0.0,-0.0,0.0,-0.0,0.0,-0.0,0.0,-0.0,-0.0,-0.0,0.0,0.0,-0.0,-0.0001,-0.0,-0.0,0.0,-0.0244,0.0204,-0.0012,0.0005,0.0026,0.1643,0.4681,-0.6851,0.3099,0.6671,-0.9263,0.3012,-0.4044,0.3257,-0.0263,0.6619,-0.9197,0.4442,-0.5528,0.353,0.4508,0.4993,-0.6993,0.0,0.0,0.0,0.0,0.0,0.0,0.0,0.0,0.0,
4.64,run,-0.13,3.04,-0.06,-0.01,0.12,0.0,0.0,0.0,0.156,5.71,1.14,6.86,10.63,12.22,-13.71,10.81,-47.2,93.16,-0.97,11.78,-13.18,15.56,-55.55,95.1,15.91,2.99,5.54,5.75,0.75,6.76,10.85,11.69,-13.74,10.54,-47.24,92.69,-0.92,11.41,-13.18,15.55,-55.4,95.01,15.78,2.46,5.56,0.1643,0.4682,-0.6851,0.3099,0.6671,-0.9263,0.3012,-0.4043,0.3258,-0.0263,0.6619,-0.9197,0.4442,-0.5528,0.3531,0.4508,0.4993,-0.6992,0.0,0.006,0.0,0.006,0.013,0.0,0.006,0.0,0.006,0.0,0.006,0.0,0.0,0.006,0.0,0.0,0.013,0.0,0.0936,0.0123,0.1166,0.1902,0.2148,-0.2424,0.1917,-0.8253,1.6183,-0.0184,0.1994,-0.2316,0.27,-0.9725,1.6567,0.2777,0.0476,0.0936,-0.0,0.0,-0.0,0.0,-0.0,0.0,-0.0,0.0,-0.0,-0.0,-0.0,0.0,0.0,-0.0,-0.0,-0.0,-0.0,0.0,-0.0246,0.0203,-0.0015,-0.0003,0.0027,0.1643,0.4681,-0.6851,0.3099,0.6671,-0.9263,0.3012,-0.4044,0.3257,-0.0263,0.6619,-0.9197,0.4442,-0.5528,0.353,0.4508,0.4993,-0.6993,0.0,0.0,0.0,0.0,0.0,0.0,0.0,0.0,0.0,
4.68,run,-0.13,3.03,-0.07,-0.05,0.16,0.0,0.0,0.0,0.156,5.71,1.14,6.86,10.63,12.22,-13.71,10.81,-47.2,93.16,-0.97,11.78,-13.18,15.56,-55.55,95.1,15.91,2.99,5.54,5.75,0.75,6.76,10.85,11.69,-13.74,10.54,-47.24,92.69,-0.92,11.41,-13.18,15.55,-55.4,95.01,15.78,2.46,5.56,0.1643,0.4682,-0.6851,0.3099,0.6671,-0.9263,0.3012,-0.4043,0.3258,-0.0263,0.662,-0.9197,0.4441,-0.5528,0.353,0.4508,0.4993,-0.6993,0.0,0.006,0.0,0.006,0.013,0.0,0.006,0.0,0.006,0.0,0.006,0.0,0.0,0.006,0.0,0.0,0.013,0.0,0.0936,0.0123,0.1166,0.1902,0.2148,-0.2424,0.1917,-0.8253,1.6183,-0.0184,0.1994,-0.2316,0.27,-0.9725,1.6567,0.2777,0.0476,0.0936,-0.0,0.0,-0.0,0.0,-0.0,0.0,-0.0,0.0,-0.0,-0.0,-0.0,0.0,0.0,-0.0,-0.0,-0.0,-0.0,0.0,-0.0248,0.02,-0.0011,-0.0002,0.0022,0.1643,0.4682,-0.6851,0.3099,0.6671,-0.9263,0.3012,-0.4043,0.3258,-0.0263,0.6619,-0.9197,0.4442,-0.5528,0.3531,0.4508,0.4993,-0.6992,0.0,0.0,0.0,0.0,0.0,0.0,0.0,0.0,0.0,
4.72,run,-0.13,3.03,-0.08,0.0,0.1,0.0,0.0,0.0,0.156,5.71,1.14,6.86,10.63,12.22,-13.71,10.81,-47.2,93.16,-0.97,11.78,-13.18,15.56,-55.55,95.1,15.91,2.99,5.54,5.75,0.75,6.76,10.85,11.7,-13.73,10.54,-47.23,92.69,-0.92,11.41,-13.18,15.54,-55.4,95.01,15.77,2.46,5.57,0.1643,0.4682,-0.6852,0.31,0.6672,-0.9263,0.3012,-0.4042,0.3258,-0.0263,0.662,-0.9197,0.4441,-0.5527,0.3531,0.4507,0.4992,-0.6992,0.0,0.006,0.0,0.006,0.013,0.0,0.006,0.0,0.006,0.0,0.006,0.0,0.0,0.006,0.0,0.0,0.013,0.0,0.0936,0.0123,0.1166,0.1902,0.2148,-0.2424,0.1917,-0.8253,1.6183,-0.0184,0.1994,-0.2316,0.27,-0.9725,1.6567,0.2777,0.0476,0.0936,-0.0,0.0,-0.0,0.0,-0.0,0.0,-0.0,0.0,-0.0,-0.0,-0.0,0.0,0.0,-0.0,-0.0,-0.0,-0.0,0.0,-0.0251,0.0198,-0.0012,-0.0009,0.0028,0.1643,0.4682,-0.6851,0.3099,0.6671,-0.9263,0.3012,-0.4043,0.3258,-0.0263,0.662,-0.9197,0.4441,-0.5528,0.353,0.4508,0.4993,-0.6993,0.0,0.0,0.0,0.0,0.0,0.0,0.0,0.0,0.0,
4.76,run,-0.13,3.03,-0.04,0.07,0.12,0.0,0.0,0.0,0.156,5.71,1.14,6.86,10.63,12.22,-13.71,10.81,-47.2,93.16,-0.97,11.78,-13.18,15.56,-55.55,95.1,15.82,2.99,5.54,5.75,0.75,6.77,10.85,11.69,-13.74,10.54,-47.24,92.69,-0.92,11.41,-13.18,15.54,-55.4,95.01,15.78,2.46,5.56,0.1643,0.4682,-0.6851,0.3099,0.6671,-0.9263,0.3012,-0.4043,0.3258,-0.0263,0.662,-0.9197,0.4441,-0.5528,0.353,0.4507,0.4993,-0.6992,0.0,0.006,0.0,0.006,0.013,0.0,0.0,0.0,0.006,0.0,0.006,0.0,0.0,0.006,0.0,0.0,0.006,0.0,0.0936,0.0123,0.1166,0.1902,0.2148,-0.2424,0.1917,-0.8253,1.6183,-0.0184,0.1994,-0.2316,0.27,-0.9725,1.6567,0.2777,0.0476,0.0936,-0.0,0.0,-0.0,0.0,-0.0,0.0,-0.0,0.0,-0.0,-0.0,-0.0,0.0,0.0,-0.0,-0.0,-0.0,-0.0,0.0,-0.025,0.0198,-0.0015,0.0001,0.0018,0.1643,0.4682,-0.6852,0.31,0.6672,-0.9263,0.3012,-0.4042,0.3258,-0.0263,0.662,-0.9197,0.4441,-0.5527,0.3531,0.4507,0.4992,-0.6992,0.0,0.0,0.0,0.0,0.0,0.0,0.0,0.0,0.0,
4.8,run,-0.13,3.03,0.04,0.03,0.01,0.0,0.0,0.0,0.156,5.71,1.14,6.86,10.63,12.22,-13.71,10.81,-47.2,93.16,-0.97,11.78,-13.18,15.56,-55.55,95.1,15.82,2.99,5.54,5.75,0.74,6.78,10.84,11.69,-13.73,10.54,-47.23,92.69,-0.91,11.4,-13.16,15.54,-55.4,95.02,15.77,2.45,5.57,0.1643,0.468,-0.6849,0.3097,0.6671,-0.9263,0.3012,-0.4042,0.3258,-0.026,0.6617,-0.9196,0.444,-0.5527,0.3532,0.4507,0.4991,-0.6992,0.0,0.006,0.0,0.006,0.013,0.0,0.0,0.0,0.006,0.0,0.006,0.0,0.0,0.006,0.0,0.0,0.006,0.0,0.0936,0.0123,0.1166,0.1902,0.2148,-0.2424,0.1917,-0.8253,1.6183,-0.0184,0.1994,-0.2316,0.27,-0.9725,1.6567,0.2761,0.0476,0.0936,-0.0,0.0,-0.0,0.0,-0.0,0.0,-0.0,0.0,-0.0,-0.0,-0.0,0.0,0.0,-0.0,-0.0,-0.0058,-0.0,0.0,-0.0249,0.0195,-0.0007,0.0013,0.002,0.1643,0.4682,-0.6851,0.3099,0.6671,-0.9263,0.3012,-0.4043,0.3258,-0.0263,0.662,-0.9197,0.4441,-0.5528,0.353,0.4507,0.4993,-0.6992,0.0,0.0,0.0,0.0,0.0,0.0,0.0,0.0,0.0,
4.84,run,-0.14,3.03,-0.05,0.08,0.16,0.0,0.0,0.0,0.156,5.71,1.14,6.86,10.63,12.22,-13.71,10.81,-47.2,93.16,-0.97,11.78,-13.18,15.56,-55.55,95.1,15.82,2.99,5.54,5.75,0.74,6.78,10.84,11.69,-13.73,10.54,-47.24,92.68,-0.91,11.4,-13.17,15.54,-55.41,95.01,15.77,2.45,5.56,0.1643,0.468,-0.685,0.3097,0.667,-0.9263,0.3012,-0.4043,0.3257,-0.026,0.6618,-0.9197,0.444,-0.5528,0.3531,0.4507,0.4991,-0.6993,0.0,0.006,0.0,0.006,0.013,0.0,0.0,0.0,0.006,0.0,0.006,0.0,0.0,0.006,0.0,0.0,0.006,0.0,0.0936,0.0123,0.1166,0.1902,0.2148,-0.2424,0.1917,-0.8253,1.6183,-0.0184,0.1994,-0.2316,0.27,-0.9725,1.6567,0.2761,0.0476,0.0936,-0.0,0.0,-0.0,0.0,-0.0,0.0,-0.0,0.0,-0.0,-0.0,-0.0,0.0,0.0,-0.0,-0.0,-0.004,-0.0,0.0,-0.0247,0.0191,0.0007,0.0006,0.0002,0.1643,0.468,-0.6849,0.3097,0.6671,-0.9263,0.3012,-0.4042,0.3258,-0.026,0.6617,-0.9196,0.444,-0.5527,0.3532,0.4507,0.4991,-0.6992,0.0,0.0,0.0,0.0,0.0,0.0,0.0,0.0,0.0,
4.88,run,-0.14,3.02,-0.13,-0.03,0.21,0.0,0.0,0.0,0.156,5.71,1.14,6.86,10.63,12.22,-13.71,10.81,-47.2,93.16,-0.97,11.78,-13.18,15.56,-55.55,95.1,15.73,2.99,5.54,5.75,0.74,6.79,10.84,11.69,-13.73,10.54,-47.23,92.69,-0.91,11.4,-13.16,15.54,-55.4,95.01,15.77,2.45,5.57,0.1643,0.4681,-0.6849,0.3097,0.6671,-0.9262,0.3012,-0.4041,0.3258,-0.026,0.6618,-0.9195,0.444,-0.5527,0.353,0.4505,0.4991,-0.6992,0.0,0.006,0.0,0.0,0.006,0.0,0.006,0.0,0.006,0.0,0.006,0.0,0.0,0.006,0.0,0.0,0.006,0.0,0.0936,0.0123,0.1166,0.1902,0.2148,-0.2424,0.1917,-0.8253,1.6183,-0.0184,0.1994,-0.2316,0.27,-0.9725,1.6567,0.2761,0.0476,0.0936,-0.0,0.0,-0.0,0.0,-0.0,0.0,-0.0,0.0,-0.0,-0.0,-0.0,0.0,0.0,-0.0,-0.0,-0.0028,-0.0,0.0,-0.0257,0.0194,-0.0008,0.0014,0.0028,0.1643,0.468,-0.685,0.3097,0.667,-0.9263,0.3012,-0.4043,0.3257,-0.026,0.6618,-0.9197,0.444,-0.5528,0.3531,0.4507,0.4991,-0.6993,0.0,0.0,0.0,0.0,0.0,0.0,0.0,0.0,0.0,
4.92,run,-0.15,3.03,-0.06,0.07,0.11,0.0,0.0,0.0,0.156,5.71,1.14,6.86,10.63,12.22,-13.71,10.81,-47.2,93.16,-0.97,11.78,-13.18,15.56,-55.55,95.1,15.73,2.99,5.54,5.75,0.74,6.79,10.84,11.69,-13.73,10.54,-47.21,92.72,-0.91,11.39,-13.15,15.54,-55.39,95.03,15.77,2.44,5.6,0.1644,0.4681,-0.6848,0.3097,0.6672,-0.9262,0.3013,-0.4039,0.3261,-0.0259,0.6617,-0.9194,0.4439,-0.5526,0.3533,0.4505,0.4989,-0.6989,0.0,0.006,0.0,0.0,0.006,0.0,0.006,0.0,0.006,0.0,0.006,0.0,0.0,0.006,0.0,0.0,0.006,0.0,0.0936,0.0123,0.1166,0.1902,0.2148,-0.2424,0.1917,-0.8253,1.6183,-0.0184,0.1994,-0.2316,0.27,-0.9725,1.6567,0.2746,0.0476,0.0936,-0.0,0.0,-0.0,0.0,-0.0,0.0,-0.0,0.0,-0.0,-0.0,-0.0,0.0,0.0,-0.0,-0.0,-0.0078,-0.0,0.0,-0.026,0.0188,-0.0023,-0.0005,0.0036,0.1643,0.4681,-0.6849,0.3097,0.6671,-0.9262,0.3012,-0.4041,0.3258,-0.026,0.6618,-0.9195,0.444,-0.5527,0.353,0.4505,0.4991,-0.6992,0.0,0.0,0.0,0.0,0.0,0.0,0.0,0.0,0.0,
4.96,run,-0.14,3.03,-0.01,0.07,0.09,0.0,0.0,0.0,0.156,5.71,1.14,6.86,10.63,12.22,-13.71,10.81,-47.2,93.16,-0.97,11.78,-13.18,15.56,-55.55,95.1,15.73,2.99,5.54,5.75,0.74,6.8,10.83,11.7,-13.74,10.54,-47.23,92.71,-0.9,11.39,-13.15,15.54,-55.4,95.02,15.77,2.44,5.58,0.1643,0.468,-0.6847,0.3095,0.6672,-0.9263,0.3012,-0.4041,0.326,-0.0259,0.6617,-0.9194,0.4439,-0.5528,0.3532,0.4505,0.499,-0.6991,0.0,0.006,0.0,0.0,0.006,0.0,0.006,0.0,0.006,0.0,0.006,0.0,0.0,0.006,0.0,0.0,0.006,0.0,0.0936,0.0123,0.1166,0.1902,0.2148,-0.2424,0.1917,-0.8253,1.6183,-0.0184,0.1994,-0.2316,0.27,-0.9725,1.6567,0.2746,0.0476,0.0936,-0.0,0.0,-0.0,0.0,-0.0,0.0,-0.0,0.0,-0.0,-0.0,-0.0,0.0,0.0,-0.0,-0.0,-0.0054,-0.0,0.0,-0.0263,0.0191,-0.0011,0.0011,0.0019,0.1644,0.4681,-0.6848,0.3097,0.6672,-0.9262,0.3013,-0.4039,0.3261,-0.0259,0.6617,-0.9194,0.4439,-0.5526,0.3533,0.4505,0.4989,-0.6989,0.0,0.0,0.0,0.0,0.0,0.0,0.0,0.0,0.0,
