t_s,phase,roll_deg,pitch_deg,gyro_x_dps,gyro_y_dps,gyro_z_dps,height_ref_mm,vx_ref_mps,vy_ref_mps,max_cur_a,q0_deg,q1_deg,q2_deg,q3_deg,q4_deg,q5_deg,q6_deg,q7_deg,q8_deg,q9_deg,q10_deg,q11_deg,q12_deg,q13_deg,q14_deg,q15_deg,q16_deg,q17_deg,cmd0_deg,cmd1_deg,cmd2_deg,cmd3_deg,cmd4_deg,cmd5_deg,cmd6_deg,cmd7_deg,cmd8_deg,cmd9_deg,cmd10_deg,cmd11_deg,cmd12_deg,cmd13_deg,cmd14_deg,cmd15_deg,cmd16_deg,cmd17_deg,act0,act1,act2,act3,act4,act5,act6,act7,act8,act9,act10,act11,act12,act13,act14,act15,act16,act17,cur0_a,cur1_a,cur2_a,cur3_a,cur4_a,cur5_a,cur6_a,cur7_a,cur8_a,cur9_a,cur10_a,cur11_a,cur12_a,cur13_a,cur14_a,cur15_a,cur16_a,cur17_a,obs0,obs1,obs2,obs3,obs4,obs5,obs6,obs7,obs8,obs9,obs10,obs11,obs12,obs13,obs14,obs15,obs16,obs17,obs18,obs19,obs20,obs21,obs22,obs23,obs24,obs25,obs26,obs27,obs28,obs29,obs30,obs31,obs32,obs33,obs34,obs35,obs36,obs37,obs38,obs39,obs40,obs41,obs42,obs43,obs44,obs45,obs46,obs47,obs48,obs49,obs50,obs51,obs52,obs53,obs54,obs55,obs56,obs57,obs58,obs59,obs60,obs61,obs62,obs63,obs64,obs65,obs66,obs67,rot60_k
0.0,run,-0.94,4.15,-0.47,-0.08,1.29,0.0,0.0,0.0,0.026,-0.26,0.62,0.18,-0.26,-0.09,0.26,0.18,0.09,0.44,-1.14,0.79,0.44,-0.09,0.35,0.0,0.0,0.53,0.35,-0.03,-0.97,1.68,1.24,-0.9,1.68,1.68,-1.41,1.94,-2.29,2.12,1.76,1.41,-1.32,1.5,1.5,-0.83,1.76,-0.0009,0.3344,-0.0886,0.1333,0.4383,-0.3203,0.1648,-0.0838,-0.2035,-0.226,0.5735,-0.0905,0.0697,-0.0346,-0.2575,0.4181,0.4394,-0.1855,0.0,0.013,0.0,0.0,0.006,0.006,0.006,0.019,0.006,0.006,0.0,0.0,0.013,0.026,0.006,0.013,0.006,0.0,0.0031,0.0015,0.0,0.0,0.0,0.0015,0.0,0.0,0.0,-0.0061,0.0031,0.0031,0.0,0.0031,0.0,0.0,0.0,0.0015,0.0062,0.003,0.0,0.0,0.0,0.0032,0.0,0.0,0.0,-0.012,0.006,0.006,0.0,0.0062,0.0,0.0,0.0,0.003,0.0,0.0,0.0105,0.0031,-0.0185,0.0,0.0,0.0,0.0,0.0,0.0,0.0,0.0,0.0,0.0,0.0,0.0,0.0,0.0,0.0,0.0,0.0,0.0,0.0,0.0,0.0,0.0,0.0,0.0,0.0,0.0,0.0,
0.04,run,-0.92,4.14,0.1,0.14,-1.32,0.0,0.0,0.0,0.026,0.26,0.62,0.26,-0.18,-0.09,0.35,0.18,-0.18,0.53,-1.41,0.88,0.7,0.0,0.09,0.18,0.26,0.53,0.35,-0.39,0.53,3.18,2.74,0.6,3.18,3.18,-2.91,3.44,-2.17,3.62,3.26,2.91,-2.82,3.0,3.0,0.67,3.26,-0.0112,0.5443,-0.294,0.1683,0.5607,-0.4487,0.1806,0.1611,-0.169,-0.0619,0.6182,-0.4086,0.1393,0.1297,-0.0266,0.3369,0.5771,-0.5218,0.0,0.013,0.0,0.0,0.006,0.006,0.006,0.019,0.006,0.006,0.0,0.0,0.013,0.026,0.006,0.013,0.006,0.0,-0.0061,0.0015,0.0,0.0,0.0,0.0015,0.0,0.0,0.0,-0.0061,0.0031,0.0031,0.0,0.0031,0.0,0.0,0.0,0.0015,-0.0108,0.0021,0.0,0.0,0.0,0.0022,0.0,0.0,0.0,-0.0084,0.0042,0.0042,0.0,0.0043,0.0,0.0,0.0,0.0021,-0.0032,-0.0001,-0.0082,-0.0014,0.0224,-0.0009,0.3344,-0.0886,0.1333,0.4383,-0.3203,0.1648,-0.0838,-0.2035,-0.226,0.5735,-0.0905,0.0697,-0.0346,-0.2575,0.4181,0.4394,-0.1855,0.0,0.0,0.0,0.0,0.0,0.0,0.0,0.0,0.0,
0.08,run,-0.89,4.17,0.21,1.26,-3.0,0.0,0.0,0.0,0.026,-0.18,0.26,0.79,0.26,-0.18,1.05,0.35,-0.79,1.05,-2.02,1.49,1.32,0.79,-0.7,0.97,1.05,0.26,0.88,-0.34,2.03,4.68,4.24,2.1,4.68,4.68,-4.41,4.94,-0.67,5.12,4.76,4.41,-4.32,4.5,4.5,2.17,4.76,-0.0098,0.6053,-0.3783,0.1888,0.6301,-0.4903,0.201,0.171,-0.0915,-0.016,0.6296,-0.4687,0.1623,0.1688,-0.0861,0.2884,0.5589,-0.5192,0.0,0.013,0.0,0.0,0.006,0.006,0.006,0.019,0.006,0.006,0.0,0.0,0.013,0.026,0.006,0.013,0.006,0.0,0.0031,0.0015,0.0015,0.0015,0.0,0.0031,0.0,-0.0046,0.0015,-0.0107,0.0046,0.0077,0.0015,-0.0015,0.0031,0.0046,0.0,0.0015,0.0269,0.0015,0.0057,0.0057,0.0,0.0073,0.0,-0.0172,0.0057,-0.0231,0.0087,0.0202,0.0057,-0.0142,0.0115,0.0172,0.0,0.0015,-0.001,-0.0009,0.0017,0.0025,-0.023,-0.0112,0.5443,-0.294,0.1683,0.5607,-0.4487,0.1806,0.1611,-0.169,-0.0619,0.6182,-0.4086,0.1393,0.1297,-0.0266,0.3369,0.5771,-0.5218,0.0,0.0,0.0,0.0,0.0,0.0,0.0,0.0,0.0,
0.12,run,-0.93,4.15,-0.52,-0.75,0.2,0.0,0.0,0.0,0.039,-0.62,-0.18,1.58,1.05,-0.26,2.2,1.58,-1.67,1.49,-2.11,2.29,2.29,1.76,-1.58,2.11,1.93,-0.09,1.76,-0.56,3.53,6.18,5.74,3.6,6.18,6.18,-5.91,6.44,-0.01,6.62,6.26,5.01,-5.82,6.0,6.0,3.67,6.26,-0.0159,0.5854,-0.3903,0.175,0.6213,-0.5056,0.1935,0.1674,-0.1227,-0.0002,0.6198,-0.4872,0.1432,0.1798,-0.151,0.2806,0.5768,-0.5537,0.006,0.0,0.013,0.026,0.0,0.019,0.019,0.039,0.039,0.0,0.006,0.013,0.013,0.033,0.013,0.013,0.006,0.019,-0.0046,-0.0046,0.0107,0.0092,-0.0015,0.0153,0.0031,-0.0153,0.0107,-0.0215,0.0153,0.0184,0.0153,-0.0153,0.0169,0.0184,-0.0046,0.0107,-0.01,-0.0221,0.0387,0.0329,-0.0058,0.0513,0.0116,-0.0525,0.0387,-0.0566,0.0465,0.0545,0.056,-0.0619,0.06,0.064,-0.0173,0.0357,0.0009,0.0016,0.0037,0.0221,-0.0523,-0.0098,0.6053,-0.3783,0.1888,0.6301,-0.4903,0.201,0.171,-0.0915,-0.016,0.6296,-0.4687,0.1623,0.1688,-0.0861,0.2884,0.5589,-0.5192,0.0,0.0,0.0,0.0,0.0,0.0,0.0,0.0,0.0,
0.16,run,-0.9,4.15,0.37,0.39,-1.23,0.0,0.0,0.0,0.039,-0.18,-0.26,2.81,2.29,-0.09,3.43,2.72,-2.9,2.64,-2.11,3.52,3.6,3.08,-2.9,3.34,3.25,-0.09,2.9,-1.2,5.03,7.68,5.74,5.1,7.68,5.96,-7.41,7.94,0.16,7.01,7.76,3.67,-7.32,7.5,7.5,5.17,7.76,-0.0342,0.5512,-0.4064,0.164,0.5804,-0.5087,0.1702,0.2063,-0.2108,0.0047,0.582,-0.496,0.1048,0.2124,-0.2802,0.268,0.568,-0.599,0.006,0.0,0.013,0.026,0.0,0.019,0.019,0.039,0.039,0.0,0.006,0.013,0.013,0.033,0.013,0.013,0.006,0.019,-0.0123,-0.0123,0.0245,0.023,-0.0031,0.0353,0.0245,-0.0307,0.0184,-0.023,0.0291,0.0353,0.0322,-0.0307,0.0368,0.0337,-0.0107,0.0261,-0.0357,-0.0441,0.0787,0.0747,-0.0098,0.1105,0.0884,-0.0941,0.0558,-0.0454,0.0842,0.1013,0.1023,-0.1007,0.1166,0.1022,-0.0351,0.0823,-0.002,0.0003,-0.009,-0.0131,0.0035,-0.0159,0.5854,-0.3903,0.175,0.6213,-0.5056,0.1935,0.1674,-0.1227,-0.0002,0.6198,-0.4872,0.1432,0.1798,-0.151,0.2806,0.5768,-0.5537,0.0,0.0,0.0,0.0,0.0,0.0,0.0,0.0,0.0,
0.2,run,-0.9,4.16,-0.62,0.02,-0.23,0.0,0.0,0.0,0.039,-0.88,0.0,4.04,3.43,0.62,4.66,3.96,-4.13,4.04,-1.85,4.66,4.66,3.87,-4.13,4.57,4.48,0.18,4.13,-2.23,3.53,9.18,5.53,3.6,9.18,4.75,-8.91,9.44,0.02,5.51,9.26,2.17,-8.82,9.0,9.0,5.51,8.57,-0.0639,0.5161,-0.4255,0.158,0.5155,-0.5116,0.1358,0.2582,-0.3377,0.0006,0.5223,-0.5032,0.0472,0.262,-0.4605,0.2618,0.5547,-0.6639,0.006,0.0,0.013,0.026,0.0,0.019,0.019,0.039,0.039,0.0,0.006,0.013,0.013,0.033,0.013,0.013,0.006,0.019,-0.0046,-0.0138,0.046,0.0445,0.0,0.0568,0.0445,-0.0522,0.0383,-0.023,0.0506,0.0583,0.0552,-0.0537,0.0583,0.0568,-0.0107,0.046,0.0023,-0.0364,0.1315,0.1286,0.0041,0.1537,0.1328,-0.1423,0.1099,-0.0317,0.1353,0.1527,0.1534,-0.1523,0.158,0.1534,-0.0246,0.1286,0.0001,0.0,0.0064,0.0067,-0.0215,-0.0342,0.5512,-0.4064,0.164,0.5804,-0.5087,0.1702,0.2063,-0.2108,0.0047,0.582,-0.496,0.1048,0.2124,-0.2802,0.268,0.568,-0.599,0.0,0.0,0.0,0.0,0.0,0.0,0.0,0.0,0.0,
0.24,run,-0.89,4.14,0.3,0.15,1.67,0.0,0.0,0.0,0.039,-1.05,0.79,5.36,4.31,1.58,5.98,4.83,-5.45,5.36,-1.05,5.62,6.06,4.57,-5.45,5.89,5.71,0.79,5.36,-2.81,2.11,10.68,5.94,2.1,10.68,4.02,-8.07,10.94,-0.53,4.01,10.76,0.67,-8.71,10.5,9.35,4.11,7.07,-0.0801,0.493,-0.4609,0.1697,0.4533,-0.5184,0.1149,0.3078,-0.4413,-0.015,0.4623,-0.5139,0.0074,0.2961,-0.5815,0.2672,0.5293,-0.7203,0.026,0.006,0.006,0.006,0.0,0.013,0.006,0.026,0.026,0.026,0.0,0.006,0.006,0.019,0.013,0.013,0.006,0.013,-0.0169,-0.0092,0.0675,0.0644,0.0123,0.0782,0.066,-0.0736,0.0629,-0.0184,0.0706,0.0767,0.069,-0.0752,0.0798,0.0782,-0.0061,0.0675,-0.0439,-0.0084,0.1717,0.1641,0.0484,0.1873,0.1727,-0.1793,0.1681,-0.0051,0.1687,0.1752,0.1586,-0.1863,0.1903,0.1871,-0.0001,0.1697,0.0005,0.0009,-0.0108,0.0003,-0.004,-0.0639,0.5161,-0.4255,0.158,0.5155,-0.5116,0.1358,0.2582,-0.3377,0.0006,0.5223,-0.5032,0.0472,0.262,-0.4605,0.2618,0.5547,-0.6639,0.0,0.0,0.0,0.0,0.0,0.0,0.0,0.0,0.0,
0.28,run,-0.84,4.16,1.05,0.89,-3.18,0.0,0.0,0.0,0.039,-1.76,1.76,6.68,5.01,2.46,7.38,5.45,-6.77,6.77,-0.7,6.33,7.56,4.83,-6.68,7.29,7.21,1.85,6.59,-3.06,0.61,12.18,5.99,0.6,12.18,3.91,-7.13,12.44,-0.43,2.51,12.26,-0.26,-8.5,11.2,9.76,2.61,5.57,-0.0874,0.4515,-0.4964,0.1711,0.3951,-0.525,0.1116,0.3249,-0.4999,-0.0123,0.4019,-0.5309,-0.0073,0.3001,-0.633,0.2788,0.4881,-0.7629,0.026,0.006,0.006,0.006,0.0,0.013,0.006,0.026,0.026,0.026,0.0,0.006,0.006,0.019,0.013,0.013,0.006,0.013,-0.0199,0.0046,0.0905,0.0798,0.0291,0.1012,0.0813,-0.0966,0.0859,-0.0046,0.0874,0.1012,0.0813,-0.0982,0.1028,0.0997,0.0046,0.089,-0.0423,0.046,0.2067,0.1725,0.0973,0.2176,0.1785,-0.212,0.2041,0.0483,0.1815,0.2149,0.1572,-0.2169,0.2197,0.2117,0.0403,0.1995,0.0012,-0.0009,0.0052,0.0026,0.0291,-0.0801,0.493,-0.4609,0.1697,0.4533,-0.5184,0.1149,0.3078,-0.4413,-0.015,0.4623,-0.5139,0.0074,0.2961,-0.5815,0.2672,0.5293,-0.7203,0.0,0.0,0.0,0.0,0.0,0.0,0.0,0.0,0.0,
0.32,run,-0.88,4.13,-0.74,-0.75,0.61,0.0,0.0,0.0,0.039,-2.9,2.46,8.09,5.45,3.08,8.79,5.8,-7.65,8.09,-0.53,6.77,8.88,4.75,-7.56,8.61,8.17,2.9,7.47,-3.17,-0.89,13.68,5.34,-0.9,13.68,4.15,-8.0,13.94,-0.15,1.01,13.76,-0.21,-9.97,10.18,10.69,1.11,4.07,-0.0905,0.3894,-0.5286,0.1527,0.3222,-0.529,0.1185,0.3091,-0.5304,-0.0042,0.3358,-0.5453,-0.0059,0.2732,-0.6449,0.3054,0.4436,-0.7989,0.026,0.006,0.006,0.006,0.0,0.013,0.006,0.026,0.026,0.026,0.0,0.006,0.006,0.019,0.013,0.013,0.006,0.013,-0.0322,0.0215,0.1135,0.092,0.0445,0.1258,0.092,-0.1197,0.1104,0.0015,0.0997,0.1273,0.0859,-0.1197,0.1273,0.1258,0.023,0.1104,-0.0756,0.0955,0.2309,0.1667,0.1256,0.2443,0.1652,-0.2346,0.2349,0.0568,0.1731,0.2482,0.1273,-0.2323,0.2458,0.2459,0.0972,0.2202,0.0059,0.0011,0.0184,0.0155,-0.0555,-0.0874,0.4515,-0.4964,0.1711,0.3951,-0.525,0.1116,0.3249,-0.4999,-0.0123,0.4019,-0.5309,-0.0073,0.3001,-0.633,0.2788,0.4881,-0.7629,0.0,0.0,0.0,0.0,0.0,0.0,0.0,0.0,0.0,
0.36,run,-0.91,4.15,0.21,0.36,1.67,0.0,0.0,0.0,0.039,-2.9,2.99,9.49,5.45,3.34,10.2,5.8,-8.26,9.49,-0.7,6.77,10.55,4.22,-8.44,9.67,9.14,3.43,8.0,-3.32,-2.39,15.18,4.83,-2.4,15.18,4.58,-9.23,15.44,0.06,-0.49,15.26,-0.04,-11.47,11.44,11.74,-0.39,2.57,-0.0949,0.3138,-0.5543,0.1381,0.2525,-0.5265,0.1308,0.2867,-0.5433,0.0017,0.2718,-0.5424,-0.0013,0.2368,-0.6302,0.3353,0.3906,-0.813,0.019,0.006,0.013,0.006,0.0,0.013,0.013,0.019,0.019,0.026,0.013,0.0,0.006,0.019,0.006,0.006,0.0,0.0,-0.0522,0.0337,0.1381,0.0997,0.0552,0.1503,0.0982,-0.135,0.1335,0.0046,0.1074,0.1503,0.0844,-0.135,0.1503,0.1427,0.0414,0.1258,-0.1277,0.1129,0.2537,0.1455,0.1282,0.2631,0.1387,-0.2218,0.2507,0.0513,0.1499,0.26,0.0833,-0.2202,0.2584,0.2354,0.1371,0.2116,0.0019,-0.0014,-0.0129,-0.0131,0.0107,-0.0905,0.3894,-0.5286,0.1527,0.3222,-0.529,0.1185,0.3091,-0.5304,-0.0042,0.3358,-0.5453,-0.0059,0.2732,-0.6449,0.3054,0.4436,-0.7989,0.0,0.0,0.0,0.0,0.0,0.0,0.0,0.0,0.0,
0.4,run,-0.85,4.14,0.5,-0.03,-1.71,0.0,0.0,0.0,0.039,-3.16,2.99,10.9,5.45,3.34,11.6,5.8,-8.7,10.99,-0.44,6.77,11.78,3.25,-9.4,10.55,10.2,3.87,8.26,-3.43,-3.89,16.68,4.28,-3.9,16.68,4.95,-10.73,16.94,0.34,-1.99,16.76,0.35,-12.97,12.93,12.73,-1.89,1.07,-0.0979,0.2454,-0.5622,0.1223,0.1874,-0.5238,0.1414,0.2546,-0.5513,0.0096,0.2234,-0.5374,0.0101,0.192,-0.6126,0.3637,0.3514,-0.8246,0.019,0.006,0.013,0.006,0.0,0.013,0.013,0.019,0.019,0.026,0.013,0.0,0.006,0.019,0.006,0.006,0.0,0.0,-0.0522,0.043,0.1626,0.0997,0.0598,0.1749,0.0982,-0.1457,0.158,0.0015,0.1074,0.1795,0.0752,-0.1503,0.1687,0.1595,0.0506,0.135,-0.0894,0.1135,0.2695,0.1018,0.107,0.2761,0.0971,-0.1955,0.2674,0.0244,0.1049,0.2912,0.0239,-0.2116,0.2498,0.228,0.1304,0.1826,-0.0007,-0.0002,0.0037,0.0062,0.0292,-0.0949,0.3138,-0.5543,0.1381,0.2525,-0.5265,0.1308,0.2867,-0.5433,0.0017,0.2718,-0.5424,-0.0013,0.2368,-0.6302,0.3353,0.3906,-0.813,0.0,0.0,0.0,0.0,0.0,0.0,0.0,0.0,0.0,
0.44,run,-0.87,4.13,-0.35,-0.03,1.12,0.0,0.0,0.0,0.039,-3.78,2.99,12.3,5.36,2.99,13.01,5.19,-9.05,12.3,-0.35,5.98,13.01,2.2,-10.46,11.25,11.07,3.87,8.26,-3.53,-5.39,17.65,3.61,-5.4,18.18,5.41,-12.23,17.99,0.69,-3.49,18.26,0.78,-14.47,14.02,13.51,-3.39,-0.43,-0.1007,0.1813,-0.557,0.1031,0.1293,-0.5214,0.1546,0.2136,-0.553,0.0197,0.1871,-0.5334,0.0223,0.147,-0.5998,0.386,0.3274,-0.8367,0.019,0.006,0.013,0.006,0.0,0.013,0.013,0.019,0.019,0.026,0.013,0.0,0.006,0.019,0.006,0.006,0.0,0.0,-0.0568,0.043,0.1871,0.0997,0.0598,0.1994,0.0982,-0.1534,0.1841,0.0061,0.1074,0.201,0.0583,-0.1672,0.1841,0.1779,0.0583,0.1396,-0.0799,0.0794,0.2809,0.0713,0.0749,0.2855,0.0679,-0.1656,0.2852,0.0344,0.0735,0.2845,-0.0467,-0.2115,0.2325,0.2287,0.1201,0.1451,0.0046,-0.0007,0.0088,-0.0005,-0.0299,-0.0979,0.2454,-0.5622,0.1223,0.1874,-0.5238,0.1414,0.2546,-0.5513,0.0096,0.2234,-0.5374,0.0101,0.192,-0.6126,0.3637,0.3514,-0.8246,0.0,0.0,0.0,0.0,0.0,0.0,0.0,0.0,0.0,
0.48,run,-0.83,4.1,0.35,0.14,-0.2,0.0,0.0,0.0,0.039,-3.25,2.37,13.89,4.66,2.2,14.5,4.83,-9.67,13.8,0.0,4.92,14.59,1.14,-11.69,12.22,12.04,3.69,7.73,-3.58,-6.89,18.94,3.27,-6.9,19.68,5.85,-13.73,18.37,0.84,-4.99,19.76,1.23,-15.97,14.92,14.09,-4.89,-1.93,-0.1022,0.1327,-0.5418,0.0933,0.098,-0.5234,0.1673,0.1829,-0.5486,0.024,0.1709,-0.5235,0.0351,0.1122,-0.5892,0.4025,0.3187,-0.8335,0.019,0.013,0.006,0.006,0.033,0.006,0.006,0.033,0.026,0.019,0.033,0.0,0.006,0.026,0.0,0.006,0.019,0.006,-0.0675,0.043,0.2117,0.0982,0.0537,0.224,0.0874,-0.1595,0.2071,0.0077,0.0936,0.2224,0.0399,-0.1856,0.1963,0.1933,0.0583,0.1396,-0.0962,0.0556,0.2886,0.0442,0.0294,0.2918,0.0073,-0.1389,0.2859,0.0298,-0.0003,0.2797,-0.1017,-0.217,0.2087,0.2176,0.0841,0.1016,0.0026,-0.0019,-0.0061,-0.0006,0.0196,-0.1007,0.1813,-0.557,0.1031,0.1293,-0.5214,0.1546,0.2136,-0.553,0.0197,0.1871,-0.5334,0.0223,0.147,-0.5998,0.386,0.3274,-0.8367,0.0,0.0,0.0,0.0,0.0,0.0,0.0,0.0,0.0,
0.52,run,-0.81,4.07,-0.08,-0.22,0.39,0.0,0.0,0.0,0.039,-3.69,1.05,15.29,3.43,0.88,16.17,4.83,-10.9,15.29,0.35,3.43,16.35,0.62,-13.27,13.54,13.18,2.81,6.68,-3.76,-8.39,20.44,2.82,-8.4,20.61,6.32,-15.23,19.01,1.28,-6.49,20.44,1.77,-17.47,15.85,14.57,-6.39,-3.43,-0.1075,0.0956,-0.5233,0.0805,0.07,-0.5222,0.1806,0.1563,-0.5411,0.0365,0.1642,-0.5242,0.0507,0.0863,-0.5782,0.4163,0.3216,-0.839,0.019,0.013,0.006,0.006,0.033,0.006,0.006,0.033,0.026,0.019,0.033,0.0,0.006,0.026,0.0,0.006,0.019,0.006,-0.0583,0.0322,0.2393,0.0859,0.0399,0.25,0.0813,-0.1703,0.2332,0.0138,0.0752,0.25,0.0215,-0.2071,0.2132,0.2102,0.0552,0.1304,-0.0328,-0.0013,0.3055,-0.0151,-0.0312,0.302,-0.0179,-0.1375,0.2979,0.0439,-0.0692,0.2993,-0.1402,-0.2324,0.2094,0.2156,0.0474,0.0366,0.0064,-0.0047,0.0061,0.0025,-0.0036,-0.1022,0.1327,-0.5418,0.0933,0.098,-0.5234,0.1673,0.1829,-0.5486,0.024,0.1709,-0.5235,0.0351,0.1122,-0.5892,0.4025,0.3187,-0.8335,0.0,0.0,0.0,0.0,0.0,0.0,0.0,0.0,0.0,
0.56,run,-0.85,4.05,-0.9,-0.79,2.95,0.0,0.0,0.0,0.039,-3.87,-0.26,16.7,3.34,-0.53,17.58,5.27,-12.04,16.44,0.44,1.93,17.58,0.44,-14.41,14.33,13.71,1.85,5.45,-3.8,-9.89,21.94,2.39,-9.9,20.01,7.04,-16.73,20.14,1.66,-7.99,19.9,2.44,-18.97,17.12,15.12,-6.41,-4.93,-0.1086,0.0643,-0.4991,0.0682,0.0494,-0.5293,0.2013,0.1333,-0.5278,0.0474,0.1685,-0.5306,0.0698,0.0611,-0.5633,0.4321,0.3381,-0.8423,0.019,0.013,0.006,0.006,0.033,0.006,0.006,0.033,0.026,0.019,0.033,0.0,0.006,0.026,0.0,0.006,0.019,0.006,-0.066,0.0092,0.2638,0.0644,0.0169,0.2792,0.0813,-0.1917,0.2592,0.0199,0.0491,0.2807,0.0123,-0.2347,0.2362,0.2301,0.0399,0.112,-0.0471,-0.0733,0.2911,-0.0781,-0.0942,0.3031,-0.0125,-0.1638,0.2906,0.05,-0.1305,0.306,-0.1271,-0.2496,0.219,0.2137,-0.0151,-0.0323,0.0085,-0.0065,-0.0015,-0.0038,0.0068,-0.1075,0.0956,-0.5233,0.0805,0.07,-0.5222,0.1806,0.1563,-0.5411,0.0365,0.1642,-0.5242,0.0507,0.0863,-0.5782,0.4163,0.3216,-0.839,0.0,0.0,0.0,0.0,0.0,0.0,0.0,0.0,0.0,
0.6,run,-1.65,3.66,-0.54,-0.26,1.08,0.0,0.0,0.0,0.039,-3.6,-10.99,23.29,1.58,-10.9,19.25,7.47,-17.93,21.18,1.58,-8.35,20.04,2.9,-20.3,17.84,15.56,-4.66,-5.98,-3.7,-11.39,23.44,1.73,-11.4,19.18,7.57,-18.23,21.45,2.09,-9.49,19.81,3.03,-20.47,17.9,15.6,-5.25,-6.19,-0.1057,0.0404,-0.4715,0.0495,0.0434,-0.539,0.2163,0.1188,-0.5123,0.0597,0.1751,-0.5316,0.0866,0.045,-0.5541,0.4457,0.359,-0.8375,0.013,0.006,0.006,0.0,0.013,0.006,0.0,0.006,0.006,0.026,0.033,0.013,0.0,0.006,0.0,0.0,0.013,0.0,-0.069,-0.0138,0.2884,0.0629,-0.0077,0.3037,0.089,-0.2117,0.2792,0.0215,0.023,0.3022,0.0092,-0.2546,0.25,0.2393,0.023,0.0905,-0.0444,-0.1369,0.295,-0.0604,-0.1572,0.3034,0.0197,-0.1888,0.2775,0.0407,-0.1883,0.2941,-0.1004,-0.2488,0.2046,0.1838,-0.0733,-0.1024,0.0051,-0.0086,-0.0157,-0.0138,0.0515,-0.1086,0.0643,-0.4991,0.0682,0.0494,-0.5293,0.2013,0.1333,-0.5278,0.0474,0.1685,-0.5306,0.0698,0.0611,-0.5633,0.4321,0.3381,-0.8423,0.0,0.0,0.0,0.0,0.0,0.0,0.0,0.0,0.0,
0.64,run,-1.61,3.7,0.47,0.42,-0.18,0.0,0.0,0.0,0.039,-3.78,-10.99,23.29,1.58,-10.9,19.34,7.47,-17.93,21.18,1.58,-8.35,20.04,2.9,-20.3,17.84,15.56,-4.66,-5.98,-2.2,-12.89,24.94,0.23,-12.9,17.68,9.07,-19.73,22.95,3.59,-10.99,18.31,4.53,-21.97,19.4,17.1,-3.75,-6.72,-0.0625,-0.0213,-0.366,-0.0244,0.0652,-0.5847,0.2801,0.0099,-0.4006,0.1441,0.2467,-0.5884,0.1758,-0.0884,-0.4579,0.5037,0.4627,-0.8437,0.013,0.006,0.006,0.0,0.013,0.006,0.0,0.006,0.006,0.026,0.033,0.013,0.0,0.006,0.0,0.0,0.013,0.0,-0.0644,-0.201,0.4034,0.0322,-0.1887,0.3329,0.1273,-0.3145,0.362,0.0414,-0.1565,0.3451,0.0522,-0.3574,0.3114,0.2715,-0.0905,-0.1089,-0.0444,-0.1369,0.295,-0.0604,-0.1572,0.3034,0.0197,-0.1888,0.2775,0.0407,-0.1883,0.2941,-0.1004,-0.2488,0.2046,0.1838,-0.0733,-0.1024,-0.065,-0.0425,-0.0094,-0.0045,0.0188,-0.1057,0.0404,-0.4715,0.0495,0.0434,-0.539,0.2163,0.1188,-0.5123,0.0597,0.1751,-0.5316,0.0866,0.045,-0.5541,0.4457,0.359,-0.8375,0.0,0.0,0.0,0.0,0.0,0.0,0.0,0.0,0.0,
0.68,run,-1.56,3.68,0.42,-0.03,-1.5,0.0,0.0,0.0,0.058,-3.43,-11.07,23.29,1.58,-10.9,19.07,7.47,-17.93,21.18,1.58,-8.35,20.04,2.9,-20.3,17.84,15.56,-4.66,-5.98,-2.56,-14.39,26.44,-1.27,-14.4,16.18,9.72,-21.23,24.45,5.09,-11.52,16.81,6.03,-23.47,20.9,17.24,-2.25,-7.41,-0.0733,-0.0568,-0.3172,-0.0784,0.0692,-0.5779,0.2778,-0.0151,-0.39,0.1739,0.2451,-0.5675,0.1836,-0.1105,-0.4423,0.4927,0.4666,-0.8518,0.006,0.026,0.006,0.006,0.019,0.006,0.013,0.039,0.013,0.045,0.058,0.045,0.019,0.033,0.013,0.019,0.0,0.006,-0.0675,-0.201,0.4034,0.0322,-0.1887,0.3344,0.1273,-0.3145,0.362,0.0414,-0.1565,0.3451,0.0522,-0.3574,0.3114,0.2715,-0.0905,-0.1089,-0.0378,-0.0958,0.2065,-0.0423,-0.11,0.2158,0.0138,-0.1322,0.1943,0.0285,-0.1318,0.2058,-0.0703,-0.1742,0.1432,0.1286,-0.0513,-0.0717,-0.0614,-0.0392,0.0083,0.0074,-0.0032,-0.0625,-0.0213,-0.366,-0.0244,0.0652,-0.5847,0.2801,0.0099,-0.4006,0.1441,0.2467,-0.5884,0.1758,-0.0884,-0.4579,0.5037,0.4627,-0.8437,0.0,0.0,0.0,0.0,0.0,0.0,0.0,0.0,0.0,
0.72,run,-1.59,3.67,-1.17,-0.24,4.58,0.0,0.0,0.0,0.058,-3.6,-11.34,23.64,1.58,-11.34,18.63,7.73,-18.46,21.36,2.02,-8.79,19.6,3.43,-20.74,18.46,16.0,-4.66,-6.42,-2.64,-15.89,27.94,-2.77,-15.9,15.81,9.73,-22.73,25.95,6.43,-11.43,16.55,6.54,-24.97,22.4,17.35,-0.75,-7.63,-0.0753,-0.0769,-0.2983,-0.094,0.0675,-0.5787,0.2779,-0.0403,-0.3846,0.1837,0.2467,-0.57,0.1869,-0.1306,-0.4336,0.4959,0.4669,-0.8545,0.006,0.026,0.006,0.006,0.019,0.006,0.013,0.039,0.013,0.045,0.058,0.045,0.019,0.033,0.013,0.019,0.0,0.006,-0.0614,-0.2025,0.4034,0.0322,-0.1887,0.3298,0.1273,-0.3145,0.362,0.0414,-0.1565,0.3451,0.0522,-0.3574,0.3114,0.2715,-0.0905,-0.1089,-0.0035,-0.0728,0.1446,-0.0296,-0.077,0.1339,0.0097,-0.0925,0.136,0.0199,-0.0923,0.1441,-0.0492,-0.1219,0.1003,0.0901,-0.0359,-0.0502,-0.0572,-0.0413,0.0073,-0.0005,-0.0262,-0.0733,-0.0568,-0.3172,-0.0784,0.0692,-0.5779,0.2778,-0.0151,-0.39,0.1739,0.2451,-0.5675,0.1836,-0.1105,-0.4423,0.4927,0.4666,-0.8518,0.0,0.0,0.0,0.0,0.0,0.0,0.0,0.0,0.0,
0.76,run,-1.6,3.69,-0.43,-0.27,6.88,0.0,0.0,0.0,0.058,-2.29,-12.13,24.35,1.32,-12.04,17.84,8.35,-19.25,22.06,2.81,-9.4,18.98,4.13,-21.62,19.25,16.79,-4.22,-6.94,-2.53,-17.39,29.44,-3.48,-17.4,15.18,9.93,-24.23,27.45,6.55,-11.3,16.86,6.63,-26.47,23.9,17.4,0.74,-7.5,-0.0723,-0.0839,-0.2904,-0.0995,0.0708,-0.5861,0.2838,-0.0522,-0.38,0.187,0.2492,-0.5664,0.1894,-0.1408,-0.4226,0.4971,0.4679,-0.8529,0.006,0.026,0.006,0.006,0.019,0.006,0.013,0.039,0.013,0.045,0.058,0.045,0.019,0.033,0.013,0.019,0.0,0.006,-0.0644,-0.2071,0.4096,0.0322,-0.1963,0.3221,0.1319,-0.3237,0.3651,0.0491,-0.1641,0.3375,0.0614,-0.3651,0.3221,0.2792,-0.0905,-0.1166,-0.014,-0.0683,0.1243,-0.0207,-0.0828,0.0648,0.0241,-0.0995,0.1068,0.0429,-0.0935,0.0719,0.0003,-0.1143,0.1107,0.092,-0.0251,-0.0641,-0.06,-0.0418,-0.0204,-0.0042,0.08,-0.0753,-0.0769,-0.2983,-0.094,0.0675,-0.5787,0.2779,-0.0403,-0.3846,0.1837,0.2467,-0.57,0.1869,-0.1306,-0.4336,0.4959,0.4669,-0.8545,0.0,0.0,0.0,0.0,0.0,0.0,0.0,0.0,0.0,
0.8,run,-1.48,3.64,-0.24,-0.48,10.9,0.0,0.0,0.0,0.058,-2.55,-13.01,25.22,-0.26,-13.01,16.88,9.05,-20.21,23.03,3.69,-9.93,18.19,5.19,-22.68,20.3,17.23,-3.43,-7.38,-2.55,-18.89,30.94,-3.86,-18.9,14.94,10.14,-25.73,28.95,6.99,-11.52,16.88,6.75,-27.97,25.4,17.53,1.01,-8.4,-0.0729,-0.0862,-0.2856,-0.1104,0.0674,-0.589,0.2896,-0.0642,-0.3717,0.1996,0.2451,-0.5662,0.1927,-0.1467,-0.4108,0.5008,0.4729,-0.8636,0.006,0.033,0.013,0.006,0.033,0.013,0.006,0.045,0.026,0.058,0.045,0.026,0.006,0.026,0.013,0.0,0.013,0.006,-0.0414,-0.2209,0.4218,0.0276,-0.2086,0.3083,0.1427,-0.3375,0.3774,0.0629,-0.1749,0.3267,0.0736,-0.3804,0.3359,0.293,-0.0828,-0.1258,0.076,-0.0993,0.1328,-0.0317,-0.1038,-0.0062,0.0569,-0.1211,0.1205,0.0815,-0.1055,0.0103,0.046,-0.1372,0.129,0.1159,0.011,-0.0792,-0.061,-0.0402,-0.0076,-0.0047,0.1201,-0.0723,-0.0839,-0.2904,-0.0995,0.0708,-0.5861,0.2838,-0.0522,-0.38,0.187,0.2492,-0.5664,0.1894,-0.1408,-0.4226,0.4971,0.4679,-0.8529,0.0,0.0,0.0,0.0,0.0,0.0,0.0,0.0,0.0,
0.84,run,-1.53,3.57,-2.37,-2.26,19.25,0.0,0.0,0.0,0.058,-2.72,-14.24,26.46,-1.32,-14.24,15.91,9.58,-21.62,24.26,4.83,-10.28,17.58,5.98,-23.91,21.62,17.4,-2.2,-7.65,-2.56,-20.39,32.44,-3.97,-20.4,14.97,10.66,-27.23,30.45,7.23,-11.53,16.64,6.85,-29.47,26.9,17.72,1.58,-9.25,-0.0731,-0.0894,-0.2823,-0.1136,0.0692,-0.5886,0.3047,-0.0808,-0.361,0.2064,0.245,-0.569,0.1956,-0.1573,-0.3864,0.5062,0.4833,-0.8735,0.006,0.033,0.013,0.006,0.033,0.013,0.006,0.045,0.026,0.058,0.045,0.026,0.006,0.026,0.013,0.0,0.013,0.006,-0.046,-0.2362,0.4372,0.0,-0.2255,0.2915,0.1549,-0.3543,0.3942,0.0782,-0.1841,0.3129,0.092,-0.3988,0.3543,0.3007,-0.069,-0.1335,0.0359,-0.127,0.1505,-0.1257,-0.1359,-0.0676,0.0859,-0.1481,0.1476,0.1146,-0.1084,-0.0446,0.1012,-0.1651,0.1593,0.1099,0.0595,-0.0842,-0.05,-0.0448,-0.0043,-0.0083,0.1903,-0.0729,-0.0862,-0.2856,-0.1104,0.0674,-0.589,0.2896,-0.0642,-0.3717,0.1996,0.2451,-0.5662,0.1927,-0.1467,-0.4108,0.5008,0.4729,-0.8636,0.0,0.0,0.0,0.0,0.0,0.0,0.0,0.0,0.0,
0.88,run,-1.53,3.64,-1.92,1.7,18.48,0.0,0.0,0.0,0.058,-2.55,-15.64,27.86,-2.11,-15.64,15.29,9.93,-23.03,25.58,5.71,-10.37,17.23,6.5,-25.4,23.03,17.4,-0.97,-8.17,-2.51,-21.89,33.94,-4.02,-20.5,14.91,11.23,-28.73,31.95,7.33,-11.68,16.59,6.91,-30.97,28.4,17.93,2.0,-9.42,-0.0718,-0.0935,-0.2792,-0.1148,0.0817,-0.5894,0.3208,-0.0971,-0.3406,0.2095,0.2422,-0.5695,0.1973,-0.1655,-0.354,0.5122,0.491,-0.8756,0.006,0.033,0.013,0.006,0.033,0.013,0.006,0.045,0.026,0.058,0.045,0.026,0.006,0.026,0.013,0.0,0.013,0.006,-0.0491,-0.2577,0.4587,-0.0184,-0.247,0.2746,0.1641,-0.3789,0.4157,0.0982,-0.1902,0.3022,0.1058,-0.4203,0.3774,0.3037,-0.0476,-0.1381,0.0137,-0.1695,0.1859,-0.1571,-0.1757,-0.1106,0.0946,-0.1957,0.1839,0.155,-0.0989,-0.0715,0.1226,-0.1961,0.1978,0.0884,0.1222,-0.0762,-0.0548,-0.0508,-0.0414,-0.0395,0.3361,-0.0731,-0.0894,-0.2823,-0.1136,0.0692,-0.5886,0.3047,-0.0808,-0.361,0.2064,0.245,-0.569,0.1956,-0.1573,-0.3864,0.5062,0.4833,-0.8735,0.0,0.0,0.0,0.0,0.0,0.0,0.0,0.0,0.0,
0.92,run,-1.59,3.6,-2.01,-1.18,5.18,0.0,0.0,0.0,0.058,-2.64,-17.05,29.36,-3.78,-16.88,15.03,10.37,-24.43,26.98,6.33,-10.63,16.96,6.68,-26.81,24.52,17.84,0.0,-8.7,-2.44,-23.39,35.44,-4.55,-19.76,14.62,11.6,-30.23,33.45,7.68,-11.6,16.47,7.05,-32.47,29.9,18.13,2.92,-10.19,-0.0696,-0.1019,-0.2666,-0.1301,0.0953,-0.5927,0.3314,-0.1307,-0.3166,0.2195,0.2436,-0.571,0.2014,-0.1808,-0.3312,0.5181,0.5077,-0.8846,0.0,0.026,0.006,0.006,0.026,0.006,0.006,0.026,0.019,0.045,0.026,0.019,0.019,0.026,0.013,0.0,0.006,0.006,-0.046,-0.2823,0.4832,-0.0322,-0.2715,0.2638,0.1703,-0.4034,0.4387,0.1135,-0.1917,0.2961,0.115,-0.4464,0.4019,0.3037,-0.0261,-0.1473,0.0211,-0.2107,0.2222,-0.1617,-0.215,-0.1177,0.0893,-0.229,0.215,0.166,-0.075,-0.073,0.1204,-0.2351,0.2305,0.0619,0.1661,-0.0878,-0.0547,-0.0447,-0.0336,0.0296,0.3226,-0.0718,-0.0935,-0.2792,-0.1148,0.0817,-0.5894,0.3208,-0.0971,-0.3406,0.2095,0.2422,-0.5695,0.1973,-0.1655,-0.354,0.5122,0.491,-0.8756,0.0,0.0,0.0,0.0,0.0,0.0,0.0,0.0,0.0,
0.96,run,-1.6,3.65,-1.24,-0.07,-0.07,0.0,0.0,0.0,0.058,-2.46,-18.46,30.67,-3.87,-18.11,14.68,10.81,-25.93,28.48,6.77,-10.63,16.88,6.68,-28.21,26.02,17.93,1.05,-9.32,-2.38,-24.89,36.94,-5.42,-20.0,14.87,11.93,-31.73,34.95,8.63,-11.86,15.77,7.36,-33.97,31.4,18.21,3.84,-11.55,-0.0681,-0.1126,-0.2466,-0.1549,0.0909,-0.5897,0.341,-0.1664,-0.2838,0.2466,0.2389,-0.5792,0.2103,-0.2047,-0.3118,0.5202,0.5243,-0.9006,0.0,0.026,0.006,0.006,0.026,0.006,0.006,0.026,0.019,0.045,0.026,0.019,0.019,0.026,0.013,0.0,0.006,0.006,-0.0476,-0.3068,0.5093,-0.0614,-0.293,0.2592,0.1779,-0.428,0.4633,0.1243,-0.1963,0.2915,0.1181,-0.4709,0.428,0.3114,-0.0092,-0.1565,0.009,-0.2392,0.253,-0.2222,-0.2308,-0.0996,0.0912,-0.2521,0.2423,0.1564,-0.0697,-0.0683,0.0957,-0.2563,0.2589,0.072,0.1793,-0.0959,-0.0595,-0.048,-0.0352,-0.0206,0.0904,-0.0696,-0.1019,-0.2666,-0.1301,0.0953,-0.5927,0.3314,-0.1307,-0.3166,0.2195,0.2436,-0.571,0.2014,-0.1808,-0.3312,0.5181,0.5077,-0.8846,0.0,0.0,0.0,0.0,0.0,0.0,0.0,0.0,0.0,
1.0,run,-1.53,3.63,1.44,-0.39,-2.5,0.0,0.0,0.0,0.058,-2.29,-19.86,32.08,-3.78,-18.98,14.68,11.25,-27.33,29.79,7.03,-10.72,16.7,7.03,-29.62,27.33,18.11,1.93,-9.84,-2.19,-26.39,38.44,-6.05,-19.24,14.29,12.17,-33.23,36.45,9.0,-11.54,15.27,7.57,-35.47,32.9,18.34,4.62,-11.89,-0.0626,-0.1217,-0.2306,-0.1727,0.1048,-0.5966,0.3478,-0.203,-0.2562,0.2572,0.2447,-0.5851,0.2164,-0.226,-0.2952,0.524,0.5385,-0.9046,0.0,0.026,0.006,0.006,0.026,0.006,0.006,0.026,0.019,0.045,0.026,0.019,0.019,0.026,0.013,0.0,0.006,0.006,-0.0445,-0.3313,0.5323,-0.0629,-0.3145,0.2531,0.1856,-0.4541,0.4893,0.1319,-0.1963,0.2899,0.1181,-0.4955,0.4541,0.3129,0.0092,-0.1672,0.0178,-0.2598,0.2636,-0.1613,-0.2423,-0.0928,0.0926,-0.2745,0.2676,0.1383,-0.0488,-0.0536,0.067,-0.2717,0.2793,0.0562,0.1948,-0.1075,-0.0603,-0.0434,-0.0217,-0.0013,-0.0012,-0.0681,-0.1126,-0.2466,-0.1549,0.0909,-0.5897,0.341,-0.1664,-0.2838,0.2466,0.2389,-0.5792,0.2103,-0.2047,-0.3118,0.5202,0.5243,-0.9006,0.0,0.0,0.0,0.0,0.0,0.0,0.0,0.0,0.0,
1.04,run,-1.48,3.62,0.18,0.14,3.49,0.0,0.0,0.0,0.091,-2.11,-21.27,33.49,-5.1,-19.6,14.68,11.69,-28.74,31.2,7.47,-10.72,16.17,7.38,-31.11,28.74,18.28,2.99,-10.63,-2.05,-27.89,39.94,-6.54,-18.64,13.97,12.39,-34.73,37.95,9.3,-11.07,14.65,7.66,-36.97,34.4,18.44,5.35,-12.54,-0.0587,-0.1291,-0.2191,-0.1868,0.1156,-0.6004,0.3539,-0.2311,-0.2365,0.2657,0.2533,-0.5923,0.2187,-0.2397,-0.2866,0.527,0.5517,-0.9122,0.0,0.026,0.013,0.0,0.013,0.013,0.0,0.026,0.013,0.091,0.013,0.026,0.006,0.026,0.006,0.0,0.006,0.013,-0.0414,-0.3559,0.5568,-0.0614,-0.3298,0.2531,0.1933,-0.4786,0.5123,0.1365,-0.1979,0.2869,0.1243,-0.52,0.4771,0.316,0.0245,-0.1764,0.024,-0.2736,0.2763,-0.1072,-0.227,-0.0649,0.0935,-0.284,0.2734,0.114,-0.0399,-0.049,0.0699,-0.282,0.2815,0.0508,0.1937,-0.1097,-0.0545,-0.0451,0.0252,-0.0069,-0.0437,-0.0626,-0.1217,-0.2306,-0.1727,0.1048,-0.5966,0.3478,-0.203,-0.2562,0.2572,0.2447,-0.5851,0.2164,-0.226,-0.2952,0.524,0.5385,-0.9046,0.0,0.0,0.0,0.0,0.0,0.0,0.0,0.0,0.0,
1.08,run,-1.52,3.53,-1.2,-0.66,8.33,0.0,0.0,0.0,0.091,-2.11,-22.94,35.24,-5.98,-19.95,14.06,11.95,-30.41,32.96,8.09,-10.72,15.47,7.56,-32.7,30.5,18.37,3.96,-11.51,-2.05,-29.39,41.44,-6.71,-17.64,13.87,12.69,-36.23,39.45,9.51,-10.38,14.34,7.56,-38.47,35.9,18.46,5.78,-12.87,-0.0586,-0.1362,-0.2106,-0.1918,0.1339,-0.6015,0.3626,-0.2547,-0.2215,0.2718,0.2658,-0.596,0.2159,-0.2462,-0.2683,0.5274,0.5596,-0.9161,0.0,0.026,0.013,0.0,0.013,0.013,0.0,0.026,0.013,0.091,0.013,0.026,0.006,0.026,0.006,0.0,0.006,0.013,-0.0383,-0.3804,0.5814,-0.0844,-0.3405,0.2531,0.201,-0.5031,0.5369,0.1442,-0.1979,0.2777,0.1304,-0.5461,0.5016,0.3191,0.043,-0.1902,0.0283,-0.2836,0.2855,-0.1613,-0.1992,-0.0455,0.0943,-0.2909,0.2835,0.1086,-0.0279,-0.0688,0.0719,-0.2952,0.2892,0.0471,0.2047,-0.1286,-0.0505,-0.0464,0.0031,0.0025,0.0609,-0.0587,-0.1291,-0.2191,-0.1868,0.1156,-0.6004,0.3539,-0.2311,-0.2365,0.2657,0.2533,-0.5923,0.2187,-0.2397,-0.2866,0.527,0.5517,-0.9122,0.0,0.0,0.0,0.0,0.0,0.0,0.0,0.0,0.0,
1.12,run,-1.53,3.54,-1.07,-0.48,7.38,0.0,0.0,0.0,0.091,-2.11,-24.35,36.65,-6.06,-19.95,13.97,12.22,-31.9,34.37,8.44,-10.72,15.12,7.56,-34.19,31.99,18.28,4.75,-12.13,-1.83,-30.89,42.94,-6.88,-16.26,13.45,13.11,-37.73,40.95,9.64,-9.47,13.4,7.55,-39.14,37.4,18.47,6.3,-13.05,-0.0524,-0.141,-0.2033,-0.1964,0.159,-0.6064,0.3745,-0.2841,-0.1961,0.2754,0.2823,-0.6071,0.2158,-0.257,-0.2464,0.5278,0.5692,-0.9183,0.0,0.026,0.013,0.0,0.013,0.013,0.0,0.026,0.013,0.091,0.013,0.026,0.006,0.026,0.006,0.0,0.006,0.013,-0.0383,-0.4096,0.6121,-0.0997,-0.3467,0.2424,0.2056,-0.5323,0.5676,0.1549,-0.1979,0.2654,0.1335,-0.5737,0.5323,0.3206,0.0598,-0.2056,0.0198,-0.2898,0.296,-0.161,-0.1587,-0.0655,0.0804,-0.2949,0.2945,0.1097,-0.0195,-0.0866,0.06,-0.2932,0.2985,0.0378,0.1961,-0.1381,-0.0537,-0.0536,-0.0209,-0.0115,0.1454,-0.0586,-0.1362,-0.2106,-0.1918,0.1339,-0.6015,0.3626,-0.2547,-0.2215,0.2718,0.2658,-0.596,0.2159,-0.2462,-0.2683,0.5274,0.5596,-0.9161,0.0,0.0,0.0,0.0,0.0,0.0,0.0,0.0,0.0,
1.16,run,-1.56,3.51,-1.1,-0.77,3.19,0.0,0.0,0.0,0.091,-2.2,-25.75,38.14,-6.42,-19.51,13.8,12.48,-33.31,35.77,8.7,-10.46,14.5,7.56,-35.6,33.4,18.37,5.36,-12.66,-1.63,-32.39,44.44,-7.27,-15.14,13.13,13.31,-39.23,42.45,9.9,-8.72,12.81,7.56,-39.8,38.9,18.36,6.92,-13.42,-0.0467,-0.1469,-0.1922,-0.2077,0.1794,-0.6103,0.3804,-0.3131,-0.1715,0.2827,0.2961,-0.614,0.2159,-0.2691,-0.2349,0.5247,0.5804,-0.9226,0.013,0.026,0.013,0.0,0.006,0.006,0.006,0.019,0.019,0.052,0.0,0.026,0.0,0.019,0.006,0.0,0.006,0.006,-0.0383,-0.4341,0.6366,-0.1012,-0.3467,0.2408,0.2102,-0.5584,0.5921,0.1611,-0.1979,0.2592,0.1335,-0.5998,0.5584,0.3191,0.0736,-0.2163,0.0139,-0.2942,0.2985,-0.1184,-0.1111,-0.0515,0.0734,-0.3034,0.2975,0.0996,-0.0137,-0.0835,0.042,-0.3022,0.306,0.0207,0.1886,-0.1366,-0.055,-0.0529,-0.0186,-0.0083,0.1289,-0.0524,-0.141,-0.2033,-0.1964,0.159,-0.6064,0.3745,-0.2841,-0.1961,0.2754,0.2823,-0.6071,0.2158,-0.257,-0.2464,0.5278,0.5692,-0.9183,0.0,0.0,0.0,0.0,0.0,0.0,0.0,0.0,0.0,
1.2,run,-1.59,3.51,-0.41,0.17,2.29,0.0,0.0,0.0,0.091,-1.41,-27.51,39.73,-6.94,-18.37,13.18,12.92,-34.98,37.44,8.96,-9.76,13.62,7.47,-37.09,35.07,18.37,6.15,-13.1,-1.44,-33.28,45.94,-7.57,-14.11,12.69,13.46,-40.73,43.95,10.21,-7.81,11.94,7.6,-40.67,40.4,18.2,7.44,-13.88,-0.0411,-0.1506,-0.1815,-0.2163,0.198,-0.6154,0.3844,-0.3436,-0.1445,0.2917,0.3126,-0.6242,0.2172,-0.285,-0.2209,0.52,0.5898,-0.928,0.013,0.026,0.013,0.0,0.006,0.006,0.006,0.019,0.019,0.052,0.0,0.026,0.0,0.019,0.006,0.0,0.006,0.006,-0.0399,-0.4587,0.6627,-0.1074,-0.339,0.2378,0.2148,-0.5829,0.6167,0.1657,-0.1933,0.2485,0.1335,-0.6243,0.5829,0.3206,0.0844,-0.2255,0.0039,-0.298,0.3068,-0.1059,-0.049,-0.0476,0.0686,-0.3045,0.3004,0.087,0.0077,-0.0987,0.0294,-0.3037,0.3063,0.0203,0.1723,-0.1302,-0.057,-0.056,-0.0192,-0.0135,0.0556,-0.0467,-0.1469,-0.1922,-0.2077,0.1794,-0.6103,0.3804,-0.3131,-0.1715,0.2827,0.2961,-0.614,0.2159,-0.2691,-0.2349,0.5247,0.5804,-0.9226,0.0,0.0,0.0,0.0,0.0,0.0,0.0,0.0,0.0,
1.24,run,-1.55,3.49,0.02,0.09,-1.91,0.0,0.0,0.0,0.091,-1.67,-28.92,41.13,-7.12,-17.23,13.1,13.01,-36.47,38.94,9.05,-9.05,13.18,7.47,-38.06,36.47,18.37,6.68,-13.36,-1.25,-33.36,47.44,-7.74,-12.61,12.3,13.59,-42.23,45.45,10.44,-6.57,10.86,7.57,-41.59,41.9,17.97,7.79,-14.18,-0.0358,-0.152,-0.1717,-0.2211,0.2267,-0.62,0.3883,-0.378,-0.1155,0.2982,0.3351,-0.637,0.2162,-0.3016,-0.2,0.5134,0.5962,-0.9315,0.013,0.026,0.013,0.0,0.006,0.006,0.006,0.019,0.019,0.052,0.0,0.026,0.0,0.019,0.006,0.0,0.006,0.006,-0.0261,-0.4893,0.6903,-0.1166,-0.3191,0.227,0.2224,-0.6121,0.6458,0.1703,-0.181,0.2332,0.1319,-0.6504,0.6121,0.3206,0.0982,-0.2332,0.0464,-0.3055,0.302,-0.1032,0.0287,-0.0672,0.0723,-0.3052,0.3023,0.0754,0.0441,-0.1176,0.0157,-0.2949,0.3065,0.0142,0.1642,-0.1153,-0.0598,-0.0557,-0.0072,0.003,0.0399,-0.0411,-0.1506,-0.1815,-0.2163,0.198,-0.6154,0.3844,-0.3436,-0.1445,0.2917,0.3126,-0.6242,0.2172,-0.285,-0.2209,0.52,0.5898,-0.928,0.0,0.0,0.0,0.0,0.0,0.0,0.0,0.0,0.0,
1.28,run,-1.54,3.51,0.12,0.22,1.9,0.0,0.0,0.0,0.104,-1.41,-30.32,42.63,-7.47,-15.91,12.66,13.18,-37.79,40.34,9.32,-8.26,12.48,7.47,-39.11,37.97,18.02,7.12,-13.71,-1.09,-33.72,48.94,-8.03,-11.4,12.19,13.64,-43.73,46.95,10.7,-5.58,10.07,7.57,-42.4,43.4,17.64,8.25,-14.57,-0.0311,-0.1585,-0.1574,-0.2294,0.2472,-0.6213,0.3896,-0.4089,-0.0891,0.3058,0.3531,-0.6462,0.2163,-0.3163,-0.1882,0.504,0.6045,-0.9361,0.006,0.019,0.013,0.006,0.013,0.0,0.006,0.026,0.019,0.104,0.0,0.026,0.0,0.065,0.006,0.006,0.006,0.006,-0.0307,-0.5139,0.7148,-0.1197,-0.2991,0.2255,0.224,-0.6381,0.6719,0.1718,-0.1687,0.2255,0.1319,-0.6673,0.6366,0.3206,0.1074,-0.2378,0.0155,-0.3042,0.3017,-0.0835,0.0935,-0.0527,0.0562,-0.3096,0.3076,0.0584,0.0761,-0.1105,0.011,-0.2686,0.3049,0.0099,0.1488,-0.0977,-0.056,-0.0572,0.0003,0.0015,-0.0334,-0.0358,-0.152,-0.1717,-0.2211,0.2267,-0.62,0.3883,-0.378,-0.1155,0.2982,0.3351,-0.637,0.2162,-0.3016,-0.2,0.5134,0.5962,-0.9315,0.0,0.0,0.0,0.0,0.0,0.0,0.0,0.0,0.0,
1.32,run,-1.54,3.49,-0.69,-0.84,-0.04,0.0,0.0,0.0,0.104,-0.79,-31.46,43.95,-7.73,-14.68,12.3,13.36,-39.2,41.66,9.49,-7.29,11.51,7.47,-40.17,39.29,17.58,7.65,-14.06,-0.88,-34.02,50.44,-8.15,-9.9,11.81,13.81,-45.23,48.45,10.91,-4.52,9.08,7.54,-43.23,44.9,17.4,8.45,-14.66,-0.0252,-0.164,-0.1487,-0.2329,0.2754,-0.6258,0.3944,-0.4378,-0.0656,0.3118,0.3724,-0.6578,0.2154,-0.3315,-0.1635,0.4972,0.6082,-0.9371,0.006,0.019,0.013,0.006,0.013,0.0,0.006,0.026,0.019,0.104,0.0,0.026,0.0,0.065,0.006,0.006,0.006,0.006,-0.0261,-0.5384,0.7409,-0.1258,-0.2761,0.2178,0.227,-0.6611,0.6964,0.1764,-0.1549,0.2132,0.1319,-0.6857,0.6627,0.3145,0.115,-0.2439,0.0283,-0.3062,0.3103,-0.0818,0.1529,-0.066,0.051,-0.3042,0.3086,0.0584,0.1057,-0.124,0.0077,-0.2579,0.3125,-0.0164,0.1333,-0.0917,-0.0557,-0.0555,0.0021,0.0038,0.0332,-0.0311,-0.1585,-0.1574,-0.2294,0.2472,-0.6213,0.3896,-0.4089,-0.0891,0.3058,0.3531,-0.6462,0.2163,-0.3163,-0.1882,0.504,0.6045,-0.9361,0.0,0.0,0.0,0.0,0.0,0.0,0.0,0.0,0.0,
1.36,run,-1.49,3.5,0.37,0.16,0.56,0.0,0.0,0.0,0.104,-1.32,-32.34,45.44,-7.91,-13.36,12.13,13.36,-40.69,43.07,9.49,-6.42,10.72,7.47,-41.13,40.78,17.58,8.09,-14.41,-0.6,-34.19,51.94,-8.33,-8.56,11.49,13.9,-46.73,49.95,11.18,-3.47,7.98,7.67,-44.16,46.4,17.17,8.67,-14.7,-0.0172,-0.167,-0.1411,-0.2381,0.2989,-0.6295,0.3971,-0.4683,-0.0346,0.3194,0.3914,-0.6708,0.2192,-0.3484,-0.1373,0.4906,0.6121,-0.9377,0.006,0.019,0.013,0.006,0.013,0.0,0.006,0.026,0.019,0.104,0.0,0.026,0.0,0.065,0.006,0.006,0.006,0.006,-0.0153,-0.5584,0.7639,-0.1304,-0.2546,0.2117,0.2301,-0.6857,0.7194,0.1795,-0.1381,0.1963,0.1319,-0.7041,0.6857,0.3068,0.1243,-0.25,0.0601,-0.289,0.3034,-0.0745,0.1874,-0.0692,0.0472,-0.3048,0.3022,0.0524,0.1372,-0.15,0.0054,-0.2495,0.3049,-0.0402,0.1278,-0.0872,-0.0557,-0.0574,-0.0121,-0.0147,-0.0008,-0.0252,-0.164,-0.1487,-0.2329,0.2754,-0.6258,0.3944,-0.4378,-0.0656,0.3118,0.3724,-0.6578,0.2154,-0.3315,-0.1635,0.4972,0.6082,-0.9371,0.0,0.0,0.0,0.0,0.0,0.0,0.0,0.0,0.0,
1.4,run,-1.48,3.54,0.13,0.67,1.12,0.0,0.0,0.0,0.104,-0.62,-33.13,46.85,-8.09,-12.04,11.6,13.54,-42.1,44.56,9.84,-5.36,9.67,7.47,-42.01,42.19,17.23,8.35,-14.41,-0.3,-34.51,53.44,-8.49,-7.18,10.78,14.06,-48.23,51.45,11.45,-2.35,6.74,7.81,-45.34,47.9,16.94,9.05,-15.19,-0.0086,-0.1729,-0.1337,-0.2426,0.324,-0.6378,0.4018,-0.5014,-0.0077,0.3272,0.4118,-0.6854,0.2232,-0.3697,-0.1159,0.484,0.619,-0.9434,0.013,0.013,0.006,0.006,0.013,0.006,0.006,0.026,0.019,0.078,0.0,0.026,0.006,0.071,0.006,0.0,0.0,0.013,-0.0245,-0.5737,0.79,-0.1335,-0.2316,0.2086,0.2301,-0.7118,0.744,0.1795,-0.1227,0.1825,0.1319,-0.721,0.7118,0.3068,0.1319,-0.2562,0.0078,-0.2594,0.3095,-0.0636,0.2169,-0.0599,0.033,-0.3105,0.3029,0.0367,0.1532,-0.1564,0.0038,-0.2375,0.3105,-0.0281,0.118,-0.0839,-0.0507,-0.057,0.0064,0.0029,0.0098,-0.0172,-0.167,-0.1411,-0.2381,0.2989,-0.6295,0.3971,-0.4683,-0.0346,0.3194,0.3914,-0.6708,0.2192,-0.3484,-0.1373,0.4906,0.6121,-0.9377,0.0,0.0,0.0,0.0,0.0,0.0,0.0,0.0,0.0,
1.44,run,-1.44,3.5,-0.23,-0.13,0.67,0.0,0.0,0.0,0.104,-0.26,-33.66,48.25,-8.35,-10.72,11.34,13.71,-43.51,46.05,10.2,-4.31,8.7,7.73,-42.98,43.59,16.79,8.7,-14.68,0.03,-34.55,54.01,-8.59,-5.78,10.19,14.15,-49.73,52.95,11.71,-1.34,5.47,8.04,-46.5,49.4,16.73,9.13,-15.41,0.0008,-0.1737,-0.1293,-0.2454,0.3495,-0.6449,0.4043,-0.5298,0.0203,0.3347,0.4301,-0.7003,0.2296,-0.3909,-0.087,0.4781,0.6206,-0.946,0.013,0.013,0.006,0.006,0.013,0.006,0.006,0.026,0.019,0.078,0.0,0.026,0.006,0.071,0.006,0.0,0.0,0.013,-0.0123,-0.5875,0.8145,-0.1365,-0.2086,0.1994,0.2332,-0.7363,0.7701,0.1856,-0.1043,0.1641,0.1319,-0.7363,0.7363,0.3007,0.1365,-0.2562,0.0515,-0.2334,0.3088,-0.056,0.2382,-0.0765,0.0346,-0.3095,0.3099,0.0487,0.1763,-0.1786,0.0026,-0.2238,0.3095,-0.0427,0.0999,-0.0587,-0.0501,-0.0534,0.0023,0.0117,0.0196,-0.0086,-0.1729,-0.1337,-0.2426,0.324,-0.6378,0.4018,-0.5014,-0.0077,0.3272,0.4118,-0.6854,0.2232,-0.3697,-0.1159,0.484,0.619,-0.9434,0.0,0.0,0.0,0.0,0.0,0.0,0.0,0.0,0.0,
1.48,run,-1.45,3.51,-0.79,0.09,2.45,0.0,0.0,0.0,0.104,-0.53,-34.1,49.66,-8.35,-9.4,10.72,13.89,-44.82,47.37,10.37,-3.34,7.73,7.73,-43.95,45.09,16.79,8.88,-15.03,0.36,-34.61,54.29,-8.6,-4.6,9.55,14.29,-51.23,54.45,11.97,-0.37,4.23,8.31,-47.64,50.9,16.56,9.28,-15.51,0.0104,-0.1748,-0.126,-0.2458,0.3708,-0.6523,0.4083,-0.556,0.0482,0.3421,0.4477,-0.7149,0.2373,-0.4116,-0.0577,0.4731,0.6233,-0.9472,0.013,0.013,0.006,0.006,0.013,0.006,0.006,0.026,0.019,0.078,0.0,0.026,0.006,0.071,0.006,0.0,0.0,0.013,-0.0061,-0.5967,0.8391,-0.1411,-0.1856,0.1948,0.2362,-0.7609,0.7961,0.1917,-0.0859,0.1473,0.1365,-0.7532,0.7609,0.293,0.1427,-0.2608,0.0591,-0.1979,0.3082,-0.0565,0.253,-0.0708,0.0358,-0.3087,0.3147,0.0571,0.1924,-0.1883,0.0191,-0.2199,0.3087,-0.0587,0.0929,-0.0583,-0.0471,-0.0565,-0.004,-0.0022,0.0118,0.0008,-0.1737,-0.1293,-0.2454,0.3495,-0.6449,0.4043,-0.5298,0.0203,0.3347,0.4301,-0.7003,0.2296,-0.3909,-0.087,0.4781,0.6206,-0.946,0.0,0.0,0.0,0.0,0.0,0.0,0.0,0.0,0.0,
1.52,run,-1.47,3.52,-0.52,0.1,2.97,0.0,0.0,0.0,0.117,0.53,-34.19,51.06,-8.35,-8.09,10.11,13.97,-46.14,48.78,10.63,-2.29,6.5,8.0,-45.0,46.49,16.61,9.14,-15.29,0.79,-34.65,54.35,-8.62,-3.31,8.51,14.52,-52.73,55.95,12.16,0.65,2.79,8.65,-48.87,52.4,16.45,9.51,-15.79,0.0226,-0.1755,-0.1253,-0.2464,0.3944,-0.6646,0.4148,-0.5829,0.0771,0.3475,0.4664,-0.7319,0.2472,-0.434,-0.027,0.4701,0.6274,-0.9504,0.006,0.006,0.0,0.006,0.006,0.013,0.006,0.045,0.019,0.104,0.006,0.026,0.006,0.117,0.006,0.013,0.0,0.006,-0.0107,-0.6044,0.8636,-0.1411,-0.1626,0.1841,0.2393,-0.7839,0.8191,0.1948,-0.069,0.1304,0.1365,-0.7701,0.7869,0.293,0.1457,-0.2669,0.0241,-0.1673,0.3078,-0.0395,0.2635,-0.0898,0.0365,-0.3024,0.3067,0.0515,0.198,-0.1951,0.0134,-0.2173,0.3139,-0.0411,0.0766,-0.0639,-0.0477,-0.0557,-0.0137,0.0015,0.0428,0.0104,-0.1748,-0.126,-0.2458,0.3708,-0.6523,0.4083,-0.556,0.0482,0.3421,0.4477,-0.7149,0.2373,-0.4116,-0.0577,0.4731,0.6233,-0.9472,0.0,0.0,0.0,0.0,0.0,0.0,0.0,0.0,0.0,
1.56,run,-1.41,3.52,0.51,-0.32,0.52,0.0,0.0,0.0,0.117,0.35,-34.19,52.29,-8.35,-6.68,9.49,14.24,-47.64,50.19,10.99,-1.23,5.36,8.44,-46.05,47.9,16.35,9.23,-15.47,1.19,-34.41,54.07,-8.53,-2.12,7.67,14.6,-54.23,57.45,12.38,1.61,1.29,9.04,-50.06,53.9,16.35,9.53,-15.86,0.0339,-0.1712,-0.1286,-0.2438,0.416,-0.6745,0.4173,-0.6055,0.1062,0.3538,0.4838,-0.7496,0.2582,-0.4556,0.0083,0.4671,0.6278,-0.9513,0.006,0.006,0.0,0.006,0.006,0.013,0.006,0.045,0.019,0.104,0.006,0.026,0.006,0.117,0.006,0.013,0.0,0.006,0.0077,-0.6059,0.8882,-0.1411,-0.1396,0.1733,0.2408,-0.8069,0.8437,0.1994,-0.0506,0.1089,0.1411,-0.7885,0.8115,0.2899,0.1503,-0.2715,0.0859,-0.1229,0.3075,-0.0277,0.2707,-0.1032,0.0313,-0.298,0.3067,0.0533,0.2077,-0.2171,0.0266,-0.2211,0.3118,-0.0403,0.0709,-0.062,-0.0495,-0.0549,-0.009,0.0017,0.0519,0.0226,-0.1755,-0.1253,-0.2464,0.3944,-0.6646,0.4148,-0.5829,0.0771,0.3475,0.4664,-0.7319,0.2472,-0.434,-0.027,0.4701,0.6274,-0.9504,0.0,0.0,0.0,0.0,0.0,0.0,0.0,0.0,0.0,
1.6,run,-1.43,3.49,-0.94,-0.3,2.74,0.0,0.0,0.0,0.117,0.79,-34.19,53.09,-8.35,-5.45,8.7,14.33,-49.04,51.59,11.16,-0.26,4.13,8.53,-47.11,49.39,16.35,9.23,-15.64,1.55,-34.11,53.97,-8.36,-1.08,6.6,14.76,-55.73,58.95,12.5,2.44,0.03,9.43,-51.4,55.4,16.3,9.72,-15.9,0.0443,-0.1657,-0.1297,-0.2389,0.4349,-0.6871,0.4218,-0.6274,0.1329,0.3572,0.4989,-0.7643,0.2694,-0.48,0.0367,0.4659,0.6312,-0.9518,0.006,0.006,0.0,0.006,0.006,0.013,0.006,0.045,0.019,0.104,0.006,0.026,0.006,0.117,0.006,0.013,0.0,0.006,0.0046,-0.6059,0.9097,-0.1411,-0.115,0.1626,0.2454,-0.833,0.8682,0.2056,-0.0322,0.089,0.1488,-0.8069,0.836,0.2853,0.1519,-0.2746,0.0486,-0.086,0.2958,-0.0194,0.2815,-0.1125,0.0392,-0.3064,0.3067,0.0603,0.2144,-0.2267,0.0474,-0.2238,0.3103,-0.0454,0.0553,-0.0549,-0.0441,-0.0551,0.0089,-0.0055,0.0091,0.0339,-0.1712,-0.1286,-0.2438,0.416,-0.6745,0.4173,-0.6055,0.1062,0.3538,0.4838,-0.7496,0.2582,-0.4556,0.0083,0.4671,0.6278,-0.9513,0.0,0.0,0.0,0.0,0.0,0.0,0.0,0.0,0.0,
1.64,run,-1.41,3.46,-0.29,0.14,0.87,0.0,0.0,0.0,0.117,1.49,-34.19,53.7,-8.35,-4.13,7.82,14.41,-50.45,53.09,11.43,0.7,2.81,9.05,-48.25,50.8,16.35,9.4,-15.82,1.97,-33.78,53.53,-8.16,0.03,5.61,14.98,-57.23,60.45,12.53,3.37,-1.38,9.86,-52.34,56.9,16.27,9.78,-15.72,0.0564,-0.1597,-0.1349,-0.2332,0.4552,-0.6988,0.428,-0.644,0.1594,0.3579,0.5159,-0.7809,0.2816,-0.497,0.0716,0.465,0.6323,-0.9496,0.0,0.0,0.006,0.0,0.006,0.013,0.013,0.033,0.019,0.091,0.0,0.026,0.0,0.078,0.006,0.0,0.0,0.0,0.0123,-0.6059,0.9235,-0.1411,-0.0936,0.1488,0.247,-0.8575,0.8928,0.2086,-0.0153,0.0675,0.1503,-0.8253,0.8621,0.2853,0.1519,-0.2777,0.0628,-0.0602,0.2588,-0.0136,0.2775,-0.1305,0.0332,-0.3064,0.3067,0.0537,0.2133,-0.2392,0.0389,-0.2256,0.3149,-0.0318,0.0387,-0.0499,-0.0456,-0.0579,-0.0164,-0.0053,0.0479,0.0443,-0.1657,-0.1297,-0.2389,0.4349,-0.6871,0.4218,-0.6274,0.1329,0.3572,0.4989,-0.7643,0.2694,-0.48,0.0367,0.4659,0.6312,-0.9518,0.0,0.0,0.0,0.0,0.0,0.0,0.0,0.0,0.0,
1.68,run,-1.39,3.43,-0.66,0.12,0.45,0.0,0.0,0.0,0.117,1.32,-34.19,53.96,-8.35,-2.9,6.94,14.5,-51.86,54.4,11.43,1.67,1.49,9.4,-49.48,52.21,16.35,9.58,-15.82,2.34,-33.17,53.04,-7.88,1.01,4.63,15.12,-58.73,61.95,12.52,4.25,-2.62,10.29,-53.44,58.4,16.32,9.86,-15.56,0.0669,-0.1486,-0.1407,-0.225,0.473,-0.7102,0.4319,-0.6611,0.1852,0.3577,0.5319,-0.7956,0.2939,-0.5171,0.1038,0.4663,0.6339,-0.9477,0.0,0.0,0.006,0.0,0.006,0.013,0.013,0.033,0.019,0.091,0.0,0.026,0.0,0.078,0.006,0.0,0.0,0.0,0.0245,-0.6059,0.9342,-0.1411,-0.0706,0.1335,0.2485,-0.882,0.9189,0.2132,0.0015,0.0445,0.1595,-0.8452,0.8866,0.2853,0.1549,-0.2807,0.09,-0.0421,0.2214,-0.0095,0.2805,-0.1488,0.029,-0.3065,0.3124,0.0549,0.2126,-0.2537,0.0618,-0.2327,0.3125,-0.0223,0.0386,-0.0464,-0.0438,-0.0599,-0.0051,0.0025,0.0152,0.0564,-0.1597,-0.1349,-0.2332,0.4552,-0.6988,0.428,-0.644,0.1594,0.3579,0.5159,-0.7809,0.2816,-0.497,0.0716,0.465,0.6323,-0.9496,0.0,0.0,0.0,0.0,0.0,0.0,0.0,0.0,0.0,
1.72,run,-1.38,3.42,0.51,0.0,-0.58,0.0,0.0,0.0,0.117,2.2,-33.93,53.96,-8.44,-1.76,6.06,14.77,-53.35,55.9,11.43,2.64,0.26,9.84,-50.62,53.61,16.35,9.67,-15.82,2.7,-32.66,52.72,-7.59,1.96,3.7,15.33,-60.23,63.45,12.39,5.09,-3.72,10.67,-54.4,59.9,16.39,10.05,-15.27,0.0772,-0.1393,-0.1444,-0.2168,0.4902,-0.7212,0.438,-0.6759,0.2079,0.3539,0.547,-0.8085,0.3047,-0.5345,0.1314,0.4684,0.6373,-0.9444,0.0,0.0,0.006,0.0,0.006,0.013,0.013,0.033,0.019,0.091,0.0,0.026,0.0,0.078,0.006,0.0,0.0,0.0,0.0215,-0.6059,0.9388,-0.1411,-0.0491,0.1181,0.25,-0.9066,0.9419,0.2132,0.0184,0.0215,0.1657,-0.8667,0.9112,0.2853,0.158,-0.2807,0.0515,-0.0295,0.1723,-0.0066,0.277,-0.1618,0.026,-0.3067,0.3051,0.0384,0.2121,-0.264,0.0663,-0.2435,0.3108,-0.0156,0.0386,-0.0325,-0.0427,-0.0629,-0.0114,0.0021,0.0078,0.0669,-0.1486,-0.1407,-0.225,0.473,-0.7102,0.4319,-0.6611,0.1852,0.3577,0.5319,-0.7956,0.2939,-0.5171,0.1038,0.4663,0.6339,-0.9477,0.0,0.0,0.0,0.0,0.0,0.0,0.0,0.0,0.0,
1.76,run,-1.39,3.42,-0.21,0.29,-1.02,0.0,0.0,0.0,0.117,2.29,-33.4,53.53,-8.44,-0.53,5.1,14.94,-54.76,57.3,11.43,3.52,-1.05,10.28,-51.77,55.02,16.35,9.76,-15.64,3.01,-31.85,51.82,-7.15,2.88,2.65,15.45,-61.73,64.95,12.24,5.9,-4.99,11.08,-55.22,61.4,16.5,10.05,-14.93,0.086,-0.1246,-0.155,-0.2042,0.5069,-0.7336,0.4413,-0.6863,0.2293,0.3498,0.5618,-0.8234,0.3165,-0.5495,0.1625,0.4714,0.6372,-0.9403,0.013,0.006,0.006,0.013,0.0,0.013,0.006,0.039,0.026,0.039,0.0,0.026,0.013,0.065,0.006,0.006,0.006,0.006,0.0368,-0.6013,0.9388,-0.1427,-0.0291,0.1028,0.2546,-0.9327,0.9679,0.2132,0.0353,0.0,0.1733,-0.8866,0.9357,0.2853,0.1595,-0.2807,0.0933,-0.0035,0.1206,-0.0104,0.2684,-0.1705,0.0354,-0.3121,0.3109,0.0269,0.2115,-0.265,0.075,-0.2449,0.3092,-0.0109,0.0327,-0.0228,-0.0416,-0.0636,0.0089,0.0001,-0.0101,0.0772,-0.1393,-0.1444,-0.2168,0.4902,-0.7212,0.438,-0.6759,0.2079,0.3539,0.547,-0.8085,0.3047,-0.5345,0.1314,0.4684,0.6373,-0.9444,0.0,0.0,0.0,0.0,0.0,0.0,0.0,0.0,0.0,
1.8,run,-1.37,3.44,-0.86,-0.34,2.32,0.0,0.0,0.0,0.117,2.72,-32.87,52.91,-7.82,0.62,4.13,15.12,-56.25,58.71,11.43,4.39,-2.37,10.72,-53.0,56.43,16.35,9.84,-15.38,3.34,-31.09,51.17,-6.71,3.77,1.53,15.61,-63.23,66.45,11.96,6.66,-6.07,11.47,-56.06,62.9,16.61,10.13,-14.57,0.0954,-0.1107,-0.1627,-0.1916,0.5232,-0.7467,0.4461,-0.697,0.2496,0.3418,0.5756,-0.8361,0.3276,-0.5648,0.1878,0.4744,0.6388,-0.9361,0.013,0.006,0.006,0.013,0.0,0.013,0.006,0.039,0.026,0.039,0.0,0.026,0.013,0.065,0.006,0.006,0.006,0.006,0.0383,-0.5921,0.9311,-0.1427,-0.0077,0.0859,0.2577,-0.9572,0.9925,0.2132,0.0506,-0.023,0.181,-0.9066,0.9603,0.2853,0.1611,-0.2777,0.0712,0.0327,0.0551,-0.0073,0.2698,-0.1837,0.0365,-0.3121,0.3113,0.0188,0.2066,-0.2733,0.0818,-0.2475,0.3101,-0.0076,0.0288,-0.0042,-0.0423,-0.0635,-0.0036,0.0051,-0.0178,0.086,-0.1246,-0.155,-0.2042,0.5069,-0.7336,0.4413,-0.6863,0.2293,0.3498,0.5618,-0.8234,0.3165,-0.5495,0.1625,0.4714,0.6372,-0.9403,0.0,0.0,0.0,0.0,0.0,0.0,0.0,0.0,0.0,
1.84,run,-1.34,3.47,0.44,0.19,-1.84,0.0,0.0,0.0,0.117,3.43,-32.26,52.29,-7.29,1.58,3.16,15.29,-57.66,60.03,11.43,5.27,-3.52,10.99,-53.79,57.92,16.61,9.93,-15.12,3.65,-30.32,50.07,-6.19,4.78,0.3,15.76,-63.67,67.95,11.62,7.47,-7.36,11.8,-56.59,64.4,16.74,10.18,-14.09,0.1044,-0.0967,-0.1757,-0.1768,0.5415,-0.7611,0.4504,-0.7031,0.2679,0.3319,0.5903,-0.8513,0.337,-0.5744,0.2146,0.4784,0.6396,-0.9304,0.013,0.006,0.006,0.013,0.0,0.013,0.006,0.039,0.026,0.039,0.0,0.026,0.013,0.065,0.006,0.006,0.006,0.006,0.046,-0.5829,0.9204,-0.1319,0.0123,0.069,0.2608,-0.9833,1.017,0.2132,0.066,-0.046,0.1887,-0.9281,0.9848,0.2853,0.1626,-0.273,0.0784,0.0572,-0.0014,0.0349,0.2631,-0.1915,0.037,-0.3156,0.3093,0.0132,0.2017,-0.277,0.0858,-0.2533,0.3085,-0.0053,0.0258,0.0142,-0.0409,-0.0615,-0.015,-0.0059,0.0404,0.0954,-0.1107,-0.1627,-0.1916,0.5232,-0.7467,0.4461,-0.697,0.2496,0.3418,0.5756,-0.8361,0.3276,-0.5648,0.1878,0.4744,0.6388,-0.9361,0.0,0.0,0.0,0.0,0.0,0.0,0.0,0.0,0.0,
1.88,run,-1.29,3.42,-0.03,-0.09,0.56,0.0,0.0,0.0,0.117,3.08,-31.55,51.59,-6.94,2.64,2.11,15.47,-59.15,61.44,11.43,6.15,-4.83,11.51,-54.84,59.41,16.7,10.02,-14.68,3.91,-29.32,48.91,-5.64,5.55,-0.99,15.79,-64.16,69.45,11.28,8.08,-8.51,12.23,-57.39,65.9,16.92,10.09,-13.85,0.1117,-0.0786,-0.1893,-0.1611,0.5554,-0.7764,0.4511,-0.7121,0.2879,0.3222,0.6015,-0.8648,0.3495,-0.5889,0.2372,0.4833,0.638,-0.9277,0.019,0.006,0.006,0.0,0.0,0.006,0.013,0.019,0.019,0.0,0.0,0.019,0.006,0.052,0.013,0.0,0.0,0.006,0.0583,-0.5722,0.9097,-0.1227,0.0291,0.0522,0.2638,-1.0078,1.04,0.2132,0.0813,-0.066,0.1933,-0.9419,1.0109,0.2899,0.1641,-0.2684,0.1006,0.08,-0.041,0.0587,0.2471,-0.1969,0.0373,-0.3124,0.3023,0.0092,0.1984,-0.2682,0.0772,-0.2287,0.3131,0.0134,0.0238,0.0271,-0.0377,-0.0596,0.0076,0.0034,-0.0322,0.1044,-0.0967,-0.1757,-0.1768,0.5415,-0.7611,0.4504,-0.7031,0.2679,0.3319,0.5903,-0.8513,0.337,-0.5744,0.2146,0.4784,0.6396,-0.9304,0.0,0.0,0.0,0.0,0.0,0.0,0.0,0.0,0.0,
1.92,run,-1.3,3.44,0.1,0.03,-1.74,0.0,0.0,0.0,0.117,3.96,-30.67,50.54,-6.33,3.87,0.79,15.47,-60.82,63.19,10.9,7.12,-6.33,11.95,-55.81,61.08,16.7,10.02,-14.24,4.18,-28.49,47.93,-5.06,6.37,-2.12,15.96,-64.38,70.95,10.81,8.79,-9.53,12.54,-57.92,67.4,17.05,10.21,-13.37,0.1194,-0.0635,-0.2008,-0.1445,0.5704,-0.7896,0.456,-0.7161,0.3013,0.3087,0.6144,-0.8768,0.3584,-0.5986,0.2574,0.4872,0.6402,-0.922,0.019,0.006,0.006,0.0,0.0,0.006,0.013,0.019,0.019,0.0,0.0,0.019,0.006,0.052,0.013,0.0,0.0,0.006,0.0522,-0.5599,0.8974,-0.1166,0.0476,0.0337,0.2669,-1.0339,1.0646,0.2132,0.0966,-0.089,0.2025,-0.9603,1.037,0.2915,0.1657,-0.2608,0.0473,0.1023,-0.0749,0.0642,0.2423,-0.2072,0.0377,-0.3169,0.3041,0.0065,0.1967,-0.2744,0.0887,-0.2295,0.3174,0.0152,0.0224,0.0479,-0.0337,-0.0633,-0.0005,-0.0015,0.0098,0.1117,-0.0786,-0.1893,-0.1611,0.5554,-0.7764,0.4511,-0.7121,0.2879,0.3222,0.6015,-0.8648,0.3495,-0.5889,0.2372,0.4833,0.638,-0.9277,0.0,0.0,0.0,0.0,0.0,0.0,0.0,0.0,0.0,
1.96,run,-1.22,3.44,1.18,0.24,-2.15,0.0,0.0,0.0,0.117,4.13,-29.88,49.75,-5.89,4.66,-0.18,15.47,-62.14,64.6,10.9,7.73,-7.29,12.13,-56.43,62.4,16.88,10.02,-14.06,4.43,-27.3,46.54,-4.38,7.24,-3.47,15.99,-64.64,72.45,10.34,9.47,-10.67,12.97,-58.56,68.9,17.27,10.16,-12.76,0.1265,-0.0419,-0.2171,-0.1251,0.5861,-0.8056,0.4568,-0.7208,0.321,0.2955,0.6267,-0.8903,0.3705,-0.6102,0.2825,0.4934,0.6393,-0.9148,0.019,0.006,0.006,0.0,0.0,0.006,0.013,0.019,0.019,0.0,0.0,0.019,0.006,0.052,0.013,0.0,0.0,0.006,0.0675,-0.5446,0.879,-0.1058,0.069,0.0107,0.2669,-1.063,1.0953,0.204,0.1135,-0.115,0.2102,-0.9771,1.0661,0.2915,0.1657,-0.2531,0.0815,0.1199,-0.1105,0.0788,0.2373,-0.2176,0.0264,-0.3137,0.3096,-0.0245,0.1909,-0.2743,0.0863,-0.2138,0.3141,0.0106,0.0157,0.0577,-0.0341,-0.0616,0.0017,0.0005,-0.0303,0.1194,-0.0635,-0.2008,-0.1445,0.5704,-0.7896,0.456,-0.7161,0.3013,0.3087,0.6144,-0.8768,0.3584,-0.5986,0.2574,0.4872,0.6402,-0.922,0.0,0.0,0.0,0.0,0.0,0.0,0.0,0.0,0.0,
2.0,run,-1.27,3.41,-1.36,-0.71,0.41,0.0,0.0,0.0,0.117,3.96,-29.18,48.87,-5.45,5.54,-1.23,15.64,-63.11,66.09,10.37,8.44,-8.53,12.57,-57.3,63.9,17.14,10.02,-13.62,4.62,-26.46,45.41,-3.82,7.88,-4.59,16.06,-64.8,73.95,9.92,9.98,-11.45,13.32,-59.03,70.4,17.39,10.23,-12.41,0.1319,-0.0266,-0.2305,-0.1091,0.5979,-0.8188,0.4589,-0.7237,0.3333,0.2834,0.636,-0.8995,0.3806,-0.6187,0.2992,0.4969,0.6405,-0.9107,0.0,0.013,0.006,0.013,0.0,0.019,0.006,0.013,0.026,0.0,0.0,0.019,0.0,0.039,0.013,0.006,0.006,0.006,0.0706,-0.5308,0.8652,-0.0982,0.0828,-0.0061,0.2669,-1.0861,1.1198,0.204,0.1243,-0.1319,0.2132,-0.9879,1.0891,0.2945,0.1657,-0.25,0.0684,0.1352,-0.1286,0.0836,0.2174,-0.2149,0.0185,-0.305,0.3078,-0.0172,0.1735,-0.2546,0.0718,-0.1895,0.3053,0.0188,0.011,0.0518,-0.0275,-0.0617,0.0207,0.0042,-0.0375,0.1265,-0.0419,-0.2171,-0.1251,0.5861,-0.8056,0.4568,-0.7208,0.321,0.2955,0.6267,-0.8903,0.3705,-0.6102,0.2825,0.4934,0.6393,-0.9148,0.0,0.0,0.0,0.0,0.0,0.0,0.0,0.0,0.0,
2.04,run,-1.23,3.45,0.63,0.57,-1.42,0.0,0.0,0.0,0.117,4.83,-28.21,47.72,-4.83,6.42,-2.46,15.82,-63.9,67.41,10.02,9.14,-9.58,13.01,-58.01,65.39,17.23,10.02,-13.1,4.86,-25.48,44.33,-3.25,8.5,-5.44,16.16,-64.74,75.45,9.35,10.62,-12.18,13.56,-59.14,71.9,17.54,10.26,-11.69,0.1387,-0.0087,-0.2432,-0.0929,0.6091,-0.8287,0.4618,-0.7225,0.3451,0.2671,0.6476,-0.9079,0.3873,-0.6207,0.3165,0.5012,0.6411,-0.9023,0.0,0.013,0.006,0.013,0.0,0.019,0.006,0.013,0.026,0.0,0.0,0.019,0.0,0.039,0.013,0.006,0.006,0.006,0.0675,-0.5185,0.8498,-0.0905,0.0982,-0.0245,0.27,-1.1029,1.1459,0.1948,0.1365,-0.1534,0.2209,-1.0032,1.1152,0.2991,0.1657,-0.2424,0.0364,0.1407,-0.1476,0.0874,0.2098,-0.2196,0.0245,-0.2769,0.3134,-0.0466,0.1675,-0.2589,0.0791,-0.1903,0.3117,0.0305,0.0077,0.0651,-0.0315,-0.0642,-0.0237,-0.0125,0.0072,0.1319,-0.0266,-0.2305,-0.1091,0.5979,-0.8188,0.4589,-0.7237,0.3333,0.2834,0.636,-0.8995,0.3806,-0.6187,0.2992,0.4969,0.6405,-0.9107,0.0,0.0,0.0,0.0,0.0,0.0,0.0,0.0,0.0,
2.08,run,-1.15,3.47,1.46,0.28,-4.71,0.0,0.0,0.0,0.117,4.75,-27.33,46.76,-4.22,7.29,-3.52,15.82,-64.42,68.82,9.67,9.76,-10.55,13.36,-58.54,66.71,17.49,10.02,-12.66,4.99,-24.27,42.83,-2.55,9.22,-6.58,16.07,-64.75,76.95,8.83,11.12,-12.97,13.85,-59.52,73.4,17.73,10.25,-11.19,0.1426,0.0132,-0.2616,-0.0728,0.6221,-0.8421,0.4592,-0.7228,0.3558,0.2522,0.6568,-0.9173,0.3956,-0.6276,0.3323,0.5065,0.6409,-0.8964,0.0,0.013,0.006,0.013,0.0,0.019,0.006,0.013,0.026,0.0,0.0,0.019,0.0,0.039,0.013,0.006,0.006,0.006,0.0828,-0.5016,0.8299,-0.0798,0.1135,-0.046,0.273,-1.1167,1.1689,0.1887,0.1488,-0.1718,0.2286,-1.0155,1.1413,0.3007,0.1657,-0.2332,0.0832,0.1621,-0.1785,0.1016,0.2046,-0.2346,0.0287,-0.2458,0.3061,-0.0557,0.1635,-0.2506,0.0842,-0.1794,0.3164,0.0271,0.0054,0.0802,-0.0283,-0.0611,0.0109,0.0099,-0.0249,0.1387,-0.0087,-0.2432,-0.0929,0.6091,-0.8287,0.4618,-0.7225,0.3451,0.2671,0.6476,-0.9079,0.3873,-0.6207,0.3165,0.5012,0.6411,-0.9023,0.0,0.0,0.0,0.0,0.0,0.0,0.0,0.0,0.0,
2.12,run,-1.16,3.45,-0.27,-0.47,-1.23,0.0,0.0,0.0,0.117,4.92,-26.37,45.62,-3.6,8.0,-4.66,15.82,-64.6,70.22,9.05,10.46,-11.51,13.62,-58.89,68.2,17.49,10.11,-12.04,5.16,-23.19,41.56,-1.91,9.72,-7.64,16.01,-64.9,78.45,8.27,11.52,-13.55,14.16,-60.08,74.9,17.9,10.35,-10.82,0.1474,0.0329,-0.2758,-0.0546,0.6313,-0.8546,0.4575,-0.7255,0.366,0.2364,0.6641,-0.9241,0.4045,-0.6378,0.3441,0.5114,0.6426,-0.892,0.013,0.0,0.013,0.006,0.006,0.019,0.006,0.006,0.026,0.006,0.0,0.013,0.006,0.026,0.006,0.006,0.006,0.006,0.0813,-0.4863,0.813,-0.069,0.1289,-0.0644,0.273,-1.1259,1.1934,0.1825,0.1595,-0.1887,0.2347,-1.0247,1.1643,0.3053,0.1657,-0.2255,0.0526,0.1707,-0.1879,0.1112,0.2005,-0.2329,0.0201,-0.2064,0.3058,-0.0619,0.1545,-0.2384,0.0819,-0.16,0.3073,0.0361,0.0038,0.0848,-0.0218,-0.0594,0.0255,0.0049,-0.0823,0.1426,0.0132,-0.2616,-0.0728,0.6221,-0.8421,0.4592,-0.7228,0.3558,0.2522,0.6568,-0.9173,0.3956,-0.6276,0.3323,0.5065,0.6409,-0.8964,0.0,0.0,0.0,0.0,0.0,0.0,0.0,0.0,0.0,
2.16,run,-1.08,3.52,1.56,1.38,-4.8,0.0,0.0,0.0,0.117,5.36,-25.14,44.21,-2.9,8.88,-5.98,15.82,-64.69,71.98,8.44,11.07,-12.57,13.97,-59.41,69.96,17.84,10.2,-11.43,5.33,-22.05,40.06,-1.18,10.31,-8.27,15.99,-64.48,79.95,7.57,12.0,-14.09,14.33,-59.94,76.4,17.99,10.33,-9.83,0.1522,0.0537,-0.2941,-0.0336,0.642,-0.862,0.4567,-0.7179,0.3736,0.2162,0.6727,-0.9304,0.4094,-0.6353,0.3569,0.514,0.6424,-0.8803,0.013,0.0,0.013,0.006,0.006,0.019,0.006,0.006,0.026,0.006,0.0,0.013,0.006,0.026,0.006,0.006,0.006,0.006,0.0844,-0.4694,0.7931,-0.0583,0.1411,-0.0844,0.273,-1.129,1.218,0.1718,0.1718,-0.2056,0.2393,-1.0308,1.1904,0.3053,0.1672,-0.2148,0.0483,0.1828,-0.2063,0.1181,0.1864,-0.2379,0.0141,-0.156,0.3062,-0.0836,0.1542,-0.2302,0.0746,-0.135,0.313,0.0253,0.0084,0.0996,-0.0221,-0.0608,-0.0047,-0.0082,-0.0215,0.1474,0.0329,-0.2758,-0.0546,0.6313,-0.8546,0.4575,-0.7255,0.366,0.2364,0.6641,-0.9241,0.4045,-0.6378,0.3441,0.5114,0.6426,-0.892,0.0,0.0,0.0,0.0,0.0,0.0,0.0,0.0,0.0,
2.2,run,-1.05,3.52,-0.11,-0.04,-1.95,0.0,0.0,0.0,0.117,5.01,-24.26,43.15,-2.29,9.4,-6.94,15.82,-64.69,73.39,8.26,11.51,-13.18,14.06,-59.68,71.37,17.84,10.2,-11.07,5.46,-20.55,38.56,-0.35,10.94,-9.52,15.81,-64.4,81.45,6.87,12.44,-14.64,14.63,-60.38,77.9,18.17,10.4,-9.28,0.1559,0.0817,-0.315,-0.0099,0.6535,-0.8767,0.4516,-0.7163,0.3823,0.1964,0.6808,-0.9369,0.4179,-0.6433,0.3689,0.5191,0.6436,-0.8738,0.013,0.0,0.013,0.006,0.006,0.019,0.006,0.006,0.026,0.006,0.0,0.013,0.006,0.026,0.006,0.006,0.006,0.006,0.092,-0.4479,0.7685,-0.046,0.1565,-0.1074,0.273,-1.1305,1.2487,0.1611,0.1825,-0.224,0.2454,-1.04,1.221,0.3114,0.1687,-0.204,0.0579,0.1955,-0.2216,0.1213,0.1787,-0.2388,0.0098,-0.114,0.3108,-0.0923,0.1417,-0.219,0.0715,-0.1234,0.3155,0.037,0.0107,0.1035,-0.0157,-0.0552,0.0272,0.0241,-0.0838,0.1522,0.0537,-0.2941,-0.0336,0.642,-0.862,0.4567,-0.7179,0.3736,0.2162,0.6727,-0.9304,0.4094,-0.6353,0.3569,0.514,0.6424,-0.8803,0.0,0.0,0.0,0.0,0.0,0.0,0.0,0.0,0.0,
2.24,run,-1.07,3.5,-0.06,-0.24,-1.06,0.0,0.0,0.0,0.117,5.54,-23.29,41.92,-1.76,10.02,-7.82,15.82,-64.51,74.79,7.47,11.95,-13.89,14.41,-59.77,72.69,18.11,10.2,-10.55,5.61,-19.48,37.06,0.34,11.34,-10.16,15.82,-63.89,82.95,6.2,12.79,-15.01,14.79,-60.2,79.4,18.2,10.4,-8.4,0.1604,0.1004,-0.3327,0.0096,0.6606,-0.8843,0.4519,-0.7071,0.3879,0.177,0.6872,-0.9413,0.4226,-0.6401,0.3778,0.5201,0.6436,-0.8636,0.0,0.006,0.013,0.019,0.006,0.013,0.0,0.006,0.019,0.006,0.0,0.019,0.006,0.019,0.006,0.006,0.006,0.013,0.0859,-0.4326,0.7501,-0.0353,0.1657,-0.1243,0.273,-1.1305,1.2732,0.158,0.1902,-0.2347,0.247,-1.0446,1.2456,0.3114,0.1687,-0.1979,0.0177,0.1939,-0.2236,0.1248,0.1593,-0.23,0.0069,-0.0798,0.3088,-0.076,0.1277,-0.1932,0.0557,-0.1035,0.3122,0.0259,0.0075,0.0953,-0.0129,-0.0552,-0.002,-0.0007,-0.0341,0.1559,0.0817,-0.315,-0.0099,0.6535,-0.8767,0.4516,-0.7163,0.3823,0.1964,0.6808,-0.9369,0.4179,-0.6433,0.3689,0.5191,0.6436,-0.8738,0.0,0.0,0.0,0.0,0.0,0.0,0.0,0.0,0.0,
2.28,run,-1.01,3.51,0.7,0.82,-4.87,0.0,0.0,0.0,0.117,5.27,-22.15,40.69,-0.97,10.63,-8.88,15.82,-64.25,76.2,6.77,12.48,-14.5,14.59,-59.94,74.18,18.11,10.2,-9.93,5.72,-18.16,35.56,1.09,11.77,-10.78,15.68,-63.32,84.45,5.54,13.2,-15.43,14.94,-59.96,80.9,18.31,10.36,-7.48,0.1635,0.1244,-0.3542,0.0312,0.6685,-0.8915,0.4479,-0.6968,0.3915,0.1582,0.6946,-0.9463,0.4269,-0.6356,0.3868,0.523,0.6429,-0.8527,0.0,0.006,0.013,0.019,0.006,0.013,0.0,0.006,0.019,0.006,0.0,0.019,0.006,0.019,0.006,0.006,0.006,0.013,0.0951,-0.4157,0.7286,-0.0261,0.1764,-0.1396,0.273,-1.1275,1.2977,0.1442,0.1979,-0.247,0.2531,-1.0462,1.2686,0.316,0.1687,-0.1887,0.0471,0.1993,-0.2375,0.1221,0.152,-0.2188,0.0048,-0.0443,0.3087,-0.1053,0.1183,-0.1815,0.0622,-0.0782,0.3053,0.0355,0.0052,0.1014,-0.0143,-0.0565,-0.0011,-0.0042,-0.0185,0.1604,0.1004,-0.3327,0.0096,0.6606,-0.8843,0.4519,-0.7071,0.3879,0.177,0.6872,-0.9413,0.4226,-0.6401,0.3778,0.5201,0.6436,-0.8636,0.0,0.0,0.0,0.0,0.0,0.0,0.0,0.0,0.0,
2.32,run,-1.02,3.53,-0.14,-0.04,-1.47,0.0,0.0,0.0,0.117,5.62,-21.01,39.38,-0.35,11.16,-9.67,15.82,-63.81,77.61,6.15,12.83,-15.03,14.68,-59.94,75.59,18.19,10.2,-9.14,5.85,-16.86,34.06,1.79,12.2,-11.66,15.49,-63.09,85.95,4.91,13.47,-15.85,15.15,-60.28,82.4,18.41,10.43,-6.93,0.1671,0.1479,-0.3721,0.051,0.6763,-0.9018,0.4426,-0.6926,0.3978,0.1401,0.6995,-0.9512,0.4329,-0.6415,0.3921,0.5261,0.6442,-0.8463,0.0,0.006,0.013,0.019,0.006,0.013,0.0,0.006,0.019,0.006,0.0,0.019,0.006,0.019,0.006,0.006,0.006,0.013,0.0905,-0.3958,0.7072,-0.0123,0.1871,-0.158,0.273,-1.1229,1.3223,0.1319,0.2071,-0.2577,0.2562,-1.0492,1.2947,0.316,0.1687,-0.1779,0.0158,0.2138,-0.2462,0.1369,0.1464,-0.2217,0.0034,-0.0139,0.3075,-0.1194,0.1171,-0.167,0.0549,-0.0662,0.3108,0.0248,0.0037,0.1109,-0.0091,-0.0555,0.0123,0.0143,-0.085,0.1635,0.1244,-0.3542,0.0312,0.6685,-0.8915,0.4479,-0.6968,0.3915,0.1582,0.6946,-0.9463,0.4269,-0.6356,0.3868,0.523,0.6429,-0.8527,0.0,0.0,0.0,0.0,0.0,0.0,0.0,0.0,0.0,
2.36,run,-0.98,3.53,0.89,0.29,-1.91,0.0,0.0,0.0,0.117,5.98,-19.78,37.97,0.35,11.69,-10.55,15.82,-63.46,79.01,5.62,13.18,-15.47,14.77,-59.85,77.08,18.28,10.28,-8.26,5.96,-15.49,32.56,2.61,12.61,-12.05,15.33,-62.17,87.45,4.19,13.82,-16.11,15.22,-59.74,83.9,18.41,10.31,-5.65,0.1704,0.1728,-0.3963,0.0745,0.6838,-0.9065,0.4379,-0.6759,0.3995,0.1196,0.7059,-0.9543,0.4348,-0.6316,0.3995,0.526,0.6419,-0.8312,0.0,0.006,0.013,0.013,0.0,0.006,0.006,0.006,0.026,0.006,0.0,0.006,0.019,0.006,0.006,0.0,0.0,0.006,0.0966,-0.3758,0.6842,-0.0015,0.1963,-0.1718,0.273,-1.1152,1.3468,0.1212,0.2132,-0.2669,0.2577,-1.0492,1.3192,0.3175,0.1687,-0.1641,0.0341,0.2246,-0.2588,0.1361,0.137,-0.2071,0.0024,0.0191,0.3074,-0.1239,0.105,-0.1515,0.0442,-0.0463,0.3097,0.0231,0.0026,0.1295,-0.0105,-0.0542,-0.0025,-0.0007,-0.0257,0.1671,0.1479,-0.3721,0.051,0.6763,-0.9018,0.4426,-0.6926,0.3978,0.1401,0.6995,-0.9512,0.4329,-0.6415,0.3921,0.5261,0.6442,-0.8463,0.0,0.0,0.0,0.0,0.0,0.0,0.0,0.0,0.0,
2.4,run,-0.99,3.53,-0.93,-0.42,-0.18,0.0,0.0,0.0,0.117,5.62,-18.54,36.56,1.14,12.13,-11.34,15.73,-62.75,80.42,4.75,13.54,-15.82,15.12,-59.85,78.49,18.28,10.28,-7.47,6.07,-14.06,31.06,3.41,13.01,-12.6,15.09,-61.42,88.95,3.53,14.11,-16.49,15.32,-59.51,85.4,18.44,10.2,-4.75,0.1734,0.199,-0.4206,0.0975,0.691,-0.913,0.4312,-0.6623,0.4013,0.1009,0.7111,-0.9587,0.4377,-0.6275,0.4046,0.5269,0.6401,-0.8206,0.0,0.006,0.013,0.013,0.0,0.006,0.006,0.006,0.026,0.006,0.0,0.006,0.019,0.006,0.006,0.0,0.0,0.006,0.1028,-0.3543,0.6596,0.0107,0.2056,-0.1871,0.273,-1.1091,1.3714,0.112,0.2194,-0.2746,0.2592,-1.0477,1.3453,0.3191,0.1703,-0.1488,0.0469,0.2378,-0.2732,0.1413,0.1305,-0.2025,0.0017,0.0364,0.3073,-0.1213,0.0965,-0.1348,0.0367,-0.0267,0.3146,0.022,0.0076,0.1482,-0.0067,-0.0538,0.0156,0.0051,-0.0333,0.1704,0.1728,-0.3963,0.0745,0.6838,-0.9065,0.4379,-0.6759,0.3995,0.1196,0.7059,-0.9543,0.4348,-0.6316,0.3995,0.526,0.6419,-0.8312,0.0,0.0,0.0,0.0,0.0,0.0,0.0,0.0,0.0,
2.44,run,-0.98,3.51,0.02,-0.15,0.23,0.0,0.0,0.0,0.117,6.15,-17.31,35.16,1.85,12.39,-11.95,15.38,-62.4,81.83,4.13,13.8,-16.08,15.12,-59.5,79.89,18.28,10.28,-6.59,6.23,-12.58,29.56,4.18,13.39,-12.95,14.89,-60.52,90.45,2.81,14.45,-16.74,15.37,-59.15,86.9,18.45,10.16,-3.55,0.1781,0.2258,-0.4426,0.1194,0.6981,-0.9171,0.4256,-0.6459,0.4042,0.0802,0.7172,-0.9617,0.4391,-0.621,0.4088,0.5271,0.6393,-0.8065,0.0,0.006,0.013,0.013,0.0,0.006,0.006,0.006,0.026,0.006,0.0,0.006,0.019,0.006,0.006,0.0,0.0,0.006,0.0966,-0.3329,0.6351,0.0245,0.2132,-0.201,0.2715,-1.0968,1.3959,0.0966,0.2255,-0.2807,0.2654,-1.0477,1.3698,0.3191,0.1703,-0.135,0.0099,0.2468,-0.2831,0.1506,0.12,-0.1934,-0.0046,0.0714,0.307,-0.1423,0.0905,-0.1173,0.0487,-0.0187,0.3121,0.0154,0.0053,0.1554,-0.0076,-0.0544,-0.0162,-0.0073,-0.0032,0.1734,0.199,-0.4206,0.0975,0.691,-0.913,0.4312,-0.6623,0.4013,0.1009,0.7111,-0.9587,0.4377,-0.6275,0.4046,0.5269,0.6401,-0.8206,0.0,0.0,0.0,0.0,0.0,0.0,0.0,0.0,0.0,
2.48,run,-0.96,3.51,0.28,0.1,-1.46,0.0,0.0,0.0,0.117,6.15,-16.0,33.75,2.64,12.92,-12.57,15.12,-61.44,83.23,3.69,14.15,-16.52,15.29,-59.33,81.39,18.37,10.28,-5.62,6.31,-11.24,28.06,4.94,13.72,-13.31,14.66,-59.58,91.95,2.26,14.65,-17.05,15.44,-58.74,88.4,18.46,9.98,-2.49,0.1803,0.2502,-0.467,0.1411,0.7041,-0.9213,0.4189,-0.6287,0.4051,0.0646,0.721,-0.9653,0.441,-0.6135,0.413,0.5274,0.636,-0.794,0.006,0.006,0.006,0.019,0.0,0.006,0.0,0.006,0.033,0.013,0.0,0.013,0.006,0.0,0.006,0.0,0.0,0.013,0.1058,-0.3114,0.6105,0.0368,0.2178,-0.2117,0.2654,-1.0907,1.4205,0.0859,0.2301,-0.2853,0.2654,-1.0416,1.3944,0.3191,0.1703,-0.1197,0.0415,0.2535,-0.2904,0.1515,0.1013,-0.1757,-0.0263,0.073,0.3071,-0.1399,0.0807,-0.0994,0.0341,0.01,0.3107,0.0108,0.0037,0.1664,-0.0069,-0.0555,0.0003,-0.0026,0.004,0.1781,0.2258,-0.4426,0.1194,0.6981,-0.9171,0.4256,-0.6459,0.4042,0.0802,0.7172,-0.9617,0.4391,-0.621,0.4088,0.5271,0.6393,-0.8065,0.0,0.0,0.0,0.0,0.0,0.0,0.0,0.0,0.0,
2.52,run,-1.0,3.54,-0.53,0.05,-0.73,0.0,0.0,0.0,0.117,6.15,-14.77,32.43,3.43,13.27,-13.01,14.94,-60.64,84.64,2.72,14.5,-16.88,15.29,-58.97,82.79,18.37,10.28,-4.66,6.45,-9.74,26.56,5.67,14.03,-13.67,14.33,-58.79,93.45,1.69,14.82,-17.23,15.5,-58.68,89.9,18.43,9.81,-1.61,0.1842,0.2775,-0.4899,0.162,0.7097,-0.9256,0.4094,-0.6144,0.4061,0.0484,0.7241,-0.9674,0.4427,-0.6123,0.4154,0.5266,0.633,-0.7836,0.006,0.006,0.006,0.019,0.0,0.006,0.0,0.006,0.033,0.013,0.0,0.013,0.006,0.0,0.006,0.0,0.0,0.013,0.1058,-0.2884,0.586,0.0506,0.227,-0.2224,0.2608,-1.0738,1.445,0.0782,0.2362,-0.293,0.2684,-1.0385,1.4205,0.3206,0.1703,-0.1028,0.029,0.2633,-0.2949,0.1576,0.1053,-0.1631,-0.0356,0.1141,0.3066,-0.1266,0.0794,-0.0982,0.0353,0.0184,0.3148,0.0133,0.0026,0.1795,-0.0047,-0.0554,0.0048,0.0017,-0.0255,0.1803,0.2502,-0.467,0.1411,0.7041,-0.9213,0.4189,-0.6287,0.4051,0.0646,0.721,-0.9653,0.441,-0.6135,0.413,0.5274,0.636,-0.794,0.0,0.0,0.0,0.0,0.0,0.0,0.0,0.0,0.0,
2.56,run,-0.96,3.53,0.37,-0.05,-0.12,0.0,0.0,0.0,0.117,6.5,-13.45,30.94,4.13,13.62,-13.27,14.77,-59.85,86.04,2.29,14.68,-17.05,15.29,-58.71,84.2,18.37,10.2,-3.69,6.55,-8.35,25.06,6.36,14.35,-13.8,14.04,-57.77,94.95,1.15,15.02,-17.29,15.51,-58.26,91.4,18.38,9.63,-0.38,0.1871,0.3028,-0.5116,0.1816,0.7155,-0.9271,0.4011,-0.5959,0.4076,0.0329,0.7277,-0.9681,0.4431,-0.6046,0.4179,0.5252,0.6296,-0.7692,0.006,0.006,0.006,0.019,0.0,0.006,0.0,0.006,0.033,0.013,0.0,0.013,0.006,0.0,0.006,0.0,0.0,0.013,0.1058,-0.2669,0.563,0.0644,0.2332,-0.2301,0.2577,-1.06,1.4696,0.0614,0.2424,-0.2991,0.2684,-1.0324,1.445,0.3206,0.1703,-0.0859,0.0203,0.2656,-0.2935,0.1626,0.0969,-0.1432,-0.0365,0.1322,0.3075,-0.1525,0.0788,-0.092,0.0247,0.0361,0.3133,0.0093,0.0018,0.1895,-0.0085,-0.0528,-0.0092,0.0009,-0.0127,0.1842,0.2775,-0.4899,0.162,0.7097,-0.9256,0.4094,-0.6144,0.4061,0.0484,0.7241,-0.9674,0.4427,-0.6123,0.4154,0.5266,0.633,-0.7836,0.0,0.0,0.0,0.0,0.0,0.0,0.0,0.0,0.0,
2.6,run,-0.95,3.52,-0.35,-0.1,-1.26,0.0,0.0,0.0,0.117,6.42,-12.04,29.53,4.92,13.97,-13.8,14.41,-58.97,87.45,1.85,14.94,-17.23,15.29,-58.54,85.61,18.37,10.02,-2.64,6.63,-7.05,23.56,7.05,14.55,-13.95,13.73,-56.68,96.45,0.73,15.13,-17.42,15.51,-57.83,92.9,18.31,9.3,0.58,0.1893,0.3264,-0.5358,0.2013,0.7191,-0.9288,0.3924,-0.5761,0.4056,0.0208,0.7297,-0.9697,0.4431,-0.597,0.4204,0.5231,0.6236,-0.7579,0.006,0.006,0.019,0.013,0.006,0.0,0.006,0.0,0.019,0.006,0.0,0.006,0.006,0.006,0.006,0.0,0.013,0.013,0.112,-0.2439,0.5369,0.0767,0.2393,-0.2347,0.2546,-1.0462,1.4941,0.0537,0.2454,-0.3022,0.2684,-1.0278,1.4696,0.3206,0.1687,-0.069,0.0371,0.2716,-0.3026,0.1595,0.0907,-0.1174,-0.037,0.1439,0.3067,-0.1353,0.0666,-0.0758,0.0173,0.0424,0.3107,0.0065,-0.0044,0.1955,-0.0052,-0.0541,0.0065,-0.0009,-0.0021,0.1871,0.3028,-0.5116,0.1816,0.7155,-0.9271,0.4011,-0.5959,0.4076,0.0329,0.7277,-0.9681,0.4431,-0.6046,0.4179,0.5252,0.6296,-0.7692,0.0,0.0,0.0,0.0,0.0,0.0,0.0,0.0,0.0,
2.64,run,-0.94,3.53,0.3,0.22,-0.29,0.0,0.0,0.0,0.117,6.42,-10.72,28.12,5.62,14.33,-13.8,14.06,-58.1,88.86,0.88,14.94,-17.31,15.29,-58.1,87.01,18.37,9.84,-1.58,6.72,-5.8,22.06,7.64,14.72,-14.1,13.43,-55.81,97.95,0.33,15.15,-17.47,15.52,-57.65,94.4,18.21,9.02,1.43,0.1919,0.3492,-0.5556,0.2184,0.7222,-0.9306,0.3837,-0.5601,0.4064,0.0093,0.7301,-0.9703,0.4433,-0.5936,0.4206,0.5204,0.6185,-0.7478,0.006,0.006,0.019,0.013,0.006,0.0,0.006,0.0,0.019,0.006,0.0,0.006,0.006,0.006,0.006,0.0,0.013,0.013,0.1104,-0.2194,0.5123,0.0905,0.2454,-0.2439,0.2485,-1.0308,1.5186,0.046,0.25,-0.3053,0.2684,-1.0247,1.4941,0.3206,0.1657,-0.0506,0.0202,0.2822,-0.3039,0.1634,0.0865,-0.1167,-0.0489,0.1583,0.3067,-0.1235,0.0639,-0.0646,0.0121,0.0412,0.3096,0.0045,-0.0146,0.2059,-0.004,-0.0549,-0.0061,-0.0018,-0.0221,0.1893,0.3264,-0.5358,0.2013,0.7191,-0.9288,0.3924,-0.5761,0.4056,0.0208,0.7297,-0.9697,0.4431,-0.597,0.4204,0.5231,0.6236,-0.7579,0.0,0.0,0.0,0.0,0.0,0.0,0.0,0.0,0.0,
2.68,run,-0.93,3.55,-0.02,-0.0,0.16,0.0,0.0,0.0,0.117,6.5,-9.05,26.46,6.5,14.5,-13.97,13.8,-56.95,90.53,0.7,15.03,-17.31,15.29,-57.83,88.68,18.28,9.58,-0.53,6.76,-4.62,20.56,8.24,14.84,-14.07,13.12,-54.75,99.24,-0.03,15.17,-17.41,15.51,-57.27,95.9,18.11,8.73,2.31,0.1933,0.3705,-0.5766,0.2354,0.7244,-0.9302,0.3747,-0.5409,0.4028,-0.0007,0.7304,-0.9696,0.4432,-0.5868,0.4204,0.5175,0.6133,-0.7376,0.006,0.006,0.019,0.013,0.006,0.0,0.006,0.0,0.019,0.006,0.0,0.006,0.006,0.006,0.006,0.0,0.013,0.013,0.1104,-0.1963,0.4878,0.1028,0.2516,-0.2439,0.2424,-1.0155,1.5432,0.0291,0.25,-0.3068,0.2684,-1.017,1.5186,0.3206,0.1626,-0.0322,0.0141,0.2837,-0.3047,0.1604,0.0835,-0.0817,-0.0572,0.1683,0.3067,-0.1497,0.0447,-0.051,0.0085,0.0576,0.3086,0.0032,-0.0217,0.2131,-0.0029,-0.0537,0.0052,0.0038,-0.005,0.1919,0.3492,-0.5556,0.2184,0.7222,-0.9306,0.3837,-0.5601,0.4064,0.0093,0.7301,-0.9703,0.4433,-0.5936,0.4206,0.5204,0.6185,-0.7478,0.0,0.0,0.0,0.0,0.0,0.0,0.0,0.0,0.0,
2.72,run,-0.93,3.53,-0.27,-0.39,-1.13,0.0,0.0,0.0,0.117,6.77,-8.0,25.22,7.03,14.68,-13.89,13.45,-56.25,91.76,0.26,15.12,-17.23,15.29,-57.57,89.91,18.02,9.4,0.35,6.8,-3.47,19.06,8.82,14.86,-14.1,12.77,-53.65,99.08,-0.33,15.04,-17.25,15.47,-56.96,97.4,17.93,8.22,3.1,0.1943,0.3914,-0.5974,0.252,0.7248,-0.9306,0.3648,-0.521,0.4009,-0.0095,0.728,-0.9677,0.442,-0.581,0.42,0.5122,0.6039,-0.7283,0.006,0.0,0.019,0.013,0.0,0.006,0.006,0.006,0.026,0.006,0.0,0.0,0.006,0.0,0.006,0.0,0.019,0.006,0.112,-0.1672,0.4587,0.1181,0.2546,-0.247,0.2378,-0.9956,1.5723,0.0261,0.2516,-0.3068,0.2684,-1.0124,1.5478,0.3191,0.158,-0.0138,0.0149,0.2933,-0.308,0.1621,0.0684,-0.0671,-0.055,0.1826,0.3094,-0.1147,0.0363,-0.0357,0.0059,0.0553,0.3108,-0.0028,-0.0302,0.209,-0.0021,-0.0524,-0.0004,-0.0001,0.0028,0.1933,0.3705,-0.5766,0.2354,0.7244,-0.9302,0.3747,-0.5409,0.4028,-0.0007,0.7304,-0.9696,0.4432,-0.5868,0.4204,0.5175,0.6133,-0.7376,0.0,0.0,0.0,0.0,0.0,0.0,0.0,0.0,0.0,
2.76,run,-0.87,3.55,0.57,0.55,-0.07,0.0,0.0,0.0,0.117,6.68,-6.42,23.55,7.82,14.77,-13.89,13.1,-55.02,93.34,-0.18,15.12,-17.14,15.29,-57.13,91.58,17.93,9.05,1.49,6.78,-2.68,17.56,9.24,14.74,-14.04,12.52,-52.89,98.86,-0.49,14.84,-17.15,15.47,-56.77,98.9,17.82,7.78,3.62,0.1938,0.4057,-0.6118,0.2639,0.7226,-0.9299,0.3576,-0.5071,0.3984,-0.0139,0.7243,-0.9665,0.4419,-0.5776,0.4191,0.5091,0.5959,-0.7221,0.006,0.0,0.019,0.013,0.0,0.006,0.006,0.006,0.026,0.006,0.0,0.0,0.006,0.0,0.006,0.0,0.019,0.006,0.1166,-0.1488,0.4372,0.1273,0.2577,-0.2454,0.2316,-0.9833,1.5938,0.0184,0.2531,-0.3053,0.2684,-1.0078,1.5693,0.3145,0.1549,0.0015,0.0308,0.287,-0.3109,0.1543,0.0615,-0.0402,-0.0657,0.1823,0.3119,-0.1143,0.0322,-0.0182,0.0042,0.0591,0.3128,-0.0223,-0.0347,0.2144,-0.0024,-0.0544,-0.0047,-0.0067,-0.0198,0.1943,0.3914,-0.5974,0.252,0.7248,-0.9306,0.3648,-0.521,0.4009,-0.0095,0.728,-0.9677,0.442,-0.581,0.42,0.5122,0.6039,-0.7283,0.0,0.0,0.0,0.0,0.0,0.0,0.0,0.0,0.0,
2.8,run,-0.87,3.52,-0.31,-0.29,-0.81,0.0,0.0,0.0,0.117,6.68,-5.27,22.15,8.26,14.77,-13.89,12.83,-54.14,94.83,-0.44,15.12,-17.14,15.29,-57.04,93.08,17.93,8.79,2.29,6.76,-1.78,16.06,9.7,14.65,-13.85,12.17,-51.87,98.39,-0.68,14.57,-16.75,15.43,-56.51,100.36,17.58,7.25,4.07,0.193,0.4222,-0.6297,0.2771,0.7208,-0.9277,0.3476,-0.4886,0.3928,-0.0195,0.7194,-0.9617,0.4408,-0.5729,0.416,0.5021,0.5864,-0.7168,0.006,0.0,0.019,0.013,0.0,0.006,0.006,0.006,0.026,0.006,0.0,0.0,0.006,0.0,0.006,0.0,0.019,0.006,0.115,-0.1212,0.408,0.1411,0.2592,-0.2454,0.2255,-0.9618,1.6214,0.0107,0.2531,-0.3037,0.2684,-1.0002,1.5984,0.3129,0.1488,0.0215,0.0168,0.2865,-0.308,0.1508,0.0478,-0.0281,-0.065,0.1942,0.3039,-0.1038,0.0225,-0.008,0.0029,0.0652,0.3093,-0.0204,-0.0433,0.2119,0.0028,-0.0524,0.01,0.0095,-0.0012,0.1938,0.4057,-0.6118,0.2639,0.7226,-0.9299,0.3576,-0.5071,0.3984,-0.0139,0.7243,-0.9665,0.4419,-0.5776,0.4191,0.5091,0.5959,-0.7221,0.0,0.0,0.0,0.0,0.0,0.0,0.0,0.0,0.0,
2.84,run,-0.84,3.54,0.46,0.36,-0.82,0.0,0.0,0.0,0.117,6.68,-4.13,20.74,8.79,14.77,-13.71,12.57,-53.26,96.06,-0.62,15.12,-16.96,15.29,-56.69,94.48,17.67,8.35,2.99,6.72,-0.98,14.56,10.11,14.48,-13.86,11.95,-51.13,98.14,-0.85,14.34,-16.48,15.41,-56.41,100.17,17.38,6.72,4.55,0.192,0.4367,-0.6432,0.2887,0.7179,-0.9278,0.3414,-0.4751,0.3899,-0.0244,0.7153,-0.9586,0.4404,-0.5711,0.4138,0.4965,0.5767,-0.7112,0.0,0.006,0.019,0.006,0.006,0.006,0.006,0.006,0.013,0.013,0.013,0.0,0.006,0.006,0.006,0.013,0.019,0.006,0.115,-0.1012,0.3835,0.1488,0.2592,-0.2454,0.2209,-0.9465,1.6475,0.0061,0.2531,-0.3037,0.2684,-0.9986,1.6245,0.3129,0.1442,0.0353,0.0118,0.2746,-0.3067,0.134,0.0335,-0.0197,-0.0626,0.1928,0.3095,-0.0898,0.0158,-0.0056,0.002,0.0513,0.3133,-0.0143,-0.0474,0.1995,0.0027,-0.0551,-0.0055,-0.0051,-0.0141,0.193,0.4222,-0.6297,0.2771,0.7208,-0.9277,0.3476,-0.4886,0.3928,-0.0195,0.7194,-0.9617,0.4408,-0.5729,0.416,0.5021,0.5864,-0.7168,0.0,0.0,0.0,0.0,0.0,0.0,0.0,0.0,0.0,
2.88,run,-0.85,3.54,-0.31,-0.29,0.42,0.0,0.0,0.0,0.117,6.68,-3.08,19.25,9.32,14.77,-13.71,12.22,-52.29,97.03,-0.79,15.12,-16.61,15.29,-56.6,95.89,17.23,7.82,3.69,6.64,-0.47,13.06,10.38,14.26,-13.82,11.69,-50.43,97.66,-0.9,13.98,-16.12,15.4,-56.29,99.91,17.17,6.15,4.67,0.1897,0.4459,-0.655,0.2965,0.7139,-0.9273,0.3341,-0.4623,0.3842,-0.0258,0.7088,-0.9544,0.44,-0.569,0.4107,0.4906,0.5663,-0.7098,0.0,0.006,0.019,0.006,0.006,0.006,0.006,0.006,0.013,0.013,0.013,0.0,0.006,0.006,0.006,0.013,0.019,0.006,0.115,-0.0813,0.359,0.158,0.2592,-0.2424,0.2163,-0.9311,1.669,0.0031,0.2531,-0.3007,0.2684,-0.9925,1.649,0.3083,0.1365,0.0476,0.0082,0.267,-0.3068,0.1284,0.0234,-0.0023,-0.0611,0.1926,0.2972,-0.0743,0.011,0.0076,0.0014,0.0589,0.3114,-0.0273,-0.062,0.1857,0.0053,-0.0529,0.008,0.0063,-0.0143,0.192,0.4367,-0.6432,0.2887,0.7179,-0.9278,0.3414,-0.4751,0.3899,-0.0244,0.7153,-0.9586,0.4404,-0.5711,0.4138,0.4965,0.5767,-0.7112,0.0,0.0,0.0,0.0,0.0,0.0,0.0,0.0,0.0,
2.92,run,-0.83,3.55,0.32,0.29,-0.62,0.0,0.0,0.0,0.117,6.68,-2.02,17.84,9.67,14.77,-13.8,12.04,-51.5,97.82,-0.79,14.85,-16.52,15.29,-56.51,97.29,17.23,7.38,4.13,6.57,0.04,11.56,10.66,14.01,-13.71,11.48,-49.66,97.35,-0.95,13.6,-15.7,15.36,-56.13,99.68,16.92,5.49,5.02,0.1876,0.4552,-0.6659,0.3047,0.7094,-0.926,0.3281,-0.4483,0.3806,-0.0272,0.7018,-0.9494,0.4389,-0.5659,0.408,0.4836,0.5544,-0.7057,0.0,0.006,0.019,0.006,0.006,0.006,0.006,0.006,0.013,0.013,0.013,0.0,0.006,0.006,0.006,0.013,0.019,0.006,0.115,-0.0629,0.3329,0.1672,0.2592,-0.2424,0.2102,-0.9143,1.6858,0.0,0.2531,-0.2945,0.2684,-0.991,1.6736,0.3007,0.1273,0.0598,0.0058,0.2557,-0.3122,0.1242,0.0164,-0.0016,-0.0657,0.1978,0.2711,-0.0635,0.0077,0.0283,0.001,0.047,0.3097,-0.0477,-0.0778,0.1759,0.0043,-0.0532,-0.0055,-0.005,0.0074,0.1897,0.4459,-0.655,0.2965,0.7139,-0.9273,0.3341,-0.4623,0.3842,-0.0258,0.7088,-0.9544,0.44,-0.569,0.4107,0.4906,0.5663,-0.7098,0.0,0.0,0.0,0.0,0.0,0.0,0.0,0.0,0.0,
2.96,run,-0.82,3.55,-0.04,-0.06,0.03,0.0,0.0,0.0,0.117,6.59,-1.23,16.52,10.11,14.77,-13.71,11.78,-50.71,98.17,-0.97,14.5,-15.91,15.29,-56.25,98.44,17.23,6.77,4.57,6.46,0.5,10.06,10.87,13.73,-13.77,11.28,-49.13,96.79,-0.97,13.23,-15.32,15.37,-56.15,99.28,16.7,4.91,4.98,0.1847,0.4637,-0.6749,0.3105,0.7042,-0.9267,0.3222,-0.4387,0.374,-0.0278,0.695,-0.945,0.4392,-0.5663,0.4033,0.4772,0.5439,-0.7061,0.006,0.0,0.013,0.006,0.019,0.0,0.0,0.006,0.006,0.0,0.026,0.006,0.0,0.0,0.006,0.006,0.033,0.0,0.115,-0.0445,0.3083,0.1733,0.2592,-0.2439,0.2071,-0.9004,1.6997,0.0,0.2485,-0.293,0.2684,-0.9894,1.6981,0.3007,0.1197,0.0675,0.004,0.2484,-0.311,0.1101,0.0115,-0.0069,-0.0575,0.1905,0.2418,-0.0444,-0.0119,0.0256,0.0007,0.0387,0.3093,-0.0334,-0.0834,0.152,0.0064,-0.0523,0.0056,0.005,-0.0109,0.1876,0.4552,-0.6659,0.3047,0.7094,-0.926,0.3281,-0.4483,0.3806,-0.0272,0.7018,-0.9494,0.4389,-0.5659,0.408,0.4836,0.5544,-0.7057,0.0,0.0,0.0,0.0,0.0,0.0,0.0,0.0,0.0,
3.0,run,-0.85,3.54,-0.82,-0.18,1.01,0.0,0.0,0.0,0.117,6.5,-0.44,15.03,10.28,14.33,-13.71,11.51,-49.92,98.17,-0.97,14.15,-15.56,15.29,-56.34,99.14,16.61,6.15,4.83,6.35,0.82,8.56,11.08,13.4,-13.67,11.12,-48.53,96.21,-1.01,12.9,-14.99,15.41,-56.02,98.86,16.49,4.33,5.07,0.1816,0.4694,-0.6838,0.3165,0.6982,-0.9255,0.3176,-0.4277,0.3671,-0.029,0.689,-0.9411,0.4403,-0.564,0.3984,0.4711,0.5332,-0.705,0.006,0.0,0.013,0.006,0.019,0.0,0.0,0.006,0.006,0.0,0.026,0.006,0.0,0.0,0.006,0.006,0.033,0.0,0.1135,-0.0307,0.2853,0.181,0.2592,-0.2424,0.2025,-0.8866,1.7058,-0.0031,0.2424,-0.2823,0.2684,-0.9848,1.7181,0.3007,0.1089,0.0752,-0.0029,0.2256,-0.304,0.1058,0.008,0.0009,-0.0575,0.1851,0.1923,-0.0426,-0.0314,0.0581,0.0005,0.0443,0.2913,-0.0234,-0.0986,0.1352,0.007,-0.0526,-0.0007,-0.001,0.0004,0.1847,0.4637,-0.6749,0.3105,0.7042,-0.9267,0.3222,-0.4387,0.374,-0.0278,0.695,-0.945,0.4392,-0.5663,0.4033,0.4772,0.5439,-0.7061,0.0,0.0,0.0,0.0,0.0,0.0,0.0,0.0,0.0,
3.04,run,-0.84,3.55,0.28,-0.05,-1.14,0.0,0.0,0.0,0.117,6.5,0.18,13.62,10.63,14.15,-13.71,11.34,-49.31,98.0,-0.97,13.8,-15.29,15.29,-56.16,99.76,16.52,5.62,4.92,6.27,1.1,7.06,11.18,13.11,-13.68,11.02,-47.86,95.88,-0.96,12.56,-14.5,15.38,-55.83,98.59,16.3,3.76,5.46,0.1791,0.4745,-0.6887,0.3195,0.6928,-0.9256,0.3149,-0.4157,0.3633,-0.0275,0.6828,-0.9353,0.4396,-0.5605,0.3952,0.4656,0.5229,-0.7005,0.006,0.0,0.013,0.006,0.019,0.0,0.0,0.006,0.006,0.0,0.026,0.006,0.0,0.0,0.006,0.006,0.033,0.0,0.112,-0.0169,0.2592,0.1841,0.2516,-0.2424,0.1979,-0.8728,1.7058,-0.0031,0.2362,-0.2761,0.2684,-0.9863,1.7303,0.2899,0.0982,0.0798,-0.0078,0.2097,-0.3105,0.0856,-0.0231,0.0006,-0.0575,0.1813,0.1346,-0.0298,-0.0449,0.0637,0.0003,0.0253,0.2499,-0.0566,-0.1092,0.1119,0.0048,-0.0532,-0.0142,-0.0031,0.0176,0.1816,0.4694,-0.6838,0.3165,0.6982,-0.9255,0.3176,-0.4277,0.3671,-0.029,0.689,-0.9411,0.4403,-0.564,0.3984,0.4711,0.5332,-0.705,0.0,0.0,0.0,0.0,0.0,0.0,0.0,0.0,0.0,
3.08,run,-0.84,3.54,-0.36,0.0,0.18,0.0,0.0,0.0,0.117,6.24,0.62,12.13,10.72,13.8,-13.71,11.25,-48.6,97.47,-0.97,13.45,-14.85,15.29,-55.99,99.67,16.52,5.01,5.1,6.13,1.23,6.1,11.22,12.77,-13.79,10.89,-47.63,95.21,-0.92,12.23,-14.29,15.44,-55.9,98.09,16.17,3.28,5.24,0.175,0.4768,-0.693,0.3206,0.6867,-0.9269,0.3111,-0.4114,0.3554,-0.0263,0.6769,-0.9329,0.4412,-0.5618,0.3893,0.4619,0.5142,-0.703,0.0,0.0,0.019,0.006,0.013,0.0,0.006,0.006,0.006,0.0,0.019,0.0,0.006,0.0,0.006,0.006,0.019,0.0,0.112,-0.0061,0.2347,0.1902,0.2485,-0.2424,0.1948,-0.8621,1.7027,-0.0031,0.2301,-0.2715,0.2684,-0.9833,1.7411,0.2884,0.089,0.0813,-0.0055,0.1871,-0.3095,0.0829,-0.0277,0.0005,-0.0518,0.1672,0.0827,-0.0209,-0.0545,0.0619,0.0002,0.0292,0.2152,-0.0454,-0.111,0.0841,0.0061,-0.0526,0.0049,-0.0009,-0.0199,0.1791,0.4745,-0.6887,0.3195,0.6928,-0.9256,0.3149,-0.4157,0.3633,-0.0275,0.6828,-0.9353,0.4396,-0.5605,0.3952,0.4656,0.5229,-0.7005,0.0,0.0,0.0,0.0,0.0,0.0,0.0,0.0,0.0,
3.12,run,-0.8,3.54,0.1,-0.04,0.24,0.0,0.0,0.0,0.117,6.33,0.97,10.81,10.81,13.45,-13.71,11.07,-48.08,97.03,-0.97,13.1,-14.41,15.29,-56.07,99.58,16.08,4.39,5.19,6.05,1.28,5.79,11.27,12.48,-13.59,10.81,-47.13,94.64,-0.94,12.05,-13.98,15.45,-55.66,97.61,15.98,2.87,5.42,0.1729,0.4777,-0.6966,0.3221,0.6815,-0.9246,0.3089,-0.4024,0.3487,-0.0267,0.6736,-0.9291,0.4415,-0.5575,0.3837,0.4565,0.5067,-0.7009,0.0,0.0,0.019,0.006,0.013,0.0,0.006,0.006,0.006,0.0,0.019,0.0,0.006,0.0,0.006,0.006,0.019,0.0,0.1074,0.0015,0.2086,0.1917,0.2424,-0.2424,0.1933,-0.8498,1.6935,-0.0031,0.224,-0.2638,0.2684,-0.9802,1.7395,0.2884,0.0782,0.0844,-0.021,0.1596,-0.3139,0.0638,-0.0423,0.0003,-0.042,0.1628,0.0236,-0.0146,-0.061,0.0719,0.0002,0.0319,0.1449,-0.0318,-0.1178,0.0703,0.0058,-0.0529,-0.0063,0.0001,0.0031,0.175,0.4768,-0.693,0.3206,0.6867,-0.9269,0.3111,-0.4114,0.3554,-0.0263,0.6769,-0.9329,0.4412,-0.5618,0.3893,0.4619,0.5142,-0.703,0.0,0.0,0.0,0.0,0.0,0.0,0.0,0.0,0.0,
3.16,run,-0.79,3.53,-0.06,-0.15,-1.04,0.0,0.0,0.0,0.117,6.06,1.14,9.4,10.9,13.27,-13.71,11.07,-47.64,96.33,-0.97,12.83,-14.33,15.29,-55.99,98.79,16.0,3.87,5.19,5.96,1.26,5.59,11.25,12.16,-13.58,10.75,-46.78,94.05,-0.85,11.78,-13.78,15.45,-55.48,97.24,15.89,2.47,5.48,0.1703,0.4774,-0.6989,0.3216,0.6756,-0.9245,0.3071,-0.396,0.3417,-0.0242,0.6687,-0.9268,0.4414,-0.5542,0.3793,0.454,0.4994,-0.7002,0.0,0.0,0.019,0.006,0.013,0.0,0.006,0.006,0.006,0.0,0.019,0.0,0.006,0.0,0.006,0.006,0.019,0.0,0.1089,0.0077,0.1856,0.1933,0.2362,-0.2424,0.1902,-0.8406,1.6858,-0.0031,0.2178,-0.2562,0.2684,-0.9817,1.738,0.2807,0.0675,0.0859,-0.0089,0.1348,-0.3065,0.0504,-0.0527,0.0002,-0.0409,0.1487,-0.0124,-0.0102,-0.0659,0.0793,0.0001,0.0165,0.0957,-0.0512,-0.1229,0.055,0.0093,-0.0527,0.0017,-0.0007,0.0042,0.1729,0.4777,-0.6966,0.3221,0.6815,-0.9246,0.3089,-0.4024,0.3487,-0.0267,0.6736,-0.9291,0.4415,-0.5575,0.3837,0.4565,0.5067,-0.7009,0.0,0.0,0.0,0.0,0.0,0.0,0.0,0.0,0.0,
3.2,run,-0.81,3.52,-0.71,-0.11,1.18,0.0,0.0,0.0,0.117,5.71,1.14,8.09,10.99,12.83,-13.71,10.9,-47.11,95.45,-0.97,12.57,-13.89,15.29,-55.55,97.91,16.0,3.43,5.19,5.87,1.18,5.61,11.19,11.91,-13.6,10.71,-46.65,93.39,-0.84,11.7,-13.67,15.49,-55.39,96.67,15.83,2.25,5.48,0.1678,0.476,-0.6987,0.3196,0.6711,-0.9247,0.306,-0.3936,0.334,-0.024,0.6672,-0.9255,0.4425,-0.5525,0.3726,0.4522,0.4954,-0.7002,0.0,0.0,0.013,0.0,0.013,0.0,0.0,0.006,0.013,0.0,0.019,0.0,0.006,0.006,0.006,0.006,0.019,0.0,0.1043,0.0107,0.1611,0.1948,0.2332,-0.2424,0.1902,-0.833,1.6736,-0.0031,0.2132,-0.2546,0.2684,-0.9802,1.7242,0.2792,0.0583,0.0859,-0.0235,0.1059,-0.3064,0.041,-0.0484,0.0002,-0.0287,0.1328,-0.0546,-0.0072,-0.0633,0.0612,0.0001,0.0173,0.0153,-0.0416,-0.1205,0.0385,0.01,-0.0543,-0.0011,-0.0026,-0.0181,0.1703,0.4774,-0.6989,0.3216,0.6756,-0.9245,0.3071,-0.396,0.3417,-0.0242,0.6687,-0.9268,0.4414,-0.5542,0.3793,0.454,0.4994,-0.7002,0.0,0.0,0.0,0.0,0.0,0.0,0.0,0.0,0.0,
3.24,run,-0.78,3.5,0.06,-0.42,-0.98,0.0,0.0,0.0,0.117,6.15,1.14,6.94,10.99,12.48,-13.71,10.9,-46.76,94.66,-0.97,12.48,-13.71,15.29,-55.46,97.12,15.82,2.99,5.19,5.83,0.99,5.59,11.16,11.76,-13.25,10.7,-46.35,92.97,-0.85,11.65,-13.52,15.49,-55.13,96.21,15.7,2.08,5.52,0.1664,0.4725,-0.6989,0.3189,0.6683,-0.9206,0.3056,-0.3882,0.3291,-0.0241,0.6664,-0.9237,0.4427,-0.5478,0.3672,0.4485,0.4924,-0.6997,0.0,0.0,0.013,0.0,0.013,0.0,0.0,0.006,0.013,0.0,0.019,0.0,0.006,0.006,0.006,0.006,0.019,0.0,0.0982,0.0107,0.1381,0.1963,0.2255,-0.2424,0.1871,-0.8237,1.6582,-0.0031,0.2086,-0.247,0.2684,-0.9725,1.7089,0.2792,0.0506,0.0859,-0.0395,0.0741,-0.3009,0.0345,-0.0627,0.0001,-0.0316,0.1275,-0.0959,-0.005,-0.0616,0.0717,0.0001,0.0409,-0.0469,-0.0291,-0.1132,0.0269,0.0078,-0.0545,-0.0124,-0.0019,0.0206,0.1678,0.476,-0.6987,0.3196,0.6711,-0.9247,0.306,-0.3936,0.334,-0.024,0.6672,-0.9255,0.4425,-0.5525,0.3726,0.4522,0.4954,-0.7002,0.0,0.0,0.0,0.0,0.0,0.0,0.0,0.0,0.0,
3.28,run,-0.77,3.51,0.07,0.26,0.45,0.0,0.0,0.0,0.117,5.54,1.14,6.33,10.99,12.3,-13.62,10.81,-46.76,94.13,-0.97,12.39,-13.71,15.29,-55.55,96.68,15.82,2.81,5.19,5.73,0.85,5.59,11.07,11.5,-13.21,10.65,-46.34,92.4,-0.76,11.54,-13.57,15.52,-54.99,95.75,15.72,1.91,5.45,0.1639,0.47,-0.6989,0.3163,0.6635,-0.9202,0.3044,-0.388,0.3224,-0.0219,0.6644,-0.9244,0.4434,-0.5452,0.3618,0.4491,0.4893,-0.7005,0.0,0.0,0.013,0.0,0.013,0.0,0.0,0.006,0.013,0.0,0.019,0.0,0.006,0.006,0.006,0.006,0.019,0.0,0.1058,0.0107,0.1181,0.1963,0.2194,-0.2424,0.1871,-0.8176,1.6444,-0.0031,0.2071,-0.2439,0.2684,-0.971,1.695,0.2761,0.043,0.0859,-0.0036,0.0519,-0.2731,0.0241,-0.0631,0.0001,-0.0221,0.1085,-0.1103,-0.0035,-0.0479,0.0598,0.0,0.0335,-0.0761,-0.03,-0.1032,0.0189,0.0105,-0.0567,0.0011,-0.0074,-0.0171,0.1664,0.4725,-0.6989,0.3189,0.6683,-0.9206,0.3056,-0.3882,0.3291,-0.0241,0.6664,-0.9237,0.4427,-0.5478,0.3672,0.4485,0.4924,-0.6997,0.0,0.0,0.0,0.0,0.0,0.0,0.0,0.0,0.0,
3.32,run,-0.75,3.53,0.62,0.25,-0.57,0.0,0.0,0.0,0.117,5.62,1.14,5.98,10.99,12.13,-13.54,10.81,-46.41,93.6,-0.97,12.22,-13.54,15.29,-55.2,96.06,15.82,2.64,5.19,5.72,0.76,5.61,11.06,11.43,-13.1,10.67,-46.27,91.97,-0.8,11.52,-13.42,15.5,-54.91,95.26,15.62,1.87,5.41,0.1633,0.4684,-0.6987,0.3161,0.6624,-0.9189,0.3047,-0.3867,0.3173,-0.023,0.6639,-0.9226,0.4428,-0.5439,0.356,0.4464,0.4885,-0.7011,0.0,0.006,0.0,0.0,0.013,0.006,0.0,0.006,0.019,0.006,0.013,0.0,0.0,0.006,0.006,0.006,0.026,0.0,0.0951,0.0107,0.1074,0.1963,0.2163,-0.2408,0.1856,-0.8176,1.6352,-0.0031,0.2056,-0.2439,0.2684,-0.9725,1.6874,0.2761,0.0399,0.0859,-0.0425,0.0363,-0.2311,0.0169,-0.0556,0.0058,-0.0212,0.0759,-0.1114,-0.0025,-0.0393,0.0418,0.0,0.0177,-0.0818,-0.021,-0.0837,0.0132,0.0114,-0.0561,0.0012,0.0045,0.0079,0.1639,0.47,-0.6989,0.3163,0.6635,-0.9202,0.3044,-0.388,0.3224,-0.0219,0.6644,-0.9244,0.4434,-0.5452,0.3618,0.4491,0.4893,-0.7005,0.0,0.0,0.0,0.0,0.0,0.0,0.0,0.0,0.0,
3.36,run,-0.73,3.5,0.05,-0.13,-1.35,0.0,0.0,0.0,0.117,5.98,1.14,5.8,10.99,11.95,-13.1,10.81,-46.32,92.9,-0.88,12.22,-13.54,15.29,-55.11,95.54,15.73,2.64,5.19,5.69,0.65,5.61,11.01,11.27,-12.99,10.63,-46.32,91.59,-0.78,11.44,-13.46,15.53,-54.87,94.96,15.65,1.85,5.26,0.1625,0.4664,-0.6987,0.3147,0.6594,-0.9175,0.3036,-0.3877,0.3128,-0.0224,0.6626,-0.923,0.4438,-0.543,0.3525,0.4471,0.4881,-0.7028,0.0,0.006,0.0,0.0,0.013,0.006,0.0,0.006,0.019,0.006,0.013,0.0,0.0,0.006,0.006,0.006,0.026,0.0,0.0966,0.0107,0.1012,0.1963,0.2132,-0.2393,0.1856,-0.8115,1.626,-0.0031,0.2025,-0.2408,0.2684,-0.9664,1.6766,0.2761,0.0368,0.0859,-0.024,0.0254,-0.1848,0.0118,-0.0504,0.0098,-0.0148,0.0762,-0.1125,-0.0017,-0.039,0.0408,0.0,0.0354,-0.0975,-0.0147,-0.0701,0.0092,0.0138,-0.0538,0.0108,0.0043,-0.0099,0.1633,0.4684,-0.6987,0.3161,0.6624,-0.9189,0.3047,-0.3867,0.3173,-0.023,0.6639,-0.9226,0.4428,-0.5439,0.356,0.4464,0.4885,-0.7011,0.0,0.0,0.0,0.0,0.0,0.0,0.0,0.0,0.0,
3.4,run,-0.73,3.51,-0.2,0.25,1.32,0.0,0.0,0.0,0.117,5.36,1.14,5.8,10.99,11.87,-13.1,10.81,-46.41,92.46,-0.88,12.22,-13.54,15.29,-55.11,95.1,15.73,2.64,5.19,5.62,0.55,5.64,10.99,11.02,-12.82,10.61,-46.3,91.2,-0.75,11.35,-13.4,15.55,-54.67,94.7,15.68,1.72,5.3,0.1605,0.4645,-0.6983,0.3141,0.6549,-0.9155,0.3032,-0.3873,0.3082,-0.0215,0.6609,-0.9223,0.4443,-0.5394,0.3494,0.4479,0.4858,-0.7023,0.0,0.006,0.0,0.0,0.013,0.006,0.0,0.006,0.019,0.006,0.013,0.0,0.0,0.006,0.006,0.006,0.026,0.0,0.1028,0.0107,0.0982,0.1963,0.2102,-0.2316,0.1856,-0.8099,1.6137,-0.0015,0.2025,-0.2408,0.2684,-0.9649,1.6674,0.2746,0.0368,0.0859,0.0062,0.0178,-0.1408,0.0083,-0.0468,0.0356,-0.0104,0.0591,-0.1247,0.0045,-0.0273,0.0286,0.0,0.0305,-0.1027,-0.016,-0.049,0.0065,0.0153,-0.0565,0.0009,-0.0023,-0.0235,0.1625,0.4664,-0.6987,0.3147,0.6594,-0.9175,0.3036,-0.3877,0.3128,-0.0224,0.6626,-0.923,0.4438,-0.543,0.3525,0.4471,0.4881,-0.7028,0.0,0.0,0.0,0.0,0.0,0.0,0.0,0.0,0.0,
3.44,run,-0.69,3.5,0.09,-0.32,-1.21,0.0,0.0,0.0,0.117,5.8,1.14,5.8,10.99,11.78,-12.92,10.81,-46.41,92.02,-0.88,12.22,-13.45,15.29,-54.84,94.75,15.73,2.46,5.19,5.65,0.47,5.63,11.01,11.09,-12.64,10.63,-46.21,91.05,-0.81,11.39,-13.28,15.5,-54.57,94.38,15.59,1.79,5.33,0.1614,0.4632,-0.6985,0.3146,0.6563,-0.9134,0.3039,-0.3856,0.3064,-0.0232,0.6617,-0.9209,0.4428,-0.5376,0.3456,0.4454,0.4871,-0.702,0.013,0.019,0.0,0.0,0.006,0.0,0.006,0.0,0.013,0.0,0.019,0.006,0.006,0.0,0.006,0.006,0.019,0.0,0.092,0.0107,0.0982,0.1963,0.2086,-0.2316,0.1856,-0.8115,1.6061,-0.0015,0.2025,-0.2408,0.2684,-0.9649,1.6598,0.2746,0.0368,0.0859,-0.0359,0.0125,-0.0986,0.0058,-0.0385,0.0249,-0.0073,0.0356,-0.1161,0.0032,-0.0191,0.02,0.0,0.0214,-0.1007,-0.0112,-0.0343,0.0045,0.0155,-0.0555,-0.0035,0.0043,0.0231,0.1605,0.4645,-0.6983,0.3141,0.6549,-0.9155,0.3032,-0.3873,0.3082,-0.0215,0.6609,-0.9223,0.4443,-0.5394,0.3494,0.4479,0.4858,-0.7023,0.0,0.0,0.0,0.0,0.0,0.0,0.0,0.0,0.0,
3.48,run,-0.71,3.46,-0.65,-0.34,-0.12,0.0,0.0,0.0,0.117,5.8,1.14,5.8,10.99,11.6,-12.83,10.81,-46.32,91.67,-0.88,12.22,-13.36,15.29,-54.76,94.39,15.56,2.46,5.19,5.6,0.38,5.6,10.95,10.95,-12.75,10.64,-46.38,90.87,-0.76,11.37,-13.52,15.56,-54.57,94.26,15.71,1.81,5.22,0.16,0.4615,-0.6988,0.3129,0.6536,-0.9147,0.3039,-0.3887,0.3044,-0.0217,0.6613,-0.9238,0.4447,-0.5377,0.3442,0.449,0.4874,-0.7033,0.013,0.019,0.0,0.0,0.006,0.0,0.006,0.0,0.013,0.0,0.019,0.006,0.006,0.0,0.006,0.006,0.019,0.0,0.0997,0.0107,0.0982,0.1963,0.2071,-0.2286,0.1856,-0.8115,1.5984,-0.0015,0.2025,-0.2393,0.2684,-0.9603,1.6536,0.2746,0.0337,0.0859,0.0036,0.0087,-0.069,0.0041,-0.0327,0.0289,-0.0051,0.0249,-0.11,0.0022,-0.0134,0.0197,0.0,0.0322,-0.0935,-0.0079,-0.0355,0.0032,0.0183,-0.0569,0.0016,-0.0055,-0.0211,0.1614,0.4632,-0.6985,0.3146,0.6563,-0.9134,0.3039,-0.3856,0.3064,-0.0232,0.6617,-0.9209,0.4428,-0.5376,0.3456,0.4454,0.4871,-0.702,0.0,0.0,0.0,0.0,0.0,0.0,0.0,0.0,0.0,
3.52,run,-0.72,3.47,-0.43,0.1,1.43,0.0,0.0,0.0,0.117,5.27,0.97,5.8,10.99,11.6,-12.83,10.81,-46.23,91.49,-0.88,12.22,-13.36,15.29,-54.76,94.39,15.56,2.46,5.19,5.63,0.3,5.68,10.95,10.93,-12.58,10.64,-46.28,90.88,-0.75,11.37,-13.42,15.51,-54.45,94.11,15.66,1.79,5.38,0.1607,0.4601,-0.6978,0.3127,0.6533,-0.9127,0.304,-0.387,0.3044,-0.0214,0.6613,-0.9226,0.4433,-0.5355,0.3425,0.4476,0.487,-0.7015,0.013,0.019,0.0,0.0,0.006,0.0,0.006,0.0,0.013,0.0,0.019,0.006,0.006,0.0,0.006,0.006,0.019,0.0,0.0997,0.0107,0.0982,0.1963,0.204,-0.227,0.1856,-0.8099,1.5923,-0.0015,0.2025,-0.2378,0.2684,-0.9587,1.6475,0.2715,0.0337,0.0859,0.0025,0.0061,-0.0483,0.0028,-0.0344,0.026,-0.0036,0.0232,-0.1,0.0016,-0.0094,0.0196,0.0,0.0283,-0.0885,-0.017,-0.0249,0.0022,0.0166,-0.0599,-0.0113,-0.0059,-0.0021,0.16,0.4615,-0.6988,0.3129,0.6536,-0.9147,0.3039,-0.3887,0.3044,-0.0217,0.6613,-0.9238,0.4447,-0.5377,0.3442,0.449,0.4874,-0.7033,0.0,0.0,0.0,0.0,0.0,0.0,0.0,0.0,0.0,
3.56,run,-0.7,3.46,-0.05,-0.32,-1.38,0.0,0.0,0.0,0.117,5.98,0.79,5.8,10.99,11.6,-12.66,10.81,-46.23,91.41,-0.88,12.22,-13.27,15.29,-54.76,94.13,15.56,2.46,5.19,5.66,0.3,5.65,10.96,11.05,-12.53,10.65,-46.27,90.82,-0.78,11.4,-13.35,15.46,-54.52,93.97,15.59,1.83,5.27,0.1618,0.46,-0.6983,0.3133,0.6554,-0.9121,0.3042,-0.3867,0.3037,-0.0223,0.6618,-0.9218,0.4417,-0.5367,0.3408,0.4454,0.4878,-0.7027,0.013,0.006,0.0,0.0,0.013,0.006,0.006,0.0,0.013,0.0,0.019,0.0,0.006,0.013,0.006,0.0,0.013,0.0,0.0905,0.0077,0.0982,0.1963,0.204,-0.227,0.1856,-0.8084,1.5892,-0.0015,0.2025,-0.2378,0.2684,-0.9587,1.6475,0.2715,0.0337,0.0859,-0.0328,-0.0072,-0.0338,0.002,-0.0241,0.0182,-0.0025,0.022,-0.0815,0.0011,-0.0066,0.0137,0.0,0.0198,-0.0619,-0.0119,-0.0174,0.0016,0.0162,-0.059,-0.0075,0.0017,0.025,0.1607,0.4601,-0.6978,0.3127,0.6533,-0.9127,0.304,-0.387,0.3044,-0.0214,0.6613,-0.9226,0.4433,-0.5355,0.3425,0.4476,0.487,-0.7015,0.0,0.0,0.0,0.0,0.0,0.0,0.0,0.0,0.0,
3.6,run,-0.69,3.46,0.08,0.2,0.35,0.0,0.0,0.0,0.117,5.54,0.7,5.8,10.99,11.6,-12.66,10.81,-46.23,91.41,-0.88,12.22,-13.18,15.29,-54.76,94.04,15.56,2.46,5.19,5.61,0.25,5.71,10.93,10.86,-12.63,10.63,-46.42,90.64,-0.73,11.33,-13.51,15.5,-54.5,93.89,15.71,1.81,5.2,0.1602,0.459,-0.6976,0.3122,0.652,-0.9133,0.3036,-0.3895,0.3016,-0.0208,0.6606,-0.9237,0.4429,-0.5364,0.3399,0.4488,0.4875,-0.7035,0.013,0.006,0.0,0.0,0.013,0.006,0.006,0.0,0.013,0.0,0.019,0.0,0.006,0.013,0.006,0.0,0.013,0.0,0.1028,0.0046,0.0982,0.1963,0.204,-0.224,0.1856,-0.8084,1.5877,-0.0015,0.2025,-0.2362,0.2684,-0.9587,1.6429,0.2715,0.0337,0.0859,0.023,-0.0166,-0.0237,0.0014,-0.0169,0.0242,-0.0017,0.0154,-0.0628,0.0008,-0.0046,0.0153,0.0,0.0139,-0.0606,-0.0083,-0.0122,0.0011,0.0181,-0.06,-0.0008,-0.0055,-0.0241,0.1618,0.46,-0.6983,0.3133,0.6554,-0.9121,0.3042,-0.3867,0.3037,-0.0223,0.6618,-0.9218,0.4417,-0.5367,0.3408,0.4454,0.4878,-0.7027,0.0,0.0,0.0,0.0,0.0,0.0,0.0,0.0,0.0,
3.64,run,-0.72,3.49,-0.59,-0.04,1.34,0.0,0.0,0.0,0.117,5.45,0.7,5.8,10.99,11.6,-12.66,10.81,-46.23,91.32,-0.88,12.22,-13.45,15.29,-54.76,93.87,15.56,2.46,5.19,5.65,0.19,5.72,10.94,10.95,-12.53,10.64,-46.37,90.58,-0.77,11.36,-13.42,15.43,-54.51,93.7,15.62,1.84,5.18,0.1614,0.458,-0.6974,0.3126,0.6536,-0.9121,0.3039,-0.3886,0.301,-0.022,0.6611,-0.9225,0.441,-0.5366,0.3377,0.4462,0.488,-0.7038,0.013,0.006,0.0,0.0,0.013,0.006,0.006,0.0,0.013,0.0,0.019,0.0,0.006,0.013,0.006,0.0,0.013,0.0,0.0951,0.0031,0.0982,0.1963,0.204,-0.224,0.1856,-0.8084,1.5877,-0.0015,0.2025,-0.2347,0.2684,-0.9587,1.6414,0.2715,0.0337,0.0859,-0.0127,-0.0173,-0.0166,0.001,-0.0118,0.017,-0.0012,0.0108,-0.044,0.0005,-0.0032,0.0165,0.0,0.0097,-0.0482,-0.0058,-0.0085,0.0008,0.0183,-0.0602,0.0013,0.0035,0.0062,0.1602,0.459,-0.6976,0.3122,0.652,-0.9133,0.3036,-0.3895,0.3016,-0.0208,0.6606,-0.9237,0.4429,-0.5364,0.3399,0.4488,0.4875,-0.7035,0.0,0.0,0.0,0.0,0.0,0.0,0.0,0.0,0.0,
3.68,run,-0.7,3.48,0.13,-0.31,-1.66,0.0,0.0,0.0,0.117,6.06,0.7,5.8,10.99,11.6,-12.66,10.81,-46.32,91.23,-0.88,12.22,-13.45,15.29,-54.67,93.87,15.56,2.46,5.19,5.66,0.21,5.76,10.93,11.03,-12.59,10.66,-46.37,90.69,-0.77,11.42,-13.41,15.43,-54.48,93.76,15.63,1.91,5.3,0.1618,0.4584,-0.6969,0.3124,0.6551,-0.9128,0.3045,-0.3885,0.3023,-0.0221,0.6622,-0.9225,0.4408,-0.536,0.3383,0.4467,0.4893,-0.7024,0.013,0.013,0.0,0.0,0.013,0.0,0.0,0.0,0.006,0.0,0.019,0.0,0.006,0.0,0.0,0.0,0.013,0.0,0.0936,0.0031,0.0982,0.1963,0.204,-0.224,0.1856,-0.8084,1.5861,-0.0015,0.2025,-0.2393,0.2684,-0.9587,1.6383,0.2715,0.0337,0.0859,-0.0146,-0.0121,-0.0116,0.0007,-0.0083,0.0119,-0.0009,0.0075,-0.0365,0.0004,-0.0022,-0.0057,0.0,0.0068,-0.0452,-0.0041,-0.006,0.0005,0.0164,-0.0579,-0.0104,-0.0007,0.0234,0.1614,0.458,-0.6974,0.3126,0.6536,-0.9121,0.3039,-0.3886,0.301,-0.022,0.6611,-0.9225,0.441,-0.5366,0.3377,0.4462,0.488,-0.7038,0.0,0.0,0.0,0.0,0.0,0.0,0.0,0.0,0.0,
3.72,run,-0.71,3.48,-0.29,0.19,1.37,0.0,0.0,0.0,0.117,5.27,0.7,5.8,10.99,11.6,-12.66,10.81,-46.32,91.23,-0.88,12.22,-13.36,15.29,-54.58,93.96,15.56,2.37,5.19,5.62,0.18,5.78,10.89,10.91,-12.72,10.64,-46.56,90.67,-0.72,11.37,-13.61,15.49,-54.56,93.78,15.74,1.91,5.17,0.1606,0.4579,-0.6967,0.3112,0.653,-0.9143,0.3041,-0.392,0.302,-0.0204,0.6612,-0.9249,0.4425,-0.5374,0.3386,0.4498,0.4892,-0.7039,0.013,0.013,0.0,0.0,0.013,0.0,0.0,0.0,0.006,0.0,0.019,0.0,0.006,0.0,0.0,0.0,0.013,0.0,0.1043,0.0031,0.0982,0.1963,0.204,-0.224,0.1856,-0.8099,1.5846,-0.0015,0.2025,-0.2393,0.2684,-0.9572,1.6383,0.2715,0.0337,0.0859,0.0299,-0.0085,-0.0081,0.0005,-0.0058,0.0083,-0.0006,-0.0005,-0.0313,0.0003,-0.0016,-0.004,0.0,0.0105,-0.0317,-0.0029,-0.0042,0.0004,0.0182,-0.0585,0.0023,-0.0054,-0.029,0.1618,0.4584,-0.6969,0.3124,0.6551,-0.9128,0.3045,-0.3885,0.3023,-0.0221,0.6622,-0.9225,0.4408,-0.536,0.3383,0.4467,0.4893,-0.7024,0.0,0.0,0.0,0.0,0.0,0.0,0.0,0.0,0.0,
3.76,run,-0.66,3.5,0.71,0.35,-0.56,0.0,0.0,0.0,0.117,5.8,0.7,5.8,10.99,11.6,-12.66,10.81,-46.49,91.23,-0.88,12.22,-13.36,15.29,-54.76,93.78,15.56,2.37,5.19,5.69,0.14,5.75,10.92,11.06,-12.61,10.67,-46.43,90.73,-0.77,11.43,-13.49,15.43,-54.56,93.7,15.61,1.92,5.21,0.1625,0.457,-0.697,0.312,0.6557,-0.913,0.3048,-0.3897,0.3027,-0.022,0.6623,-0.9234,0.4407,-0.5375,0.3377,0.446,0.4895,-0.7034,0.013,0.013,0.0,0.0,0.013,0.0,0.0,0.0,0.006,0.0,0.019,0.0,0.006,0.0,0.0,0.0,0.013,0.0,0.0905,0.0031,0.0982,0.1963,0.204,-0.224,0.1856,-0.8099,1.5846,-0.0015,0.2025,-0.2378,0.2684,-0.9557,1.6398,0.2715,0.0322,0.0859,-0.0222,-0.006,-0.0057,0.0003,-0.004,0.0058,-0.0004,-0.0003,-0.0219,0.0002,-0.0011,0.002,0.0,0.0121,-0.0174,-0.002,-0.0077,0.0003,0.0167,-0.0585,-0.0051,0.0033,0.0239,0.1606,0.4579,-0.6967,0.3112,0.653,-0.9143,0.3041,-0.392,0.302,-0.0204,0.6612,-0.9249,0.4425,-0.5374,0.3386,0.4498,0.4892,-0.7039,0.0,0.0,0.0,0.0,0.0,0.0,0.0,0.0,0.0,
3.8,run,-0.67,3.47,-0.06,-0.34,-1.23,0.0,0.0,0.0,0.117,5.89,0.7,5.8,10.99,11.6,-12.66,10.81,-46.49,91.23,-0.88,12.22,-13.36,15.29,-54.76,93.78,15.56,2.37,5.19,5.64,0.08,5.81,10.87,10.95,-12.71,10.65,-46.56,90.56,-0.72,11.37,-13.62,15.45,-54.53,93.64,15.72,1.97,5.1,0.1611,0.4561,-0.6963,0.3106,0.6536,-0.9142,0.3043,-0.392,0.3007,-0.0204,0.6614,-0.9249,0.4415,-0.537,0.337,0.4493,0.4904,-0.7047,0.013,0.013,0.0,0.0,0.013,0.0,0.006,0.0,0.019,0.006,0.026,0.006,0.006,0.006,0.006,0.006,0.006,0.0,0.0997,0.0031,0.0982,0.1963,0.204,-0.224,0.1856,-0.813,1.5846,-0.0015,0.2025,-0.2378,0.2684,-0.9587,1.6368,0.2715,0.0322,0.0859,0.0184,-0.0042,-0.004,0.0002,-0.0028,0.0041,-0.0003,-0.0116,-0.0153,0.0001,-0.0008,0.0014,0.0,-0.0028,-0.0235,-0.0014,-0.0054,0.0002,0.0212,-0.0569,0.0124,0.0061,-0.0098,0.1625,0.457,-0.697,0.312,0.6557,-0.913,0.3048,-0.3897,0.3027,-0.022,0.6623,-0.9234,0.4407,-0.5375,0.3377,0.446,0.4895,-0.7034,0.0,0.0,0.0,0.0,0.0,0.0,0.0,0.0,0.0,
3.84,run,-0.68,3.5,-0.11,0.34,1.74,0.0,0.0,0.0,0.117,5.27,0.7,5.8,10.99,11.6,-12.66,10.81,-46.49,91.14,-0.79,12.22,-13.54,15.29,-54.67,93.69,15.56,2.37,5.19,5.65,0.14,5.81,10.89,10.95,-12.76,10.67,-46.59,90.66,-0.74,11.41,-13.65,15.46,-54.57,93.64,15.73,1.96,5.21,0.1614,0.4571,-0.6964,0.3112,0.6536,-0.9148,0.3048,-0.3926,0.3019,-0.0212,0.662,-0.9253,0.4417,-0.5376,0.3369,0.4495,0.4901,-0.7034,0.013,0.013,0.0,0.0,0.013,0.0,0.006,0.0,0.019,0.006,0.026,0.006,0.006,0.006,0.006,0.006,0.006,0.0,0.1012,0.0031,0.0982,0.1963,0.204,-0.224,0.1856,-0.813,1.5846,-0.0015,0.2025,-0.2378,0.2684,-0.9587,1.6368,0.2715,0.0322,0.0859,0.0187,-0.0029,-0.0028,0.0002,-0.002,0.0029,-0.0002,-0.0081,-0.0107,0.0001,-0.0005,0.001,0.0,-0.002,-0.0164,-0.001,-0.0038,0.0001,0.0202,-0.0589,-0.0011,-0.0059,-0.0215,0.1611,0.4561,-0.6963,0.3106,0.6536,-0.9142,0.3043,-0.392,0.3007,-0.0204,0.6614,-0.9249,0.4415,-0.537,0.337,0.4493,0.4904,-0.7047,0.0,0.0,0.0,0.0,0.0,0.0,0.0,0.0,0.0,
3.88,run,-0.65,3.49,0.06,-0.22,-1.52,0.0,0.0,0.0,0.117,5.89,0.7,5.8,10.99,11.51,-12.66,10.81,-46.49,91.14,-0.7,12.22,-13.45,15.29,-54.76,93.69,15.64,2.37,5.19,5.7,0.07,5.82,10.89,11.11,-12.62,10.68,-46.48,90.69,-0.77,11.47,-13.51,15.41,-54.54,93.64,15.64,2.02,5.18,0.1629,0.4559,-0.6962,0.3111,0.6566,-0.9132,0.3052,-0.3905,0.3022,-0.0219,0.6632,-0.9236,0.4402,-0.5371,0.337,0.4468,0.4912,-0.7037,0.013,0.013,0.0,0.0,0.013,0.0,0.006,0.0,0.019,0.006,0.026,0.006,0.006,0.006,0.006,0.006,0.006,0.0,0.0905,0.0031,0.0982,0.1963,0.204,-0.224,0.1856,-0.813,1.5831,0.0,0.2025,-0.2408,0.2684,-0.9572,1.6352,0.2715,0.0322,0.0859,-0.0272,-0.002,-0.0019,0.0001,-0.0014,0.002,-0.0001,-0.0057,-0.0133,0.0058,-0.0004,-0.0108,0.0,0.0044,-0.0173,-0.0007,-0.0027,0.0001,0.0199,-0.0568,-0.0019,0.0059,0.0304,0.1614,0.4571,-0.6964,0.3112,0.6536,-0.9148,0.3048,-0.3926,0.3019,-0.0212,0.662,-0.9253,0.4417,-0.5376,0.3369,0.4495,0.4901,-0.7034,0.0,0.0,0.0,0.0,0.0,0.0,0.0,0.0,0.0,
3.92,run,-0.65,3.45,-0.33,-0.26,-0.19,0.0,0.0,0.0,0.117,5.71,0.7,5.8,10.99,11.51,-12.66,10.81,-46.49,91.14,-0.7,12.22,-13.45,15.29,-54.76,93.69,15.64,2.37,5.19,5.65,0.11,5.85,10.87,10.97,-12.79,10.67,-46.66,90.67,-0.74,11.43,-13.7,15.46,-54.6,93.63,15.76,2.01,5.13,0.1615,0.4566,-0.6959,0.3105,0.6541,-0.9152,0.3048,-0.3938,0.3019,-0.021,0.6623,-0.9259,0.4417,-0.5381,0.3368,0.4502,0.4911,-0.7044,0.006,0.013,0.0,0.0,0.006,0.006,0.0,0.0,0.013,0.0,0.019,0.006,0.006,0.0,0.0,0.0,0.006,0.0,0.1012,0.0031,0.0982,0.1963,0.2025,-0.224,0.1856,-0.813,1.5831,0.0015,0.2025,-0.2393,0.2684,-0.9587,1.6352,0.273,0.0322,0.0859,0.0213,-0.0014,-0.0014,0.0001,-0.0067,0.0014,-0.0001,-0.004,-0.0093,0.0098,-0.0003,-0.0018,0.0,-0.0027,-0.0121,0.0053,-0.0019,0.0001,0.0218,-0.0574,0.0011,-0.0038,-0.0265,0.1629,0.4559,-0.6962,0.3111,0.6566,-0.9132,0.3052,-0.3905,0.3022,-0.0219,0.6632,-0.9236,0.4402,-0.5371,0.337,0.4468,0.4912,-0.7037,0.0,0.0,0.0,0.0,0.0,0.0,0.0,0.0,0.0,
3.96,run,-0.65,3.45,-0.41,-0.04,1.54,0.0,0.0,0.0,0.117,5.27,0.7,5.8,10.99,11.51,-12.66,10.81,-46.58,91.14,-0.7,12.22,-13.62,15.29,-54.76,93.69,15.64,2.37,5.19,5.69,0.1,5.78,10.9,11.02,-12.68,10.68,-46.56,90.68,-0.76,11.47,-13.65,15.43,-54.55,93.62,15.7,1.99,5.21,0.1625,0.4564,-0.6967,0.3114,0.6549,-0.9139,0.3053,-0.392,0.3021,-0.0218,0.6631,-0.9253,0.4409,-0.5372,0.3367,0.4486,0.4908,-0.7034,0.006,0.013,0.0,0.0,0.006,0.006,0.0,0.0,0.013,0.0,0.019,0.006,0.006,0.0,0.0,0.0,0.006,0.0,0.0982,0.0031,0.0982,0.1963,0.2025,-0.224,0.1856,-0.813,1.5831,0.0015,0.2025,-0.2393,0.2684,-0.9587,1.6352,0.273,0.0322,0.0859,0.0034,-0.001,-0.001,0.0001,-0.0047,0.001,-0.0001,-0.0028,-0.0065,0.0069,-0.0002,-0.0013,0.0,-0.0019,-0.0085,0.0037,-0.0013,0.0,0.0221,-0.0608,-0.0057,-0.0045,-0.0033,0.1615,0.4566,-0.6959,0.3105,0.6541,-0.9152,0.3048,-0.3938,0.3019,-0.021,0.6623,-0.9259,0.4417,-0.5381,0.3368,0.4502,0.4911,-0.7044,0.0,0.0,0.0,0.0,0.0,0.0,0.0,0.0,0.0,
4.0,run,-0.62,3.44,0.19,-0.26,-1.62,0.0,0.0,0.0,0.117,6.06,0.7,5.8,10.99,11.51,-12.66,10.81,-46.49,91.14,-0.7,12.22,-13.45,15.29,-54.76,93.69,15.64,2.37,5.19,5.72,0.1,5.74,10.91,11.14,-12.66,10.71,-46.49,90.71,-0.79,11.54,-13.62,15.41,-54.53,93.64,15.66,2.06,5.22,0.1633,0.4564,-0.6972,0.3118,0.657,-0.9136,0.306,-0.3908,0.3025,-0.0225,0.6644,-0.9249,0.4403,-0.5369,0.337,0.4476,0.4919,-0.7032,0.006,0.013,0.0,0.0,0.006,0.006,0.0,0.0,0.013,0.0,0.019,0.006,0.006,0.0,0.0,0.0,0.006,0.0,0.0905,0.0031,0.0982,0.1963,0.2025,-0.224,0.1856,-0.8145,1.5831,0.0015,0.2025,-0.2424,0.2684,-0.9587,1.6352,0.273,0.0322,0.0859,-0.0264,-0.0007,-0.0007,0.0,-0.0033,0.0007,-0.0,-0.0077,-0.0046,0.0048,-0.0001,-0.0124,0.0,-0.0013,-0.0059,0.0026,-0.0009,0.0,0.0222,-0.0609,-0.0072,-0.0007,0.0268,0.1625,0.4564,-0.6967,0.3114,0.6549,-0.9139,0.3053,-0.392,0.3021,-0.0218,0.6631,-0.9253,0.4409,-0.5372,0.3367,0.4486,0.4908,-0.7034,0.0,0.0,0.0,0.0,0.0,0.0,0.0,0.0,0.0,
4.04,run,-0.63,3.42,-0.47,-0.24,0.36,0.0,0.0,0.0,0.117,5.62,0.7,5.8,10.99,11.51,-12.66,10.81,-46.49,91.14,-0.7,12.22,-13.54,15.29,-54.67,93.69,15.64,2.37,5.19,5.67,0.09,5.73,10.88,10.94,-12.72,10.67,-46.63,90.63,-0.72,11.43,-13.79,15.46,-54.55,93.68,15.77,1.99,5.1,0.1619,0.4562,-0.6972,0.3109,0.6535,-0.9144,0.3048,-0.3933,0.3015,-0.0206,0.6624,-0.9269,0.4418,-0.5373,0.3374,0.4507,0.4908,-0.7047,0.013,0.013,0.0,0.0,0.013,0.0,0.0,0.006,0.013,0.0,0.013,0.006,0.006,0.006,0.0,0.0,0.006,0.0,0.1043,0.0031,0.0982,0.1963,0.2025,-0.224,0.1856,-0.813,1.5831,0.0015,0.2025,-0.2393,0.2684,-0.9587,1.6352,0.273,0.0322,0.0859,0.0332,-0.0005,-0.0005,0.0,-0.0023,0.0005,-0.0,0.0004,-0.0032,0.0034,-0.0001,0.0028,0.0,-0.0009,-0.0041,0.0018,-0.0006,0.0,0.025,-0.0619,0.0033,-0.0046,-0.0283,0.1633,0.4564,-0.6972,0.3118,0.657,-0.9136,0.306,-0.3908,0.3025,-0.0225,0.6644,-0.9249,0.4403,-0.5369,0.337,0.4476,0.4919,-0.7032,0.0,0.0,0.0,0.0,0.0,0.0,0.0,0.0,0.0,
4.08,run,-0.6,3.46,0.58,0.29,0.01,0.0,0.0,0.0,0.117,5.54,0.7,5.8,10.99,11.51,-12.66,10.81,-46.49,91.14,-0.7,12.22,-13.71,15.29,-54.76,93.69,15.64,2.37,5.19,5.71,0.1,5.7,10.92,11.05,-12.63,10.7,-46.52,90.68,-0.77,11.51,-13.68,15.43,-54.53,93.65,15.69,2.0,5.21,0.1631,0.4564,-0.6977,0.3119,0.6554,-0.9132,0.3056,-0.3913,0.3022,-0.022,0.6637,-0.9257,0.4409,-0.537,0.3371,0.4482,0.4909,-0.7035,0.013,0.013,0.0,0.0,0.013,0.0,0.0,0.006,0.013,0.0,0.013,0.006,0.006,0.006,0.0,0.0,0.006,0.0,0.0966,0.0031,0.0982,0.1963,0.2025,-0.224,0.1856,-0.813,1.5831,0.0015,0.2025,-0.2408,0.2684,-0.9572,1.6352,0.273,0.0322,0.0859,-0.0056,-0.0003,-0.0003,0.0,-0.0016,0.0003,-0.0,0.0002,-0.0022,0.0024,-0.0001,-0.0038,0.0,0.0051,-0.0029,0.0013,-0.0004,0.0,0.0242,-0.0639,-0.0081,-0.0042,0.0063,0.1619,0.4562,-0.6972,0.3109,0.6535,-0.9144,0.3048,-0.3933,0.3015,-0.0206,0.6624,-0.9269,0.4418,-0.5373,0.3374,0.4507,0.4908,-0.7047,0.0,0.0,0.0,0.0,0.0,0.0,0.0,0.0,0.0,
4.12,run,-0.61,3.46,0.19,-0.1,-1.25,0.0,0.0,0.0,0.117,6.06,0.7,5.8,10.99,11.51,-12.66,10.81,-46.67,91.14,-0.7,12.22,-13.62,15.29,-54.67,93.69,15.64,2.37,5.19,5.7,0.07,5.74,10.87,11.06,-12.7,10.68,-46.6,90.6,-0.74,11.48,-13.68,15.43,-54.6,93.62,15.72,2.07,5.06,0.1629,0.4558,-0.6972,0.3107,0.6557,-0.9141,0.3052,-0.3927,0.3011,-0.0212,0.6632,-0.9257,0.4408,-0.5382,0.3368,0.4491,0.4921,-0.7052,0.013,0.013,0.0,0.0,0.013,0.0,0.0,0.006,0.013,0.0,0.013,0.006,0.006,0.006,0.0,0.0,0.006,0.0,0.0951,0.0031,0.0982,0.1963,0.2025,-0.224,0.1856,-0.813,1.5831,0.0015,0.2025,-0.2439,0.2684,-0.9587,1.6352,0.273,0.0322,0.0859,-0.0088,-0.0002,-0.0002,0.0,-0.0011,0.0002,-0.0,0.0002,-0.0016,0.0017,-0.0,-0.0123,0.0,-0.0012,-0.002,0.0009,-0.0003,0.0,0.0268,-0.0598,0.0101,0.0051,0.0002,0.1631,0.4564,-0.6977,0.3119,0.6554,-0.9132,0.3056,-0.3913,0.3022,-0.022,0.6637,-0.9257,0.4409,-0.537,0.3371,0.4482,0.4909,-0.7035,0.0,0.0,0.0,0.0,0.0,0.0,0.0,0.0,0.0,
4.16,run,-0.6,3.47,0.1,0.36,1.51,0.0,0.0,0.0,0.117,5.36,0.7,5.8,10.99,11.51,-12.66,10.81,-46.67,91.14,-0.7,12.22,-13.62,15.29,-54.76,93.69,15.64,2.37,5.19,5.66,0.07,5.76,10.87,10.98,-12.76,10.69,-46.66,90.67,-0.72,11.46,-13.8,15.47,-54.56,93.71,15.78,2.03,5.1,0.1618,0.4558,-0.697,0.3106,0.6542,-0.9148,0.3055,-0.3937,0.3019,-0.0206,0.6629,-0.9271,0.4421,-0.5374,0.3378,0.451,0.4915,-0.7047,0.006,0.013,0.0,0.0,0.013,0.0,0.0,0.0,0.006,0.0,0.019,0.006,0.006,0.006,0.0,0.006,0.006,0.0,0.1043,0.0031,0.0982,0.1963,0.2025,-0.224,0.1856,-0.8161,1.5831,0.0015,0.2025,-0.2424,0.2684,-0.9572,1.6352,0.273,0.0322,0.0859,0.0281,-0.0002,-0.0002,0.0,-0.0008,0.0002,-0.0,-0.0113,-0.0011,0.0012,-0.0,-0.0029,0.0,0.0048,-0.0014,0.0006,-0.0002,0.0,0.0261,-0.0601,0.0033,-0.0018,-0.0218,0.1629,0.4558,-0.6972,0.3107,0.6557,-0.9141,0.3052,-0.3927,0.3011,-0.0212,0.6632,-0.9257,0.4408,-0.5382,0.3368,0.4491,0.4921,-0.7052,0.0,0.0,0.0,0.0,0.0,0.0,0.0,0.0,0.0,
4.2,run,-0.59,3.46,-0.09,-0.22,-1.2,0.0,0.0,0.0,0.117,5.71,0.7,5.8,10.99,11.51,-12.66,10.81,-46.67,91.14,-0.7,12.22,-13.62,15.29,-54.67,93.69,15.64,2.37,5.19,5.72,0.05,5.74,10.89,11.12,-12.64,10.71,-46.53,90.66,-0.77,11.52,-13.64,15.41,-54.54,93.64,15.68,2.09,5.13,0.1635,0.4555,-0.6972,0.3112,0.6568,-0.9134,0.306,-0.3914,0.3019,-0.0221,0.664,-0.9252,0.4403,-0.5371,0.3369,0.448,0.4925,-0.7044,0.006,0.013,0.0,0.0,0.013,0.0,0.0,0.0,0.006,0.0,0.019,0.006,0.006,0.006,0.0,0.006,0.006,0.0,0.092,0.0031,0.0982,0.1963,0.2025,-0.224,0.1856,-0.8161,1.5831,0.0015,0.2025,-0.2424,0.2684,-0.9587,1.6352,0.273,0.0322,0.0859,-0.0264,-0.0001,-0.0001,0.0,-0.0006,0.0001,-0.0,-0.0079,-0.0008,0.0008,-0.0,-0.002,0.0,-0.0024,-0.001,0.0004,-0.0002,0.0,0.0268,-0.059,0.0017,0.0063,0.0264,0.1618,0.4558,-0.697,0.3106,0.6542,-0.9148,0.3055,-0.3937,0.3019,-0.0206,0.6629,-0.9271,0.4421,-0.5374,0.3378,0.451,0.4915,-0.7047,0.0,0.0,0.0,0.0,0.0,0.0,0.0,0.0,0.0,
4.24,run,-0.58,3.43,-0.2,-0.13,-0.12,0.0,0.0,0.0,0.117,5.71,0.7,5.8,10.99,11.51,-12.66,10.81,-46.67,91.14,-0.7,12.22,-13.62,15.29,-54.76,93.69,15.73,2.37,5.19,5.69,0.1,5.76,10.88,11.04,-12.8,10.71,-46.69,90.7,-0.76,11.51,-13.8,15.47,-54.63,93.68,15.78,2.1,5.1,0.1626,0.4564,-0.6969,0.3109,0.6553,-0.9152,0.306,-0.3945,0.3023,-0.0218,0.6638,-0.927,0.442,-0.5387,0.3374,0.4509,0.4927,-0.7047,0.006,0.013,0.0,0.0,0.013,0.0,0.0,0.0,0.006,0.0,0.019,0.006,0.006,0.006,0.0,0.006,0.006,0.0,0.0982,0.0031,0.0982,0.1963,0.2025,-0.224,0.1856,-0.8161,1.5831,0.0015,0.2025,-0.2424,0.2684,-0.9572,1.6352,0.273,0.0322,0.0859,0.0008,-0.0001,-0.0001,0.0,-0.0004,0.0001,-0.0,-0.0055,-0.0005,0.0006,-0.0,-0.0014,0.0,0.0032,-0.0007,0.0003,-0.0001,0.0,0.0273,-0.06,-0.0016,-0.0039,-0.0209,0.1635,0.4555,-0.6972,0.3112,0.6568,-0.9134,0.306,-0.3914,0.3019,-0.0221,0.664,-0.9252,0.4403,-0.5371,0.3369,0.448,0.4925,-0.7044,0.0,0.0,0.0,0.0,0.0,0.0,0.0,0.0,0.0,
4.28,run,-0.57,3.45,-0.37,0.07,1.27,0.0,0.0,0.0,0.117,5.36,0.7,5.8,10.99,11.51,-12.74,10.81,-46.67,91.14,-0.7,12.22,-13.62,15.29,-54.76,93.69,15.73,2.37,5.19,5.71,0.09,5.69,10.91,11.05,-12.69,10.71,-46.6,90.66,-0.77,11.53,-13.78,15.45,-54.54,93.67,15.75,2.07,5.16,0.163,0.4562,-0.6978,0.3116,0.6554,-0.914,0.306,-0.3927,0.3018,-0.0221,0.6643,-0.9268,0.4415,-0.5371,0.3373,0.4499,0.4922,-0.704,0.0,0.013,0.0,0.0,0.006,0.0,0.0,0.0,0.006,0.0,0.019,0.006,0.006,0.006,0.0,0.0,0.006,0.0,0.0982,0.0031,0.0982,0.1963,0.2025,-0.224,0.1856,-0.8161,1.5831,0.0015,0.2025,-0.2424,0.2684,-0.9587,1.6352,0.2746,0.0322,0.0859,0.0006,-0.0001,-0.0001,0.0,-0.0003,0.0001,-0.0,-0.0039,-0.0004,0.0004,-0.0,-0.001,0.0,-0.0035,-0.0005,0.0059,-0.0001,0.0,0.0286,-0.0628,-0.0035,-0.0023,-0.0021,0.1626,0.4564,-0.6969,0.3109,0.6553,-0.9152,0.306,-0.3945,0.3023,-0.0218,0.6638,-0.927,0.442,-0.5387,0.3374,0.4509,0.4927,-0.7047,0.0,0.0,0.0,0.0,0.0,0.0,0.0,0.0,0.0,
4.32,run,-0.56,3.43,-0.05,-0.32,-1.46,0.0,0.0,0.0,0.117,6.06,0.7,5.8,10.99,11.51,-12.74,10.81,-46.67,91.14,-0.7,12.22,-13.62,15.29,-54.76,93.69,15.73,2.37,5.19,5.73,0.1,5.66,10.92,11.13,-12.65,10.72,-46.54,90.71,-0.8,11.56,-13.72,15.43,-54.53,93.68,15.71,2.11,5.15,0.1638,0.4563,-0.6981,0.3119,0.6569,-0.9135,0.3062,-0.3917,0.3025,-0.0228,0.6648,-0.9262,0.4408,-0.5369,0.3375,0.4488,0.4929,-0.7041,0.0,0.013,0.0,0.0,0.006,0.0,0.0,0.0,0.006,0.0,0.019,0.006,0.006,0.006,0.0,0.0,0.006,0.0,0.092,0.0031,0.0982,0.1963,0.2025,-0.2255,0.1856,-0.8161,1.5831,0.0015,0.2025,-0.2424,0.2684,-0.9587,1.6352,0.2746,0.0322,0.0859,-0.0225,-0.0,-0.0,0.0,-0.0002,-0.0057,-0.0,-0.0027,-0.0003,0.0003,-0.0,-0.0007,0.0,-0.0025,-0.0003,0.0042,-0.0001,0.0,0.0288,-0.061,-0.0065,0.0013,0.0222,0.163,0.4562,-0.6978,0.3116,0.6554,-0.914,0.306,-0.3927,0.3018,-0.0221,0.6643,-0.9268,0.4415,-0.5371,0.3373,0.4499,0.4922,-0.704,0.0,0.0,0.0,0.0,0.0,0.0,0.0,0.0,0.0,
4.36,run,-0.58,3.42,-0.63,-0.24,0.73,0.0,0.0,0.0,0.117,5.62,0.7,5.8,10.99,11.51,-12.74,10.81,-46.67,91.14,-0.7,12.22,-13.62,15.29,-54.76,93.69,15.73,2.37,5.19,5.68,0.11,5.66,10.89,10.99,-12.76,10.7,-46.66,90.69,-0.74,11.5,-13.88,15.48,-54.55,93.76,15.81,2.06,5.11,0.1624,0.4566,-0.6981,0.3112,0.6543,-0.9148,0.3056,-0.3938,0.3022,-0.0211,0.6637,-0.928,0.4424,-0.5373,0.3383,0.4518,0.492,-0.7045,0.0,0.013,0.0,0.0,0.006,0.0,0.0,0.0,0.006,0.0,0.019,0.006,0.006,0.006,0.0,0.0,0.006,0.0,0.1043,0.0031,0.0982,0.1963,0.2025,-0.2255,0.1856,-0.8161,1.5831,0.0015,0.2025,-0.2424,0.2684,-0.9587,1.6352,0.2746,0.0322,0.0859,0.0302,-0.0,-0.0,0.0,-0.0001,-0.004,-0.0,-0.0019,-0.0002,0.0002,-0.0,-0.0005,0.0,-0.0017,-0.0002,0.0029,-0.0,0.0,0.0297,-0.0626,-0.0009,-0.0055,-0.0254,0.1638,0.4563,-0.6981,0.3119,0.6569,-0.9135,0.3062,-0.3917,0.3025,-0.0228,0.6648,-0.9262,0.4408,-0.5369,0.3375,0.4488,0.4929,-0.7041,0.0,0.0,0.0,0.0,0.0,0.0,0.0,0.0,0.0,
4.4,run,-0.58,3.44,-0.06,0.18,1.12,0.0,0.0,0.0,0.117,5.45,0.7,5.8,10.99,11.51,-12.74,10.81,-46.67,91.14,-0.7,12.22,-13.62,15.29,-54.76,93.69,15.73,2.37,5.19,5.73,0.11,5.64,10.93,11.09,-12.64,10.72,-46.53,90.74,-0.79,11.57,-13.76,15.44,-54.51,93.73,15.72,2.06,5.22,0.1636,0.4566,-0.6984,0.3122,0.6562,-0.9134,0.3062,-0.3914,0.3028,-0.0225,0.6648,-0.9265,0.4411,-0.5365,0.338,0.4492,0.4921,-0.7033,0.006,0.013,0.006,0.0,0.006,0.0,0.0,0.0,0.013,0.0,0.013,0.006,0.006,0.006,0.0,0.0,0.006,0.0,0.0966,0.0031,0.0982,0.1963,0.2025,-0.2255,0.1856,-0.8161,1.5831,0.0015,0.2025,-0.2424,0.2684,-0.9587,1.6352,0.2746,0.0322,0.0859,-0.0077,-0.0,-0.0,0.0,-0.0001,-0.0028,-0.0,-0.0013,-0.0001,0.0001,-0.0,-0.0003,0.0,-0.0012,-0.0002,0.002,-0.0,0.0,0.028,-0.0639,-0.0109,-0.0042,0.0127,0.1624,0.4566,-0.6981,0.3112,0.6543,-0.9148,0.3056,-0.3938,0.3022,-0.0211,0.6637,-0.928,0.4424,-0.5373,0.3383,0.4518,0.492,-0.7045,0.0,0.0,0.0,0.0,0.0,0.0,0.0,0.0,0.0,
4.44,run,-0.58,3.42,0.05,-0.14,-0.96,0.0,0.0,0.0,0.117,5.89,0.7,5.8,10.99,11.51,-12.74,10.81,-46.58,91.14,-0.7,12.22,-13.62,15.29,-54.67,93.69,15.73,2.37,5.19,5.73,0.09,5.65,10.91,11.12,-12.63,10.71,-46.54,90.69,-0.78,11.56,-13.74,15.43,-54.53,93.71,15.71,2.1,5.12,0.1637,0.4561,-0.6983,0.3117,0.6568,-0.9133,0.306,-0.3916,0.3022,-0.0223,0.6647,-0.9263,0.4408,-0.5369,0.3378,0.449,0.4927,-0.7045,0.006,0.013,0.006,0.0,0.006,0.0,0.0,0.0,0.013,0.0,0.013,0.006,0.006,0.006,0.0,0.0,0.006,0.0,0.0936,0.0031,0.0982,0.1963,0.2025,-0.2255,0.1856,-0.8161,1.5831,0.0015,0.2025,-0.2424,0.2684,-0.9587,1.6352,0.2746,0.0322,0.0859,-0.0169,-0.0,-0.0,0.0,-0.0001,-0.002,-0.0,-0.0009,-0.0001,0.0001,-0.0,-0.0002,0.0,-0.0008,-0.0001,0.0014,-0.0,0.0,0.0283,-0.0618,-0.0011,0.0031,0.0195,0.1636,0.4566,-0.6984,0.3122,0.6562,-0.9134,0.3062,-0.3914,0.3028,-0.0225,0.6648,-0.9265,0.4411,-0.5365,0.338,0.4492,0.4921,-0.7033,0.0,0.0,0.0,0.0,0.0,0.0,0.0,0.0,0.0,
4.48,run,-0.59,3.43,-0.18,0.23,1.74,0.0,0.0,0.0,0.117,5.27,0.7,5.8,10.99,11.51,-12.74,10.81,-46.58,91.14,-0.7,12.22,-13.62,15.29,-54.58,93.69,15.73,2.37,5.19,5.7,0.11,5.66,10.9,11.03,-12.7,10.7,-46.63,90.68,-0.75,11.52,-13.82,15.46,-54.58,93.71,15.77,2.07,5.1,0.163,0.4565,-0.6981,0.3113,0.6552,-0.9141,0.3056,-0.3933,0.3021,-0.0215,0.664,-0.9273,0.4417,-0.5378,0.3378,0.4505,0.4921,-0.7048,0.006,0.013,0.006,0.0,0.006,0.0,0.0,0.0,0.013,0.0,0.013,0.006,0.006,0.006,0.0,0.0,0.006,0.0,0.1012,0.0031,0.0982,0.1963,0.2025,-0.2255,0.1856,-0.8145,1.5831,0.0015,0.2025,-0.2424,0.2684,-0.9572,1.6352,0.2746,0.0322,0.0859,0.0093,-0.0,-0.0,0.0,-0.0,-0.0014,-0.0,0.0036,-0.0001,0.0001,-0.0,-0.0002,0.0,0.0036,-0.0001,0.001,-0.0,0.0,0.0283,-0.0637,0.0008,-0.0025,-0.0167,0.1637,0.4561,-0.6983,0.3117,0.6568,-0.9133,0.306,-0.3916,0.3022,-0.0223,0.6647,-0.9263,0.4408,-0.5369,0.3378,0.449,0.4927,-0.7045,0.0,0.0,0.0,0.0,0.0,0.0,0.0,0.0,0.0,
4.52,run,-0.55,3.42,0.34,-0.03,-1.42,0.0,0.0,0.0,0.117,5.98,0.7,5.8,10.99,11.51,-12.74,10.81,-46.58,91.14,-0.7,12.22,-13.62,15.29,-54.76,93.69,15.73,2.37,5.19,5.75,0.07,5.64,10.92,11.15,-12.56,10.71,-46.5,90.7,-0.8,11.57,-13.69,15.41,-54.54,93.69,15.67,2.09,5.12,0.1642,0.4558,-0.6984,0.3121,0.6573,-0.9124,0.3061,-0.3909,0.3023,-0.0228,0.6648,-0.9257,0.4404,-0.5372,0.3375,0.4477,0.4925,-0.7044,0.013,0.013,0.0,0.0,0.006,0.0,0.0,0.0,0.006,0.0,0.013,0.0,0.0,0.006,0.0,0.0,0.0,0.0,0.0905,0.0031,0.0982,0.1963,0.2025,-0.2255,0.1856,-0.8145,1.5831,0.0015,0.2025,-0.2424,0.2684,-0.9557,1.6352,0.2746,0.0322,0.0859,-0.0331,-0.0,-0.0,0.0,-0.0,-0.001,-0.0,0.0025,-0.0,0.0,-0.0,-0.0001,0.0,0.0082,-0.0001,0.0007,-0.0,0.0,0.0275,-0.0629,-0.0032,0.0041,0.0303,0.163,0.4565,-0.6981,0.3113,0.6552,-0.9141,0.3056,-0.3933,0.3021,-0.0215,0.664,-0.9273,0.4417,-0.5378,0.3378,0.4505,0.4921,-0.7048,0.0,0.0,0.0,0.0,0.0,0.0,0.0,0.0,0.0,
4.56,run,-0.58,3.43,-0.39,0.01,1.04,0.0,0.0,0.0,0.117,5.45,0.7,5.8,10.99,11.51,-12.74,10.81,-46.49,91.14,-0.7,12.22,-13.62,15.29,-54.76,93.69,15.73,2.37,5.19,5.68,0.09,5.67,10.89,10.98,-12.72,10.68,-46.65,90.59,-0.73,11.48,-13.84,15.46,-54.56,93.69,15.8,2.06,5.06,0.1624,0.4562,-0.698,0.3111,0.6541,-0.9143,0.3053,-0.3937,0.301,-0.0209,0.6633,-0.9275,0.4418,-0.5375,0.3375,0.4513,0.492,-0.7052,0.013,0.013,0.0,0.0,0.006,0.0,0.0,0.0,0.006,0.0,0.013,0.0,0.0,0.006,0.0,0.0,0.0,0.0,0.1028,0.0031,0.0982,0.1963,0.2025,-0.2255,0.1856,-0.8145,1.5831,0.0015,0.2025,-0.2424,0.2684,-0.9587,1.6352,0.2746,0.0322,0.0859,0.0228,-0.0,-0.0,0.0,-0.0,-0.0007,-0.0,0.0017,-0.0,0.0,-0.0,-0.0001,0.0,-0.0058,-0.0,0.0005,-0.0,0.0,0.0305,-0.0632,0.006,-0.0006,-0.0247,0.1642,0.4558,-0.6984,0.3121,0.6573,-0.9124,0.3061,-0.3909,0.3023,-0.0228,0.6648,-0.9257,0.4404,-0.5372,0.3375,0.4477,0.4925,-0.7044,0.0,0.0,0.0,0.0,0.0,0.0,0.0,0.0,0.0,
4.6,run,-0.57,3.45,-0.05,0.27,0.82,0.0,0.0,0.0,0.117,5.62,0.7,5.8,10.99,11.51,-12.74,10.81,-46.58,91.14,-0.7,12.22,-13.62,15.29,-54.76,93.69,15.73,2.37,5.19,5.73,0.1,5.65,10.93,11.07,-12.6,10.7,-46.51,90.66,-0.78,11.52,-13.69,15.42,-54.52,93.67,15.69,2.04,5.17,0.1637,0.4563,-0.6983,0.3122,0.6559,-0.9129,0.3057,-0.3911,0.3019,-0.0223,0.6641,-0.9258,0.4405,-0.5367,0.3373,0.4484,0.4917,-0.7038,0.013,0.013,0.0,0.0,0.006,0.0,0.0,0.0,0.006,0.0,0.013,0.0,0.0,0.006,0.0,0.0,0.0,0.0,0.0936,0.0031,0.0982,0.1963,0.2025,-0.2255,0.1856,-0.813,1.5831,0.0015,0.2025,-0.2424,0.2684,-0.9587,1.6352,0.2746,0.0322,0.0859,-0.013,-0.0,-0.0,0.0,-0.0,-0.0005,-0.0,0.006,-0.0,0.0,-0.0,-0.0001,0.0,-0.004,-0.0,0.0003,-0.0,0.0,0.0286,-0.0629,-0.0068,0.0002,0.0182,0.1624,0.4562,-0.698,0.3111,0.6541,-0.9143,0.3053,-0.3937,0.301,-0.0209,0.6633,-0.9275,0.4418,-0.5375,0.3375,0.4513,0.492,-0.7052,0.0,0.0,0.0,0.0,0.0,0.0,0.0,0.0,0.0,
4.64,run,-0.57,3.43,-0.12,-0.42,-1.49,0.0,0.0,0.0,0.117,5.98,0.7,5.8,10.99,11.51,-12.66,10.81,-46.49,91.14,-0.7,12.22,-13.54,15.29,-54.58,93.69,15.73,2.37,5.19,5.7,0.08,5.65,10.91,11.05,-12.64,10.69,-46.54,90.64,-0.75,11.5,-13.74,15.44,-54.5,93.72,15.73,2.06,5.1,0.163,0.4559,-0.6982,0.3116,0.6555,-0.9134,0.3055,-0.3916,0.3017,-0.0215,0.6636,-0.9263,0.441,-0.5363,0.3378,0.4494,0.4919,-0.7047,0.006,0.013,0.0,0.0,0.006,0.0,0.0,0.0,0.013,0.0,0.013,0.006,0.006,0.0,0.0,0.0,0.006,0.0,0.0966,0.0031,0.0982,0.1963,0.2025,-0.2255,0.1856,-0.8145,1.5831,0.0015,0.2025,-0.2424,0.2684,-0.9587,1.6352,0.2746,0.0322,0.0859,0.0023,-0.0,-0.0,0.0,-0.0,-0.0003,-0.0,-0.0015,-0.0,0.0,-0.0,-0.0,0.0,-0.0028,-0.0,0.0002,-0.0,0.0,0.029,-0.0607,-0.0008,0.0047,0.0143,0.1637,0.4563,-0.6983,0.3122,0.6559,-0.9129,0.3057,-0.3911,0.3019,-0.0223,0.6641,-0.9258,0.4405,-0.5367,0.3373,0.4484,0.4917,-0.7038,0.0,0.0,0.0,0.0,0.0,0.0,0.0,0.0,0.0,
4.68,run,-0.57,3.44,0.24,0.47,1.19,0.0,0.0,0.0,0.117,5.27,0.7,5.8,10.99,11.51,-12.66,10.81,-46.49,91.14,-0.7,12.22,-13.54,15.29,-54.67,93.69,15.73,2.37,5.19,5.68,0.09,5.65,10.9,10.95,-12.7,10.68,-46.65,90.63,-0.74,11.47,-13.83,15.48,-54.58,93.73,15.79,2.01,5.08,0.1623,0.4562,-0.6983,0.3115,0.6536,-0.9141,0.3052,-0.3936,0.3016,-0.0212,0.663,-0.9275,0.4424,-0.5377,0.338,0.4511,0.4911,-0.705,0.006,0.013,0.0,0.0,0.006,0.0,0.0,0.0,0.013,0.0,0.013,0.006,0.006,0.0,0.0,0.0,0.006,0.0,0.1028,0.0031,0.0982,0.1963,0.2025,-0.224,0.1856,-0.813,1.5831,0.0015,0.2025,-0.2408,0.2684,-0.9557,1.6352,0.2746,0.0322,0.0859,0.0246,-0.0,-0.0,0.0,-0.0,0.0055,-0.0,0.0047,-0.0,0.0,-0.0,0.0057,0.0,0.0095,-0.0,0.0002,-0.0,0.0,0.029,-0.0627,-0.0021,-0.0073,-0.0259,0.163,0.4559,-0.6982,0.3116,0.6555,-0.9134,0.3055,-0.3916,0.3017,-0.0215,0.6636,-0.9263,0.441,-0.5363,0.3378,0.4494,0.4919,-0.7047,0.0,0.0,0.0,0.0,0.0,0.0,0.0,0.0,0.0,
4.72,run,-0.55,3.49,0.47,0.29,-0.46,0.0,0.0,0.0,0.117,5.71,0.7,5.8,10.99,11.51,-12.66,10.81,-46.58,91.14,-0.7,12.22,-13.62,15.29,-54.76,93.69,15.73,2.37,5.19,5.73,0.04,5.68,10.91,11.07,-12.56,10.69,-46.52,90.55,-0.78,11.49,-13.64,15.4,-54.55,93.57,15.66,2.05,5.06,0.1637,0.4552,-0.6979,0.3117,0.6559,-0.9125,0.3054,-0.3913,0.3006,-0.0223,0.6635,-0.9252,0.4401,-0.5374,0.3361,0.4476,0.4919,-0.7051,0.006,0.013,0.0,0.0,0.006,0.0,0.0,0.0,0.013,0.0,0.013,0.006,0.006,0.0,0.0,0.0,0.006,0.0,0.0905,0.0031,0.0982,0.1963,0.2025,-0.224,0.1856,-0.813,1.5831,0.0015,0.2025,-0.2408,0.2684,-0.9572,1.6352,0.2746,0.0322,0.0859,-0.0288,-0.0,-0.0,0.0,-0.0,0.0039,-0.0,0.0033,-0.0,0.0,-0.0,0.004,0.0,0.0009,-0.0,0.0001,-0.0,0.0,0.0288,-0.0616,0.0041,0.0082,0.0208,0.1623,0.4562,-0.6983,0.3115,0.6536,-0.9141,0.3052,-0.3936,0.3016,-0.0212,0.663,-0.9275,0.4424,-0.5377,0.338,0.4511,0.4911,-0.705,0.0,0.0,0.0,0.0,0.0,0.0,0.0,0.0,0.0,
4.76,run,-0.54,3.47,0.46,-0.01,-1.07,0.0,0.0,0.0,0.117,5.8,0.62,5.8,10.99,11.51,-12.66,10.81,-46.58,91.14,-0.7,12.22,-13.54,15.29,-54.76,93.69,15.73,2.37,5.19,5.68,0.06,5.72,10.88,11.0,-12.73,10.68,-46.64,90.55,-0.74,11.45,-13.75,15.45,-54.57,93.63,15.77,2.07,5.03,0.1622,0.4556,-0.6974,0.3108,0.6545,-0.9145,0.3052,-0.3934,0.3005,-0.021,0.6627,-0.9264,0.4413,-0.5376,0.3368,0.4505,0.4922,-0.7056,0.006,0.013,0.0,0.0,0.013,0.006,0.0,0.006,0.013,0.0,0.019,0.006,0.006,0.006,0.0,0.0,0.006,0.006,0.0982,0.0031,0.0982,0.1963,0.2025,-0.224,0.1856,-0.8145,1.5831,0.0015,0.2025,-0.2424,0.2684,-0.9587,1.6352,0.2746,0.0322,0.0859,0.0086,-0.0,-0.0,0.0,-0.0,0.0027,-0.0,-0.0034,-0.0,0.0,-0.0,-0.0029,0.0,-0.0051,-0.0,0.0001,-0.0,0.0,0.0305,-0.0579,0.0081,0.005,-0.0081,0.1637,0.4552,-0.6979,0.3117,0.6559,-0.9125,0.3054,-0.3913,0.3006,-0.0223,0.6635,-0.9252,0.4401,-0.5374,0.3361,0.4476,0.4919,-0.7051,0.0,0.0,0.0,0.0,0.0,0.0,0.0,0.0,0.0,
4.8,run,-0.55,3.5,0.04,0.41,1.79,0.0,0.0,0.0,0.117,5.27,0.62,5.8,10.99,11.51,-12.66,10.81,-46.58,91.14,-0.7,12.22,-13.54,15.29,-54.76,93.69,15.73,2.37,5.19,5.68,0.06,5.72,10.89,10.97,-12.73,10.69,-46.67,90.55,-0.74,11.45,-13.78,15.46,-54.59,93.62,15.78,2.06,5.03,0.1622,0.4556,-0.6974,0.311,0.654,-0.9145,0.3054,-0.3939,0.3006,-0.0212,0.6628,-0.9268,0.4417,-0.538,0.3367,0.4507,0.492,-0.7055,0.006,0.013,0.0,0.0,0.013,0.006,0.0,0.006,0.013,0.0,0.019,0.006,0.006,0.006,0.0,0.0,0.006,0.006,0.0997,0.0015,0.0982,0.1963,0.2025,-0.224,0.1856,-0.8145,1.5831,0.0015,0.2025,-0.2408,0.2684,-0.9587,1.6352,0.2746,0.0322,0.0859,0.0118,-0.0058,-0.0,0.0,-0.0,0.0019,-0.0,-0.0024,-0.0,0.0,-0.0,0.0037,0.0,-0.0036,-0.0,0.0001,-0.0,0.0,0.0317,-0.0589,0.008,-0.0002,-0.0186,0.1622,0.4557,-0.6974,0.3108,0.6545,-0.9145,0.3052,-0.3934,0.3005,-0.021,0.6627,-0.9264,0.4413,-0.5376,0.3368,0.4505,0.4922,-0.7056,0.0,0.0,0.0,0.0,0.0,0.0,0.0,0.0,0.0,
4.84,run,-0.54,3.49,0.18,-0.32,-1.49,0.0,0.0,0.0,0.117,5.98,0.62,5.8,10.99,11.51,-12.66,10.81,-46.67,91.14,-0.7,12.22,-13.71,15.38,-54.76,93.69,15.73,2.37,5.19,5.72,0.04,5.7,10.91,11.1,-12.62,10.71,-46.53,90.61,-0.78,11.5,-13.65,15.41,-54.53,93.64,15.69,2.1,5.09,0.1635,0.4553,-0.6976,0.3116,0.6563,-0.9131,0.3059,-0.3915,0.3013,-0.0223,0.6637,-0.9252,0.4403,-0.5369,0.3369,0.4483,0.4926,-0.7049,0.006,0.013,0.0,0.0,0.013,0.006,0.0,0.006,0.013,0.0,0.019,0.006,0.006,0.006,0.0,0.0,0.006,0.006,0.0905,0.0015,0.0982,0.1963,0.2025,-0.224,0.1856,-0.8145,1.5831,0.0015,0.2025,-0.2408,0.2684,-0.9587,1.6352,0.2746,0.0322,0.0859,-0.0263,-0.004,-0.0,0.0,-0.0,0.0013,-0.0,-0.0017,-0.0,0.0,-0.0,0.0026,0.0,-0.0025,-0.0,0.0,-0.0,0.0,0.0309,-0.0567,0.0007,0.0071,0.0312,0.1622,0.4556,-0.6974,0.311,0.654,-0.9145,0.3054,-0.3939,0.3006,-0.0212,0.6628,-0.9268,0.4417,-0.538,0.3367,0.4507,0.492,-0.7055,0.0,0.0,0.0,0.0,0.0,0.0,0.0,0.0,0.0,
4.88,run,-0.56,3.48,-0.5,-0.19,0.55,0.0,0.0,0.0,0.117,5.71,0.62,5.8,10.99,11.51,-12.66,10.81,-46.67,91.14,-0.7,12.22,-13.54,15.29,-54.76,93.69,15.73,2.37,5.19,5.67,0.11,5.71,10.88,10.98,-12.85,10.7,-46.72,90.64,-0.73,11.49,-13.87,15.5,-54.6,93.76,15.85,2.11,5.08,0.162,0.4565,-0.6976,0.3107,0.6542,-0.9159,0.3058,-0.3949,0.3016,-0.0209,0.6635,-0.9279,0.4428,-0.5381,0.3384,0.4528,0.4929,-0.705,0.013,0.013,0.0,0.0,0.013,0.006,0.0,0.0,0.013,0.0,0.019,0.013,0.006,0.006,0.0,0.0,0.0,0.0,0.1028,0.0015,0.0982,0.1963,0.2025,-0.224,0.1856,-0.8161,1.5831,0.0015,0.2025,-0.2439,0.27,-0.9587,1.6352,0.2746,0.0322,0.0859,0.0276,-0.0028,-0.0,0.0,-0.0,0.0009,-0.0,-0.0069,-0.0,0.0,-0.0,-0.0097,0.0058,-0.0018,-0.0,0.0,-0.0,0.0,0.0319,-0.0576,0.0032,-0.0055,-0.0259,0.1635,0.4553,-0.6976,0.3116,0.6563,-0.9131,0.3059,-0.3915,0.3013,-0.0223,0.6637,-0.9252,0.4403,-0.5369,0.3369,0.4483,0.4926,-0.7049,0.0,0.0,0.0,0.0,0.0,0.0,0.0,0.0,0.0,
4.92,run,-0.58,3.49,-0.56,-0.16,1.7,0.0,0.0,0.0,0.117,5.45,0.62,5.8,10.99,11.51,-12.66,10.81,-46.67,91.14,-0.7,12.22,-13.71,15.29,-54.76,93.69,15.73,2.37,5.19,5.71,0.08,5.7,10.91,11.05,-12.68,10.72,-46.58,90.72,-0.77,11.52,-13.75,15.45,-54.51,93.75,15.75,2.07,5.19,0.163,0.4559,-0.6976,0.3116,0.6554,-0.9139,0.3061,-0.3923,0.3026,-0.022,0.664,-0.9264,0.4415,-0.5365,0.3382,0.45,0.4922,-0.7037,0.013,0.013,0.0,0.0,0.013,0.006,0.0,0.0,0.013,0.0,0.019,0.013,0.006,0.006,0.0,0.0,0.0,0.0,0.0982,0.0015,0.0982,0.1963,0.2025,-0.224,0.1856,-0.8161,1.5831,0.0015,0.2025,-0.2408,0.2684,-0.9587,1.6352,0.2746,0.0322,0.0859,0.002,-0.002,-0.0,0.0,-0.0,0.0006,-0.0,-0.0049,-0.0,0.0,-0.0,0.0047,-0.0017,-0.0012,-0.0,0.0,-0.0,0.0,0.0298,-0.0588,-0.0088,-0.0033,0.0096,0.162,0.4565,-0.6976,0.3107,0.6542,-0.9159,0.3058,-0.3949,0.3016,-0.0209,0.6635,-0.9279,0.4428,-0.5381,0.3384,0.4528,0.4929,-0.705,0.0,0.0,0.0,0.0,0.0,0.0,0.0,0.0,0.0,
