t_s,phase,roll_deg,pitch_deg,gyro_x_dps,gyro_y_dps,gyro_z_dps,height_ref_mm,vx_ref_mps,vy_ref_mps,max_cur_a,q0_deg,q1_deg,q2_deg,q3_deg,q4_deg,q5_deg,q6_deg,q7_deg,q8_deg,q9_deg,q10_deg,q11_deg,q12_deg,q13_deg,q14_deg,q15_deg,q16_deg,q17_deg,cmd0_deg,cmd1_deg,cmd2_deg,cmd3_deg,cmd4_deg,cmd5_deg,cmd6_deg,cmd7_deg,cmd8_deg,cmd9_deg,cmd10_deg,cmd11_deg,cmd12_deg,cmd13_deg,cmd14_deg,cmd15_deg,cmd16_deg,cmd17_deg,act0,act1,act2,act3,act4,act5,act6,act7,act8,act9,act10,act11,act12,act13,act14,act15,act16,act17,cur0_a,cur1_a,cur2_a,cur3_a,cur4_a,cur5_a,cur6_a,cur7_a,cur8_a,cur9_a,cur10_a,cur11_a,cur12_a,cur13_a,cur14_a,cur15_a,cur16_a,cur17_a,obs0,obs1,obs2,obs3,obs4,obs5,obs6,obs7,obs8,obs9,obs10,obs11,obs12,obs13,obs14,obs15,obs16,obs17,obs18,obs19,obs20,obs21,obs22,obs23,obs24,obs25,obs26,obs27,obs28,obs29,obs30,obs31,obs32,obs33,obs34,obs35,obs36,obs37,obs38,obs39,obs40,obs41,obs42,obs43,obs44,obs45,obs46,obs47,obs48,obs49,obs50,obs51,obs52,obs53,obs54,obs55,obs56,obs57,obs58,obs59,obs60,obs61,obs62,obs63,obs64,obs65,obs66,obs67,rot60_k
0.0,run,0.14,2.68,-0.05,0.17,0.12,0.0,0.0,0.0,0.019,-0.09,0.53,0.18,0.18,0.53,0.09,0.18,0.26,0.62,-0.09,0.44,0.26,0.09,0.44,0.18,0.0,0.53,0.18,-0.03,-1.06,1.68,1.68,-0.78,1.59,1.68,-1.32,2.03,-1.59,1.94,1.68,1.59,-1.24,1.68,1.5,-0.97,1.68,-0.0007,0.3364,-0.0838,0.1322,0.4403,-0.3164,0.1658,-0.0812,-0.201,-0.2261,0.5732,-0.0845,0.0704,-0.0311,-0.2539,0.416,0.4362,-0.1785,0.013,0.006,0.0,0.006,0.006,0.006,0.0,0.019,0.006,0.013,0.006,0.006,0.013,0.019,0.013,0.013,0.013,0.006,0.0077,0.0,0.0,0.0,0.0,0.0,0.0,0.0015,0.0015,0.0,0.0,0.0015,0.0,0.0031,0.0,0.0,0.0,0.0,0.0071,0.0,0.0,0.0,0.0,0.0,0.0,0.0033,0.0038,0.0,0.0,0.0038,0.0,0.007,0.0,0.0,0.0,0.0,0.0,0.0,0.0083,0.0069,-0.0146,0.0,0.0,0.0,0.0,0.0,0.0,0.0,0.0,0.0,0.0,0.0,0.0,0.0,0.0,0.0,0.0,0.0,0.0,0.0,0.0,0.0,0.0,0.0,0.0,0.0,0.0,0.0,
0.04,run,0.14,2.71,0.08,0.12,-1.62,0.0,0.0,0.0,0.019,0.44,0.44,0.18,0.18,0.53,0.35,0.18,-0.18,0.7,-0.35,0.62,0.35,0.09,0.18,0.44,0.09,0.53,0.35,-0.39,0.44,3.18,3.18,0.72,3.09,3.18,-2.82,3.53,-2.2,3.44,3.18,3.09,-2.74,3.18,3.0,0.53,3.18,-0.0113,0.5496,-0.289,0.1675,0.5632,-0.4446,0.1802,0.1607,-0.1631,-0.0628,0.6187,-0.4025,0.1392,0.1306,-0.0201,0.3348,0.5789,-0.5159,0.013,0.006,0.0,0.006,0.006,0.006,0.0,0.019,0.006,0.013,0.006,0.006,0.013,0.019,0.013,0.013,0.013,0.006,-0.0015,0.0015,0.0,0.0,0.0,0.0,0.0,0.0015,0.0015,0.0,0.0,0.0015,0.0,0.0031,0.0,0.0,0.0,0.0,-0.0101,0.0025,0.0,0.0,0.0,0.0,0.0,0.0023,0.0026,0.0,0.0,0.0026,0.0,0.0049,0.0,0.0,0.0,0.0,-0.0012,0.0038,-0.0009,0.003,0.0022,-0.0007,0.3364,-0.0838,0.1322,0.4403,-0.3164,0.1658,-0.0812,-0.201,-0.2261,0.5732,-0.0845,0.0704,-0.0311,-0.2539,0.416,0.4362,-0.1785,0.0,0.0,0.0,0.0,0.0,0.0,0.0,0.0,0.0,
0.08,run,0.1,2.72,0.09,-0.0,1.3,0.0,0.0,0.0,0.019,-0.44,0.0,0.88,0.35,0.18,0.97,0.44,-0.79,1.23,-1.23,1.23,1.05,1.05,-0.62,1.14,1.05,0.26,0.88,-0.35,1.94,4.68,4.68,2.22,4.59,4.68,-4.32,5.03,-0.7,4.94,4.68,4.59,-4.24,4.68,4.5,2.03,4.68,-0.01,0.612,-0.3744,0.1888,0.6341,-0.4867,0.2011,0.1733,-0.0837,-0.0149,0.6299,-0.4611,0.1631,0.1712,-0.0757,0.2847,0.559,-0.5123,0.013,0.006,0.0,0.006,0.006,0.006,0.0,0.019,0.006,0.013,0.006,0.006,0.013,0.019,0.013,0.013,0.013,0.006,0.0077,0.0,0.0,0.0,0.0,0.0046,0.0,-0.0061,0.0031,-0.0046,0.0031,0.0031,0.0,-0.0015,0.0046,0.0015,0.0,0.0031,0.0275,-0.004,0.0,0.0,0.0,0.0173,0.0,-0.0272,0.0076,-0.0173,0.0115,0.0076,0.0,-0.0138,0.0173,0.0058,0.0,0.0115,-0.0017,0.0063,0.0015,0.0021,-0.0283,-0.0113,0.5496,-0.289,0.1675,0.5632,-0.4446,0.1802,0.1607,-0.1631,-0.0628,0.6187,-0.4025,0.1392,0.1306,-0.0201,0.3348,0.5789,-0.5159,0.0,0.0,0.0,0.0,0.0,0.0,0.0,0.0,0.0,
0.12,run,0.01,2.65,-0.69,-0.58,0.86,0.0,0.0,0.0,0.026,-0.7,0.53,4.48,4.39,0.62,4.92,4.39,-4.39,4.57,-2.02,4.83,5.01,4.31,-4.31,5.1,4.75,0.62,4.48,-0.44,3.44,6.18,6.18,3.72,6.09,6.18,-5.82,6.53,-0.07,6.44,6.18,5.11,-5.74,6.18,6.0,3.53,6.18,-0.0125,0.5927,-0.3898,0.1792,0.6284,-0.4964,0.1948,0.1755,-0.1108,-0.002,0.6256,-0.4761,0.1459,0.186,-0.1291,0.275,0.5771,-0.5406,0.0,0.006,0.0,0.0,0.006,0.006,0.013,0.019,0.013,0.019,0.0,0.0,0.006,0.013,0.006,0.026,0.013,0.0,-0.0077,-0.0077,0.0123,0.0031,-0.0061,0.0153,0.0046,-0.0169,0.0123,-0.0199,0.0138,0.0153,0.0169,-0.0153,0.0169,0.0184,-0.0046,0.0123,-0.0382,-0.0315,0.0459,0.0115,-0.023,0.0523,0.0172,-0.0592,0.0398,-0.0695,0.0483,0.0513,0.0632,-0.0614,0.058,0.0672,-0.0172,0.0425,-0.0046,0.0073,0.0016,-0.0001,0.0227,-0.01,0.612,-0.3744,0.1888,0.6341,-0.4867,0.2011,0.1733,-0.0837,-0.0149,0.6299,-0.4611,0.1631,0.1712,-0.0757,0.2847,0.559,-0.5123,0.0,0.0,0.0,0.0,0.0,0.0,0.0,0.0,0.0,
0.16,run,0.02,2.66,0.44,0.41,0.96,0.0,0.0,0.0,0.026,-0.26,1.23,5.1,5.27,1.41,5.45,5.01,-4.92,5.19,-1.32,5.45,5.54,4.75,-4.83,5.62,5.1,1.32,5.1,-1.94,1.94,7.68,4.68,2.45,7.59,5.27,-7.32,8.03,1.43,4.94,7.68,3.61,-7.24,7.68,7.5,5.03,6.55,-0.0582,0.4215,-0.456,0.1159,0.4991,-0.5164,0.1504,0.1862,-0.2961,0.0505,0.4953,-0.5274,0.0818,0.1925,-0.4145,0.2906,0.5595,-0.6876,0.0,0.006,0.0,0.0,0.006,0.006,0.013,0.019,0.013,0.019,0.0,0.0,0.006,0.013,0.006,0.026,0.013,0.0,-0.0123,0.0015,0.0752,0.0736,0.0015,0.0844,0.0736,-0.0798,0.0706,-0.0337,0.0767,0.0844,0.0736,-0.0798,0.0859,0.0828,0.0015,0.0752,-0.0316,-0.0123,0.0991,0.0831,-0.0079,0.1101,0.0855,-0.1084,0.0899,-0.0634,0.1007,0.1094,0.1046,-0.1115,0.1141,0.1156,-0.0055,0.0967,-0.0128,0.0015,-0.0121,-0.0101,0.015,-0.0125,0.5927,-0.3898,0.1792,0.6284,-0.4964,0.1948,0.1755,-0.1108,-0.002,0.6256,-0.4761,0.1459,0.186,-0.1291,0.275,0.5771,-0.5406,0.0,0.0,0.0,0.0,0.0,0.0,0.0,0.0,0.0,
0.2,run,0.04,2.69,0.3,0.02,-1.19,0.0,0.0,0.0,0.026,-0.53,2.2,5.71,5.45,2.29,5.98,5.62,-5.45,5.8,-0.09,6.06,6.06,4.83,-5.36,6.06,6.24,2.29,5.71,-3.33,0.44,9.18,4.48,0.95,9.09,4.31,-8.82,9.53,0.54,3.44,9.18,2.11,-8.74,9.18,9.0,3.53,5.05,-0.0951,0.3868,-0.4768,0.128,0.3898,-0.5242,0.123,0.2565,-0.4501,0.0154,0.3937,-0.5283,0.0255,0.2312,-0.5916,0.3143,0.4904,-0.7509,0.0,0.006,0.0,0.0,0.006,0.006,0.013,0.019,0.013,0.019,0.0,0.0,0.006,0.013,0.006,0.026,0.013,0.0,-0.0046,0.0138,0.0859,0.089,0.0153,0.0936,0.0844,-0.089,0.0813,-0.0215,0.0874,0.0936,0.0813,-0.089,0.0951,0.089,0.0138,0.0859,0.0153,0.0512,0.1217,0.133,0.0618,0.1219,0.1122,-0.1208,0.1153,0.0155,0.1229,0.1214,0.1106,-0.1229,0.1247,0.1108,0.056,0.12,-0.0117,0.0026,0.0076,0.0071,0.0167,-0.0582,0.4215,-0.456,0.1159,0.4991,-0.5164,0.1504,0.1862,-0.2961,0.0505,0.4953,-0.5274,0.0818,0.1925,-0.4145,0.2906,0.5595,-0.6876,0.0,0.0,0.0,0.0,0.0,0.0,0.0,0.0,0.0,
0.24,run,-0.02,2.68,-1.03,-0.45,2.95,0.0,0.0,0.0,0.045,-1.14,2.81,6.42,5.98,2.99,6.68,5.8,-6.15,6.59,0.0,6.24,6.77,4.75,-6.06,6.86,6.15,3.16,6.15,-3.3,-1.06,10.68,5.22,-0.55,10.59,4.38,-9.05,11.03,-0.16,1.94,10.68,0.61,-10.24,10.68,10.5,2.03,3.55,-0.0942,0.3809,-0.5161,0.149,0.3261,-0.5351,0.1252,0.29,-0.5018,-0.0046,0.3386,-0.538,0.0168,0.2376,-0.6114,0.3253,0.4357,-0.7819,0.0,0.0,0.013,0.0,0.006,0.013,0.0,0.026,0.019,0.013,0.0,0.013,0.013,0.033,0.006,0.045,0.006,0.0,-0.0092,0.0307,0.0966,0.092,0.0307,0.1028,0.0951,-0.0982,0.092,0.0,0.0982,0.1028,0.0828,-0.0982,0.1028,0.1089,0.0307,0.0966,-0.0063,0.0982,0.1249,0.1044,0.0999,0.1194,0.1182,-0.1185,0.1204,0.0902,0.1257,0.119,0.0831,-0.1201,0.1157,0.1513,0.1015,0.1237,-0.0101,0.0048,0.0052,0.0003,-0.0207,-0.0951,0.3868,-0.4768,0.128,0.3898,-0.5242,0.123,0.2565,-0.4501,0.0154,0.3937,-0.5283,0.0255,0.2312,-0.5916,0.3143,0.4904,-0.7509,0.0,0.0,0.0,0.0,0.0,0.0,0.0,0.0,0.0,
0.28,run,0.01,2.74,0.6,0.48,-0.31,0.0,0.0,0.0,0.045,-1.67,3.25,7.29,5.89,3.43,7.73,5.8,-7.21,7.56,0.44,6.15,7.91,3.96,-7.12,7.91,7.73,3.87,6.24,-3.26,-2.56,12.18,5.28,-2.05,12.09,4.52,-8.79,12.53,-0.21,0.44,12.18,0.55,-11.74,12.18,11.67,0.53,2.05,-0.0931,0.3519,-0.5399,0.1509,0.2964,-0.5345,0.1291,0.2947,-0.5136,-0.0061,0.3019,-0.5315,0.0156,0.2348,-0.6068,0.3333,0.4012,-0.7811,0.0,0.0,0.013,0.0,0.006,0.013,0.0,0.026,0.019,0.013,0.0,0.013,0.013,0.033,0.006,0.045,0.006,0.0,-0.0199,0.0414,0.1089,0.1012,0.043,0.115,0.0982,-0.1104,0.1058,0.0015,0.1012,0.115,0.0813,-0.1104,0.1166,0.1074,0.046,0.1043,-0.0447,0.1091,0.1335,0.1076,0.116,0.1296,0.0943,-0.129,0.1361,0.0689,0.0995,0.1294,0.0524,-0.1301,0.1328,0.1002,0.1286,0.1154,-0.0153,0.0043,-0.018,-0.0079,0.0515,-0.0942,0.3809,-0.5161,0.149,0.3261,-0.5351,0.1252,0.29,-0.5018,-0.0046,0.3386,-0.538,0.0168,0.2376,-0.6114,0.3253,0.4357,-0.7819,0.0,0.0,0.0,0.0,0.0,0.0,0.0,0.0,0.0,
0.32,run,0.01,2.72,-0.34,-0.49,-2.4,0.0,0.0,0.0,0.045,-2.64,3.25,8.53,5.71,3.43,9.05,5.71,-8.09,8.61,0.62,5.71,9.14,2.9,-8.44,9.23,8.96,4.22,6.06,-3.29,-4.06,13.68,4.92,-3.55,13.59,4.87,-9.97,14.03,0.1,-1.06,13.68,0.8,-13.24,13.68,12.28,-0.97,0.55,-0.0941,0.3083,-0.5522,0.1407,0.2473,-0.5334,0.1392,0.2733,-0.5197,0.0029,0.2685,-0.5355,0.0229,0.2019,-0.5987,0.3509,0.3828,-0.8036,0.0,0.0,0.013,0.0,0.006,0.013,0.0,0.026,0.019,0.013,0.0,0.013,0.013,0.033,0.006,0.045,0.006,0.0,-0.0291,0.0491,0.1243,0.0997,0.0506,0.1335,0.0982,-0.1289,0.1227,0.0092,0.0997,0.135,0.0675,-0.1289,0.135,0.135,0.0583,0.1058,-0.0656,0.1049,0.1506,0.0696,0.1098,0.1594,0.066,-0.159,0.1582,0.0768,0.0639,0.1649,-0.0148,-0.1597,0.1616,0.1731,0.1358,0.0865,-0.0126,0.0091,0.0105,0.0083,-0.0054,-0.0931,0.3519,-0.5399,0.1509,0.2964,-0.5345,0.1291,0.2947,-0.5136,-0.0061,0.3019,-0.5315,0.0156,0.2348,-0.6068,0.3333,0.4012,-0.7811,0.0,0.0,0.0,0.0,0.0,0.0,0.0,0.0,0.0,
0.36,run,0.01,2.73,0.31,0.28,4.38,0.0,0.0,0.0,0.045,-3.43,2.99,9.84,5.27,3.34,10.37,4.92,-8.79,10.02,-0.53,4.75,10.55,2.02,-9.76,10.63,9.93,4.22,5.36,-3.35,-5.56,15.18,4.31,-5.05,15.09,5.33,-11.47,15.53,0.55,-2.56,15.18,1.18,-14.74,15.1,12.97,-2.47,-0.95,-0.0958,0.2519,-0.5529,0.1233,0.1955,-0.5317,0.1523,0.2455,-0.5181,0.0156,0.2344,-0.5347,0.0337,0.1647,-0.587,0.3707,0.3662,-0.8164,0.0,0.019,0.006,0.006,0.026,0.013,0.0,0.026,0.019,0.019,0.026,0.013,0.0,0.033,0.006,0.0,0.019,0.013,-0.046,0.0491,0.1457,0.0966,0.0506,0.1565,0.0966,-0.1442,0.1411,0.0123,0.092,0.1565,0.0491,-0.1519,0.158,0.1565,0.0644,0.1028,-0.1093,0.0735,0.1861,0.0372,0.0769,0.1979,0.0404,-0.1689,0.1798,0.0653,0.016,0.196,-0.0794,-0.1982,0.1995,0.2018,0.1181,0.049,-0.0125,0.0078,-0.006,-0.0086,-0.0419,-0.0941,0.3083,-0.5522,0.1407,0.2473,-0.5334,0.1392,0.2733,-0.5197,0.0029,0.2685,-0.5355,0.0229,0.2019,-0.5987,0.3509,0.3828,-0.8036,0.0,0.0,0.0,0.0,0.0,0.0,0.0,0.0,0.0,
0.4,run,0.08,2.73,0.63,0.16,-2.54,0.0,0.0,0.0,0.045,-3.43,2.2,11.25,4.75,2.55,11.87,4.83,-9.58,11.43,0.26,3.52,11.95,1.14,-11.25,12.04,11.51,3.96,4.39,-3.47,-7.06,16.68,3.93,-6.55,16.59,5.67,-12.97,17.03,0.82,-4.06,16.68,1.41,-16.24,15.75,13.63,-3.97,-2.45,-0.0991,0.1962,-0.5401,0.1124,0.1602,-0.5271,0.1621,0.2181,-0.5173,0.0233,0.2168,-0.5265,0.0403,0.1337,-0.5794,0.3893,0.361,-0.8133,0.0,0.019,0.006,0.006,0.026,0.013,0.0,0.026,0.019,0.019,0.026,0.013,0.0,0.033,0.006,0.0,0.019,0.013,-0.0598,0.0445,0.1687,0.089,0.0491,0.1795,0.0828,-0.1565,0.1657,-0.0077,0.0752,0.181,0.0337,-0.1749,0.1825,0.1733,0.0644,0.0905,-0.1282,0.0342,0.2165,-0.0027,0.0481,0.2248,-0.0234,-0.1642,0.2179,-0.029,-0.0521,0.2292,-0.1131,-0.225,0.2316,0.2045,0.0827,-0.0117,-0.0128,0.0084,0.0053,0.0049,0.0765,-0.0958,0.2519,-0.5529,0.1233,0.1955,-0.5317,0.1523,0.2455,-0.5181,0.0156,0.2344,-0.5347,0.0337,0.1647,-0.587,0.3707,0.3662,-0.8164,0.0,0.0,0.0,0.0,0.0,0.0,0.0,0.0,0.0,
0.44,run,0.05,2.74,-0.24,0.03,-0.97,0.0,0.0,0.0,0.045,-3.16,1.14,12.66,4.66,1.49,13.18,4.83,-10.55,12.74,0.79,2.2,13.27,1.05,-12.57,13.27,11.69,3.25,3.16,-3.54,-8.56,18.18,3.09,-8.05,18.09,6.36,-14.47,18.53,1.5,-5.56,18.18,2.15,-17.74,16.64,14.3,-5.14,-3.95,-0.1013,0.1471,-0.5216,0.0882,0.1104,-0.5324,0.1818,0.1758,-0.5091,0.043,0.1959,-0.5356,0.0614,0.0917,-0.569,0.4086,0.361,-0.8385,0.0,0.019,0.006,0.006,0.026,0.013,0.0,0.026,0.019,0.019,0.026,0.013,0.0,0.033,0.006,0.0,0.019,0.013,-0.0598,0.0307,0.1933,0.0798,0.0353,0.2056,0.0813,-0.1703,0.1902,0.0061,0.0537,0.2056,0.0184,-0.201,0.2071,0.201,0.0598,0.0736,-0.0898,-0.0287,0.2451,-0.037,-0.019,0.2567,-0.0223,-0.1675,0.246,0.0323,-0.1183,0.254,-0.1376,-0.2568,0.2557,0.2483,0.0403,-0.0725,-0.0068,0.008,0.0111,0.0029,-0.0443,-0.0991,0.1962,-0.5401,0.1124,0.1602,-0.5271,0.1621,0.2181,-0.5173,0.0233,0.2168,-0.5265,0.0403,0.1337,-0.5794,0.3893,0.361,-0.8133,0.0,0.0,0.0,0.0,0.0,0.0,0.0,0.0,0.0,
0.48,run,0.08,2.75,0.8,0.55,0.74,0.0,0.0,0.0,0.045,-3.69,-0.18,14.06,4.04,0.18,14.68,4.92,-11.78,14.15,0.53,0.79,14.77,1.05,-13.97,14.59,13.27,2.2,1.76,-3.61,-10.06,19.68,2.24,-9.55,19.14,6.92,-15.97,20.03,2.08,-7.06,19.68,2.77,-19.24,17.86,14.77,-5.16,-5.45,-0.103,0.101,-0.4901,0.064,0.0835,-0.5396,0.1977,0.1506,-0.4982,0.0595,0.182,-0.5322,0.0792,0.0683,-0.5546,0.4219,0.3608,-0.8342,0.013,0.026,0.006,0.006,0.026,0.013,0.013,0.039,0.019,0.026,0.026,0.006,0.013,0.026,0.006,0.013,0.039,0.013,-0.0552,0.0123,0.2178,0.0782,0.0169,0.2286,0.0813,-0.1871,0.2132,0.0153,0.0307,0.2286,0.0169,-0.224,0.2286,0.204,0.0476,0.0522,-0.0458,-0.0884,0.2627,-0.0316,-0.0816,0.2651,-0.0156,-0.1799,0.2576,0.0568,-0.1682,0.2632,-0.102,-0.2652,0.2587,0.1852,-0.0173,-0.1305,-0.0088,0.0093,-0.0041,0.0006,-0.0169,-0.1013,0.1471,-0.5216,0.0882,0.1104,-0.5324,0.1818,0.1758,-0.5091,0.043,0.1959,-0.5356,0.0614,0.0917,-0.569,0.4086,0.361,-0.8385,0.0,0.0,0.0,0.0,0.0,0.0,0.0,0.0,0.0,
0.52,run,0.05,2.73,-0.68,-0.27,-0.81,0.0,0.0,0.0,0.045,-3.6,-1.58,15.38,3.16,-1.23,16.08,5.98,-13.01,15.56,1.76,-0.62,16.17,1.14,-15.38,15.73,13.8,0.97,0.35,-3.51,-11.56,21.18,1.66,-11.05,18.24,7.52,-17.47,21.53,2.49,-8.56,19.08,3.33,-20.74,18.25,15.33,-4.17,-6.48,-0.1002,0.0647,-0.4646,0.0473,0.0601,-0.5501,0.2148,0.1163,-0.4889,0.0712,0.1868,-0.5403,0.0951,0.0355,-0.55,0.4379,0.3788,-0.8409,0.013,0.026,0.006,0.006,0.026,0.013,0.013,0.039,0.019,0.026,0.026,0.006,0.013,0.026,0.006,0.013,0.039,0.013,-0.0644,-0.0107,0.2424,0.0675,-0.0061,0.2546,0.0828,-0.2086,0.2378,0.0107,0.0061,0.2546,0.0169,-0.2485,0.2516,0.2316,0.0291,0.0276,-0.0663,-0.1476,0.2753,-0.0621,-0.1429,0.2827,-0.0052,-0.206,0.2718,0.0226,-0.2092,0.2814,-0.0714,-0.2771,0.2668,0.2325,-0.0807,-0.1828,-0.0069,0.0099,0.014,0.0095,0.013,-0.103,0.101,-0.4901,0.064,0.0835,-0.5396,0.1977,0.1506,-0.4982,0.0595,0.182,-0.5322,0.0792,0.0683,-0.5546,0.4219,0.3608,-0.8342,0.0,0.0,0.0,0.0,0.0,0.0,0.0,0.0,0.0,
0.56,run,0.05,2.73,0.02,-0.02,-0.96,0.0,0.0,0.0,0.045,-3.16,-2.99,16.79,2.81,-2.55,17.31,6.5,-14.24,16.96,2.11,-2.11,17.4,2.2,-16.79,16.79,14.33,-0.44,-1.05,-3.44,-13.06,22.68,0.85,-12.55,17.47,8.14,-18.97,23.03,3.22,-10.06,18.57,4.03,-22.24,19.75,15.7,-3.88,-7.05,-0.0983,0.0377,-0.4396,0.0242,0.0425,-0.5592,0.2325,0.0946,-0.4767,0.0919,0.1847,-0.5462,0.115,0.0139,-0.5274,0.4485,0.384,-0.8477,0.013,0.026,0.006,0.006,0.026,0.013,0.013,0.039,0.019,0.026,0.026,0.006,0.013,0.026,0.006,0.013,0.039,0.013,-0.0629,-0.0353,0.2654,0.0522,-0.0307,0.2792,0.1012,-0.2301,0.2623,0.0322,-0.0184,0.2792,0.0184,-0.273,0.2715,0.2408,0.0077,0.0031,-0.0407,-0.1954,0.2791,-0.101,-0.1921,0.29,0.0655,-0.2248,0.2824,0.0964,-0.2386,0.2891,-0.0442,-0.2861,0.2616,0.1973,-0.1371,-0.2201,-0.0091,0.0082,-0.0118,-0.0047,-0.0142,-0.1002,0.0647,-0.4646,0.0473,0.0601,-0.5501,0.2148,0.1163,-0.4889,0.0712,0.1868,-0.5403,0.0951,0.0355,-0.55,0.4379,0.3788,-0.8409,0.0,0.0,0.0,0.0,0.0,0.0,0.0,0.0,0.0,
0.6,run,0.04,2.74,-0.12,0.0,1.42,0.0,0.0,0.0,0.045,-3.78,-4.39,18.28,2.11,-4.04,18.19,7.21,-15.64,18.37,2.29,-3.52,18.46,2.99,-18.28,17.84,15.47,-1.67,-2.46,-3.33,-14.56,24.18,0.06,-14.05,16.76,8.55,-20.47,24.53,3.81,-11.56,18.22,4.52,-23.74,20.8,16.06,-2.93,-6.88,-0.095,0.0161,-0.4113,0.0016,0.0313,-0.5676,0.2442,0.0722,-0.467,0.1088,0.1901,-0.5503,0.1292,-0.0036,-0.52,0.4589,0.4013,-0.8457,0.019,0.026,0.006,0.0,0.026,0.006,0.0,0.033,0.019,0.006,0.019,0.0,0.013,0.026,0.0,0.006,0.026,0.013,-0.0552,-0.0598,0.2899,0.046,-0.0537,0.3007,0.1104,-0.2516,0.2869,0.0383,-0.0445,0.3007,0.0368,-0.2976,0.2899,0.25,-0.0169,-0.0215,0.0002,-0.2286,0.2872,-0.0937,-0.2205,0.2834,0.0802,-0.2377,0.2895,0.0904,-0.2645,0.2827,0.0379,-0.2921,0.252,0.1725,-0.1878,-0.2458,-0.0094,0.0087,0.0003,-0.0003,-0.0167,-0.0983,0.0377,-0.4396,0.0242,0.0425,-0.5592,0.2325,0.0946,-0.4767,0.0919,0.1847,-0.5462,0.115,0.0139,-0.5274,0.4485,0.384,-0.8477,0.0,0.0,0.0,0.0,0.0,0.0,0.0,0.0,0.0,
0.64,run,0.03,2.77,-0.01,0.19,-0.2,0.0,0.0,0.0,0.045,-3.34,-5.8,19.69,0.88,-5.36,18.81,7.73,-17.05,19.86,3.43,-4.92,19.07,3.69,-19.69,18.98,15.38,-2.55,-3.87,-3.1,-16.06,25.68,-0.52,-15.55,15.81,9.03,-21.97,26.03,4.35,-13.06,17.6,5.0,-25.24,22.08,16.42,-1.69,-7.38,-0.0887,-0.0028,-0.39,-0.0149,0.0272,-0.5787,0.2581,0.0441,-0.4521,0.1244,0.2019,-0.5577,0.143,-0.0317,-0.505,0.4691,0.4239,-0.8515,0.019,0.026,0.006,0.0,0.026,0.006,0.0,0.033,0.019,0.006,0.019,0.0,0.013,0.026,0.0,0.006,0.026,0.013,-0.066,-0.0844,0.316,0.0337,-0.0798,0.316,0.1227,-0.2761,0.3114,0.0414,-0.069,0.3191,0.0506,-0.3237,0.3083,0.27,-0.0383,-0.046,-0.0401,-0.252,0.2987,-0.1116,-0.2521,0.2558,0.1022,-0.2583,0.2946,0.0748,-0.2772,0.2669,0.0783,-0.3022,0.2454,0.1955,-0.2119,-0.2641,-0.0099,0.0091,-0.0021,0.0001,0.0248,-0.095,0.0161,-0.4113,0.0016,0.0313,-0.5676,0.2442,0.0722,-0.467,0.1088,0.1901,-0.5503,0.1292,-0.0036,-0.52,0.4589,0.4013,-0.8457,0.0,0.0,0.0,0.0,0.0,0.0,0.0,0.0,0.0,
0.68,run,0.05,2.77,0.14,-0.03,-0.55,0.0,0.0,0.0,0.045,-3.08,-7.21,21.09,0.53,-6.86,18.98,8.26,-18.46,21.18,3.52,-6.33,19.51,4.22,-21.01,20.04,16.26,-3.25,-5.01,-3.12,-17.56,27.18,-1.37,-17.05,15.69,9.51,-23.47,27.53,5.15,-13.81,17.54,5.57,-26.74,23.58,16.68,-0.98,-7.76,-0.0892,-0.0203,-0.3615,-0.0391,0.0282,-0.5802,0.2716,0.0191,-0.4331,0.1472,0.2035,-0.5584,0.159,-0.0528,-0.4733,0.4765,0.4367,-0.856,0.019,0.026,0.006,0.0,0.026,0.006,0.0,0.033,0.019,0.006,0.019,0.0,0.013,0.026,0.0,0.006,0.026,0.013,-0.0583,-0.1089,0.3405,0.0123,-0.1028,0.3267,0.1319,-0.3007,0.3375,0.0614,-0.0936,0.3298,0.0629,-0.3482,0.3283,0.2684,-0.0537,-0.0706,0.0008,-0.2687,0.3014,-0.1589,-0.263,0.2195,0.1061,-0.2731,0.3043,0.1274,-0.2863,0.2272,0.1009,-0.3038,0.2468,0.1311,-0.206,-0.2771,-0.0107,0.0121,-0.0001,0.0033,-0.0034,-0.0887,-0.0028,-0.39,-0.0149,0.0272,-0.5787,0.2581,0.0441,-0.4521,0.1244,0.2019,-0.5577,0.143,-0.0317,-0.505,0.4691,0.4239,-0.8515,0.0,0.0,0.0,0.0,0.0,0.0,0.0,0.0,0.0,
0.72,run,0.03,2.75,-1.08,-0.52,0.31,0.0,0.0,0.0,0.045,-3.52,-8.61,22.59,0.35,-8.26,18.98,8.79,-19.78,22.59,4.39,-7.73,19.42,4.92,-22.59,21.27,16.44,-3.52,-6.06,-2.94,-19.06,28.68,-2.25,-18.55,15.07,9.82,-24.97,29.03,5.89,-13.35,17.14,6.08,-28.24,25.08,16.99,0.28,-8.28,-0.0839,-0.0394,-0.3384,-0.0642,0.0286,-0.5874,0.2805,-0.0147,-0.4119,0.1683,0.2119,-0.5631,0.1738,-0.0801,-0.4595,0.4854,0.4596,-0.8622,0.0,0.026,0.013,0.019,0.026,0.026,0.006,0.026,0.019,0.0,0.019,0.013,0.006,0.033,0.006,0.026,0.0,0.006,-0.0537,-0.1335,0.3651,0.0061,-0.1289,0.3298,0.1411,-0.3252,0.3605,0.0629,-0.1181,0.3375,0.0721,-0.3712,0.3467,0.2838,-0.066,-0.0905,0.0179,-0.2804,0.3033,-0.1343,-0.2822,0.1652,0.1089,-0.2835,0.2995,0.0949,-0.2927,0.1879,0.1053,-0.2992,0.2419,0.1494,-0.1904,-0.269,-0.009,0.0115,0.0024,-0.0006,-0.0097,-0.0892,-0.0203,-0.3615,-0.0391,0.0282,-0.5802,0.2716,0.0191,-0.4331,0.1472,0.2035,-0.5584,0.159,-0.0528,-0.4733,0.4765,0.4367,-0.856,0.0,0.0,0.0,0.0,0.0,0.0,0.0,0.0,0.0,
0.76,run,0.04,2.77,0.18,0.19,0.12,0.0,0.0,0.0,0.045,-2.72,-10.11,23.91,-1.41,-9.67,18.37,9.23,-21.27,24.08,5.1,-9.14,19.07,5.45,-23.91,22.59,16.7,-3.52,-6.94,-2.71,-20.56,30.18,-3.06,-20.05,14.44,10.31,-26.47,30.53,6.55,-13.15,17.18,6.51,-29.74,26.58,17.26,1.16,-8.61,-0.0774,-0.0559,-0.3143,-0.0875,0.037,-0.5949,0.2945,-0.0468,-0.387,0.1871,0.2155,-0.5626,0.186,-0.1078,-0.4305,0.493,0.4757,-0.866,0.0,0.026,0.013,0.019,0.026,0.026,0.006,0.026,0.019,0.0,0.019,0.013,0.006,0.033,0.006,0.026,0.0,0.006,-0.0614,-0.158,0.3912,0.0031,-0.1534,0.3298,0.1503,-0.3482,0.385,0.0782,-0.1427,0.3359,0.0844,-0.3988,0.3682,0.2869,-0.0706,-0.1089,-0.0162,-0.2881,0.3098,-0.1055,-0.2893,0.1156,0.1106,-0.2845,0.3015,0.1238,-0.2967,0.1258,0.1196,-0.3127,0.2497,0.1161,-0.1505,-0.2571,-0.0113,0.0099,-0.0189,-0.0091,0.0054,-0.0839,-0.0394,-0.3384,-0.0642,0.0286,-0.5874,0.2805,-0.0147,-0.4119,0.1683,0.2119,-0.5631,0.1738,-0.0801,-0.4595,0.4854,0.4596,-0.8622,0.0,0.0,0.0,0.0,0.0,0.0,0.0,0.0,0.0,
0.8,run,0.03,2.75,-1.08,-1.14,-0.72,0.0,0.0,0.0,0.045,-2.72,-11.43,25.31,-1.85,-11.07,17.31,9.67,-22.68,25.4,5.62,-10.46,18.19,5.98,-25.31,23.73,17.14,-3.16,-7.65,-2.72,-22.06,31.68,-3.77,-21.55,14.65,10.68,-27.97,32.03,7.25,-12.83,16.94,6.93,-31.24,28.08,17.51,2.04,-9.41,-0.0777,-0.0684,-0.2926,-0.1078,0.0451,-0.5924,0.3052,-0.0791,-0.3638,0.2072,0.2213,-0.5654,0.198,-0.1335,-0.4,0.5003,0.4916,-0.8754,0.0,0.026,0.013,0.019,0.026,0.026,0.006,0.026,0.019,0.0,0.019,0.013,0.006,0.033,0.006,0.026,0.0,0.006,-0.0476,-0.1841,0.4142,-0.0276,-0.1779,0.3191,0.158,-0.3743,0.4111,0.0905,-0.1672,0.3298,0.0936,-0.4218,0.3912,0.2915,-0.0706,-0.1243,0.0405,-0.2995,0.3032,-0.1889,-0.2946,0.0406,0.1062,-0.297,0.3088,0.1327,-0.2998,0.065,0.1182,-0.3052,0.2611,0.0985,-0.1053,-0.2375,-0.0103,0.0118,0.0031,0.0033,0.0022,-0.0774,-0.0559,-0.3143,-0.0875,0.037,-0.5949,0.2945,-0.0468,-0.387,0.1871,0.2155,-0.5626,0.186,-0.1078,-0.4305,0.493,0.4757,-0.866,0.0,0.0,0.0,0.0,0.0,0.0,0.0,0.0,0.0,
0.84,run,0.03,2.75,-0.34,-0.03,0.22,0.0,0.0,0.0,0.045,-2.99,-12.83,26.81,-1.93,-12.57,16.26,10.02,-24.08,26.81,6.42,-11.51,17.49,6.5,-26.81,25.14,16.88,-2.46,-8.35,-2.45,-23.56,33.18,-4.59,-21.96,14.12,11.07,-29.47,33.53,7.88,-12.51,16.62,7.32,-32.74,29.58,17.77,3.09,-10.07,-0.07,-0.0802,-0.2742,-0.131,0.0553,-0.5986,0.3164,-0.1158,-0.3332,0.2251,0.2272,-0.5691,0.2091,-0.1617,-0.3749,0.5077,0.5107,-0.8831,0.0,0.026,0.006,0.019,0.026,0.006,0.006,0.019,0.019,0.006,0.013,0.0,0.006,0.033,0.006,0.019,0.013,0.013,-0.0476,-0.2071,0.4387,-0.0353,-0.2025,0.3007,0.1657,-0.3988,0.4341,0.0997,-0.1902,0.3145,0.1028,-0.4464,0.4111,0.2991,-0.0644,-0.1365,0.0283,-0.2955,0.3039,-0.1609,-0.2978,-0.0403,0.103,-0.2995,0.3021,0.1273,-0.2957,-0.0118,0.1171,-0.3053,0.2572,0.0976,-0.0508,-0.2121,-0.0111,0.0104,-0.0188,-0.0199,-0.0126,-0.0777,-0.0684,-0.2926,-0.1078,0.0451,-0.5924,0.3052,-0.0791,-0.3638,0.2072,0.2213,-0.5654,0.198,-0.1335,-0.4,0.5003,0.4916,-0.8754,0.0,0.0,0.0,0.0,0.0,0.0,0.0,0.0,0.0,
0.88,run,0.08,2.8,0.83,0.81,1.02,0.0,0.0,0.0,0.045,-2.2,-14.59,28.48,-4.04,-14.24,15.12,10.63,-25.75,28.56,7.21,-12.39,16.88,6.94,-28.48,26.81,17.84,-1.05,-9.23,-2.18,-25.06,34.68,-5.22,-20.89,13.69,11.48,-30.97,35.03,8.22,-12.16,16.38,7.57,-34.24,31.08,17.97,3.93,-10.35,-0.0623,-0.0901,-0.2566,-0.1492,0.0748,-0.6037,0.328,-0.1506,-0.3052,0.2348,0.2334,-0.572,0.2162,-0.1883,-0.3476,0.5133,0.526,-0.8864,0.0,0.026,0.006,0.019,0.026,0.006,0.006,0.019,0.019,0.006,0.013,0.0,0.006,0.033,0.006,0.019,0.013,0.013,-0.0522,-0.2316,0.4648,-0.0368,-0.2286,0.2823,0.1718,-0.4234,0.4587,0.1135,-0.2086,0.3022,0.112,-0.4725,0.4357,0.2945,-0.0522,-0.1488,0.0025,-0.2993,0.311,-0.1184,-0.3067,-0.0975,0.0952,-0.3021,0.3039,0.1411,-0.2764,-0.0545,0.1167,-0.3119,0.2725,0.051,0.0107,-0.1947,-0.0113,0.0102,-0.0059,-0.0006,0.0039,-0.07,-0.0802,-0.2742,-0.131,0.0553,-0.5986,0.3164,-0.1158,-0.3332,0.2251,0.2272,-0.5691,0.2091,-0.1617,-0.3749,0.5077,0.5107,-0.8831,0.0,0.0,0.0,0.0,0.0,0.0,0.0,0.0,0.0,
0.92,run,0.0,2.78,-1.33,-0.93,1.0,0.0,0.0,0.0,0.045,-2.29,-16.0,29.97,-3.52,-15.64,14.5,10.9,-27.16,29.97,7.73,-12.83,16.61,7.21,-29.88,28.04,17.58,0.26,-9.76,-2.16,-26.56,36.18,-5.71,-20.12,13.63,11.77,-32.47,36.53,8.75,-11.6,15.63,7.72,-35.74,32.58,18.11,4.72,-11.72,-0.0618,-0.0964,-0.2437,-0.1632,0.0886,-0.6043,0.3363,-0.1881,-0.2775,0.2501,0.2436,-0.5808,0.2204,-0.2127,-0.3184,0.5175,0.5403,-0.9026,0.0,0.026,0.006,0.019,0.026,0.006,0.006,0.019,0.019,0.006,0.013,0.0,0.006,0.033,0.006,0.019,0.013,0.013,-0.0383,-0.2623,0.4939,-0.0736,-0.2577,0.2623,0.1825,-0.4525,0.4893,0.1273,-0.224,0.2915,0.1197,-0.5016,0.4648,0.3114,-0.0276,-0.1641,0.0452,-0.3061,0.3094,-0.1987,-0.3064,-0.131,0.1004,-0.3032,0.3093,0.1422,-0.2417,-0.0719,0.1058,-0.3101,0.2825,0.0888,0.0847,-0.1845,-0.0069,0.0146,0.0145,0.0142,0.0178,-0.0623,-0.0901,-0.2566,-0.1492,0.0748,-0.6037,0.328,-0.1506,-0.3052,0.2348,0.2334,-0.572,0.2162,-0.1883,-0.3476,0.5133,0.526,-0.8864,0.0,0.0,0.0,0.0,0.0,0.0,0.0,0.0,0.0,
0.96,run,0.01,2.81,0.57,0.87,1.41,0.0,0.0,0.0,0.045,-2.37,-17.49,31.29,-4.48,-16.96,13.97,11.16,-28.48,31.46,8.17,-12.83,16.17,7.47,-31.29,29.36,18.11,1.58,-10.28,-1.9,-28.06,37.68,-6.26,-19.05,13.3,12.06,-33.97,38.03,8.93,-11.31,15.35,7.77,-37.24,34.08,18.21,5.39,-11.67,-0.0544,-0.1059,-0.2292,-0.1789,0.1082,-0.6082,0.3447,-0.2193,-0.2474,0.255,0.2489,-0.5841,0.222,-0.2298,-0.299,0.5204,0.5526,-0.902,0.006,0.019,0.013,0.0,0.019,0.006,0.013,0.019,0.019,0.006,0.006,0.006,0.0,0.026,0.006,0.006,0.006,0.013,-0.0399,-0.2869,0.52,-0.0644,-0.2823,0.2516,0.1871,-0.4771,0.5139,0.1365,-0.2316,0.2869,0.1243,-0.5262,0.4863,0.3068,-0.0046,-0.1733,0.0259,-0.3053,0.3133,-0.1049,-0.3056,-0.1316,0.0874,-0.3033,0.3076,0.1337,-0.1977,-0.0674,0.0911,-0.3081,0.2774,0.0451,0.1447,-0.1633,-0.0133,0.0123,-0.0232,-0.0162,0.0175,-0.0618,-0.0964,-0.2437,-0.1632,0.0886,-0.6043,0.3363,-0.1881,-0.2775,0.2501,0.2436,-0.5808,0.2204,-0.2127,-0.3184,0.5175,0.5403,-0.9026,0.0,0.0,0.0,0.0,0.0,0.0,0.0,0.0,0.0,
1.0,run,0.02,2.89,0.12,0.68,2.52,0.0,0.0,0.0,0.045,-1.58,-18.9,32.7,-5.8,-18.02,13.45,11.6,-29.97,32.87,8.7,-12.74,15.56,7.65,-32.7,30.85,18.11,2.9,-10.99,-1.85,-29.56,39.18,-6.6,-18.05,13.18,12.26,-35.47,39.53,9.18,-10.56,14.64,7.72,-38.62,35.58,18.24,6.09,-12.57,-0.053,-0.113,-0.2166,-0.1886,0.1264,-0.6096,0.3504,-0.2526,-0.2261,0.2622,0.2625,-0.5924,0.2205,-0.2477,-0.2815,0.5213,0.5653,-0.9125,0.006,0.019,0.013,0.0,0.019,0.006,0.013,0.019,0.019,0.006,0.006,0.006,0.0,0.026,0.006,0.006,0.006,0.013,-0.0414,-0.3129,0.543,-0.0813,-0.3053,0.2424,0.1917,-0.5001,0.54,0.1442,-0.2316,0.2792,0.1289,-0.5507,0.5093,0.316,0.0184,-0.1825,0.0124,-0.3115,0.3056,-0.1367,-0.3002,-0.1266,0.0784,-0.2986,0.3131,0.1223,-0.1384,-0.0759,0.081,-0.3077,0.2805,0.0661,0.1875,-0.1488,-0.0123,0.0153,0.01,0.0153,0.0247,-0.0544,-0.1059,-0.2292,-0.1789,0.1082,-0.6082,0.3447,-0.2193,-0.2474,0.255,0.2489,-0.5841,0.222,-0.2298,-0.299,0.5204,0.5526,-0.902,0.0,0.0,0.0,0.0,0.0,0.0,0.0,0.0,0.0,
1.04,run,-0.05,2.87,-1.4,-1.22,-0.39,0.0,0.0,0.0,0.045,-1.93,-20.3,34.1,-5.19,-18.9,13.27,11.87,-31.38,34.19,8.96,-11.95,15.29,7.56,-34.1,32.26,18.02,3.96,-11.43,-1.81,-31.06,40.68,-6.93,-16.9,13.27,12.42,-36.97,41.03,9.5,-9.97,14.05,7.67,-39.33,37.08,18.18,6.5,-12.96,-0.0518,-0.1169,-0.206,-0.1979,0.1473,-0.6086,0.355,-0.2813,-0.2023,0.2714,0.2732,-0.5995,0.219,-0.2605,-0.2593,0.5193,0.5728,-0.9172,0.006,0.019,0.013,0.0,0.019,0.006,0.013,0.019,0.019,0.006,0.006,0.006,0.0,0.026,0.006,0.006,0.006,0.013,-0.0276,-0.3375,0.5676,-0.1043,-0.3237,0.2332,0.1994,-0.5262,0.5645,0.1534,-0.2301,0.2684,0.1319,-0.5752,0.5354,0.316,0.0414,-0.1948,0.0594,-0.3081,0.304,-0.1802,-0.2777,-0.1224,0.083,-0.3047,0.3092,0.1194,-0.0912,-0.0926,0.068,-0.3055,0.292,0.0462,0.2157,-0.1492,-0.0117,0.0227,0.002,0.0118,0.044,-0.053,-0.113,-0.2166,-0.1886,0.1264,-0.6096,0.3504,-0.2526,-0.2261,0.2622,0.2625,-0.5924,0.2205,-0.2477,-0.2815,0.5213,0.5653,-0.9125,0.0,0.0,0.0,0.0,0.0,0.0,0.0,0.0,0.0,
1.08,run,-0.01,2.94,0.89,0.71,1.77,0.0,0.0,0.0,0.045,-2.02,-21.71,35.6,-6.86,-19.42,13.36,12.04,-32.78,35.68,9.14,-11.16,14.59,7.56,-35.51,33.66,18.19,4.92,-12.13,-1.55,-31.83,42.18,-7.25,-15.68,12.53,12.63,-38.47,42.53,9.56,-9.25,12.95,7.62,-40.13,38.58,18.18,7.04,-13.12,-0.0442,-0.1242,-0.1958,-0.207,0.1694,-0.6172,0.3608,-0.3152,-0.172,0.2733,0.2863,-0.6123,0.2178,-0.2752,-0.2456,0.5194,0.5826,-0.919,0.0,0.026,0.013,0.013,0.006,0.013,0.006,0.026,0.019,0.006,0.006,0.013,0.0,0.026,0.006,0.0,0.006,0.006,-0.0337,-0.362,0.5921,-0.0936,-0.339,0.2301,0.204,-0.5507,0.5875,0.158,-0.2163,0.2638,0.1304,-0.5998,0.5599,0.3145,0.0598,-0.2025,0.018,-0.3097,0.3068,-0.085,-0.2531,-0.0974,0.0758,-0.3073,0.3046,0.1012,-0.011,-0.0824,0.0417,-0.3078,0.2984,0.0265,0.2215,-0.1338,-0.0176,0.0207,-0.0245,-0.0214,-0.0069,-0.0518,-0.1169,-0.206,-0.1979,0.1473,-0.6086,0.355,-0.2813,-0.2023,0.2714,0.2732,-0.5995,0.219,-0.2605,-0.2593,0.5193,0.5728,-0.9172,0.0,0.0,0.0,0.0,0.0,0.0,0.0,0.0,0.0,
1.12,run,0.03,2.99,-0.25,-0.39,-1.26,0.0,0.0,0.0,0.045,-1.32,-23.12,37.0,-7.29,-19.6,13.01,12.3,-34.28,37.09,9.49,-10.37,13.89,7.56,-36.83,35.07,18.19,5.8,-12.66,-1.6,-32.27,43.68,-7.52,-14.44,12.72,12.75,-39.97,44.03,9.93,-8.3,12.47,7.43,-40.72,40.08,17.96,7.56,-13.74,-0.0459,-0.1322,-0.1813,-0.2148,0.192,-0.615,0.3644,-0.3435,-0.1548,0.2837,0.3036,-0.618,0.2123,-0.2858,-0.2304,0.5133,0.592,-0.9264,0.0,0.026,0.013,0.013,0.006,0.013,0.006,0.026,0.019,0.006,0.006,0.013,0.0,0.026,0.006,0.0,0.006,0.006,-0.0353,-0.3866,0.6182,-0.1227,-0.3482,0.2316,0.2071,-0.5752,0.6136,0.1611,-0.2025,0.2516,0.1304,-0.6243,0.5844,0.3175,0.0767,-0.2148,0.0069,-0.3088,0.3125,-0.1687,-0.2117,-0.0625,0.0645,-0.3071,0.3109,0.0824,0.0441,-0.1037,0.0292,-0.3075,0.3009,0.03,0.2183,-0.1397,-0.0141,0.027,0.0155,0.0123,0.031,-0.0442,-0.1242,-0.1958,-0.207,0.1694,-0.6172,0.3608,-0.3152,-0.172,0.2733,0.2863,-0.6123,0.2178,-0.2752,-0.2456,0.5194,0.5826,-0.919,0.0,0.0,0.0,0.0,0.0,0.0,0.0,0.0,0.0,
1.16,run,0.03,3.02,-0.34,-0.24,-0.67,0.0,0.0,0.0,0.045,-1.76,-24.52,38.41,-6.59,-19.6,12.57,12.48,-35.68,38.5,9.49,-9.67,13.27,7.56,-38.06,36.47,18.11,6.42,-13.01,-1.37,-32.37,45.18,-7.78,-13.23,12.15,12.86,-41.47,45.53,10.2,-7.35,11.24,7.51,-41.58,41.58,17.85,7.88,-14.13,-0.0392,-0.134,-0.1746,-0.2223,0.214,-0.6218,0.3674,-0.376,-0.1236,0.2914,0.3208,-0.6324,0.2145,-0.3014,-0.2082,0.51,0.5978,-0.931,0.0,0.026,0.013,0.013,0.006,0.013,0.006,0.026,0.019,0.006,0.006,0.013,0.0,0.026,0.006,0.0,0.006,0.006,-0.023,-0.4111,0.6427,-0.1304,-0.3513,0.2255,0.2117,-0.6013,0.6381,0.1672,-0.1887,0.2393,0.1304,-0.6473,0.609,0.3175,0.092,-0.224,0.0509,-0.3083,0.3109,-0.1469,-0.1597,-0.0668,0.0624,-0.3129,0.3098,0.0807,0.0827,-0.1187,0.0204,-0.3016,0.3028,0.021,0.2104,-0.1323,-0.011,0.0308,-0.0044,-0.0069,-0.0219,-0.0459,-0.1322,-0.1813,-0.2148,0.192,-0.615,0.3644,-0.3435,-0.1548,0.2837,0.3036,-0.618,0.2123,-0.2858,-0.2304,0.5133,0.592,-0.9264,0.0,0.0,0.0,0.0,0.0,0.0,0.0,0.0,0.0,
1.2,run,0.04,3.07,0.11,0.56,1.48,0.0,0.0,0.0,0.058,-1.41,-25.93,39.81,-7.91,-19.07,12.39,12.66,-37.09,39.9,10.02,-8.88,12.39,7.56,-39.02,37.88,17.75,7.21,-13.54,-1.03,-32.78,46.68,-8.08,-11.84,11.32,13.11,-42.97,47.03,10.22,-6.32,10.12,7.54,-42.36,43.08,17.8,8.42,-14.45,-0.0295,-0.1414,-0.1649,-0.2308,0.2394,-0.6315,0.3746,-0.4105,-0.0952,0.2921,0.3396,-0.6457,0.2155,-0.3156,-0.1924,0.5086,0.6076,-0.9347,0.013,0.019,0.013,0.006,0.006,0.006,0.006,0.026,0.019,0.013,0.0,0.013,0.0,0.058,0.006,0.0,0.006,0.006,-0.0307,-0.4357,0.6673,-0.1181,-0.3513,0.2178,0.2148,-0.6259,0.6627,0.1672,-0.1764,0.2286,0.1304,-0.6688,0.6335,0.316,0.1028,-0.2301,0.0069,-0.3077,0.3096,-0.0569,-0.1118,-0.0755,0.0552,-0.3109,0.3088,0.0565,0.1038,-0.1233,0.0143,-0.2916,0.3039,0.009,0.1875,-0.1156,-0.0111,0.034,-0.006,-0.0042,-0.0117,-0.0392,-0.134,-0.1746,-0.2223,0.214,-0.6218,0.3674,-0.376,-0.1236,0.2914,0.3208,-0.6324,0.2145,-0.3014,-0.2082,0.51,0.5978,-0.931,0.0,0.0,0.0,0.0,0.0,0.0,0.0,0.0,0.0,
1.24,run,0.06,3.1,0.53,-0.26,-1.12,0.0,0.0,0.0,0.058,-1.05,-27.33,41.22,-8.17,-18.11,11.87,12.66,-38.5,41.31,10.02,-7.91,11.51,7.56,-40.08,39.38,17.75,7.65,-13.97,-0.97,-33.17,48.18,-8.33,-10.5,11.57,13.24,-44.47,48.53,10.68,-5.43,9.71,7.48,-43.03,44.58,17.44,8.61,-14.76,-0.0277,-0.1486,-0.1513,-0.2381,0.2637,-0.6286,0.3783,-0.4356,-0.0743,0.305,0.3559,-0.6505,0.2138,-0.3279,-0.1711,0.4983,0.6112,-0.9384,0.013,0.019,0.013,0.006,0.006,0.006,0.006,0.026,0.019,0.013,0.0,0.013,0.0,0.058,0.006,0.0,0.006,0.006,-0.0245,-0.4602,0.6918,-0.1411,-0.3421,0.2148,0.2178,-0.6504,0.6872,0.1764,-0.1626,0.2132,0.1304,-0.6857,0.6581,0.3099,0.1166,-0.2393,0.0279,-0.3075,0.3088,-0.1261,-0.0437,-0.0643,0.0502,-0.3098,0.3083,0.0741,0.1245,-0.1439,0.01,-0.2674,0.3048,-0.0167,0.1831,-0.1155,-0.0103,0.0376,0.0019,0.0098,0.0258,-0.0295,-0.1414,-0.1649,-0.2308,0.2394,-0.6315,0.3746,-0.4105,-0.0952,0.2921,0.3396,-0.6457,0.2155,-0.3156,-0.1924,0.5086,0.6076,-0.9347,0.0,0.0,0.0,0.0,0.0,0.0,0.0,0.0,0.0,
1.28,run,0.02,3.07,-0.86,-0.97,-0.49,0.0,0.0,0.0,0.058,-1.49,-28.83,42.63,-7.47,-16.88,11.43,12.92,-39.9,42.63,10.2,-7.12,10.63,7.56,-41.04,40.69,17.75,8.17,-14.33,-0.65,-33.29,49.68,-8.51,-9.15,10.79,13.33,-45.97,50.03,10.98,-4.25,8.24,7.66,-44.1,46.08,17.22,8.91,-15.08,-0.0186,-0.1507,-0.1456,-0.243,0.2882,-0.6377,0.3808,-0.4682,-0.0398,0.3138,0.3773,-0.6677,0.2188,-0.3473,-0.1428,0.492,0.6166,-0.9421,0.013,0.019,0.013,0.006,0.006,0.006,0.006,0.026,0.019,0.013,0.0,0.013,0.0,0.058,0.006,0.0,0.006,0.006,-0.0184,-0.4847,0.7164,-0.1457,-0.3252,0.2056,0.2178,-0.675,0.7118,0.1764,-0.1457,0.1979,0.1304,-0.7041,0.6842,0.3099,0.1243,-0.247,0.0426,-0.3075,0.3084,-0.1056,0.0328,-0.0796,0.0351,-0.3091,0.308,0.0518,0.1506,-0.1584,0.007,-0.2564,0.3114,-0.0117,0.157,-0.1097,-0.0083,0.041,0.0093,-0.0045,-0.0195,-0.0277,-0.1486,-0.1513,-0.2381,0.2637,-0.6286,0.3783,-0.4356,-0.0743,0.305,0.3559,-0.6505,0.2138,-0.3279,-0.1711,0.4983,0.6112,-0.9384,0.0,0.0,0.0,0.0,0.0,0.0,0.0,0.0,0.0,
1.32,run,0.05,3.12,0.96,0.81,-0.14,0.0,0.0,0.0,0.071,-0.62,-30.15,43.68,-8.61,-15.47,11.07,13.1,-41.31,44.12,10.72,-6.15,9.76,7.56,-41.92,42.19,17.23,8.53,-14.77,-0.26,-33.72,51.18,-8.73,-7.75,9.9,13.6,-47.47,51.53,11.15,-3.12,7.06,7.82,-45.06,47.58,17.1,9.24,-15.35,-0.0074,-0.1586,-0.1388,-0.2494,0.3136,-0.6483,0.3886,-0.5009,-0.0086,0.3185,0.3978,-0.6816,0.2235,-0.3647,-0.1196,0.4885,0.6225,-0.9453,0.019,0.019,0.033,0.006,0.006,0.013,0.006,0.033,0.019,0.006,0.0,0.019,0.013,0.071,0.006,0.006,0.0,0.0,-0.0261,-0.5108,0.7409,-0.1335,-0.3037,0.1979,0.2224,-0.6995,0.7348,0.1795,-0.1319,0.1825,0.1304,-0.721,0.7072,0.3099,0.1335,-0.2531,0.0011,-0.3129,0.3078,-0.028,0.1034,-0.0845,0.0418,-0.3082,0.3018,0.0478,0.1571,-0.1683,0.0049,-0.2426,0.3041,-0.0082,0.1443,-0.0997,-0.012,0.0382,-0.015,-0.0168,-0.0085,-0.0186,-0.1507,-0.1456,-0.243,0.2882,-0.6377,0.3808,-0.4682,-0.0398,0.3138,0.3773,-0.6677,0.2188,-0.3473,-0.1428,0.492,0.6166,-0.9421,0.0,0.0,0.0,0.0,0.0,0.0,0.0,0.0,0.0,
1.36,run,0.03,3.12,-1.02,-0.62,-0.53,0.0,0.0,0.0,0.071,-0.26,-31.29,45.26,-8.88,-14.06,10.63,13.27,-42.71,45.62,10.99,-5.19,8.79,7.56,-42.89,43.68,17.05,8.88,-15.12,-0.13,-33.98,52.68,-8.92,-6.39,9.94,13.67,-48.97,53.03,11.74,-2.22,6.48,7.97,-46.11,49.08,16.71,9.36,-15.57,-0.0036,-0.1633,-0.1274,-0.2549,0.3384,-0.6477,0.3905,-0.5247,0.0148,0.3354,0.4143,-0.6885,0.2278,-0.3838,-0.0913,0.4775,0.6248,-0.9479,0.019,0.019,0.033,0.006,0.006,0.013,0.006,0.033,0.019,0.006,0.0,0.019,0.013,0.071,0.006,0.006,0.0,0.0,-0.0107,-0.5338,0.7593,-0.1534,-0.2792,0.1917,0.2255,-0.724,0.7609,0.1887,-0.115,0.1672,0.1304,-0.7363,0.7332,0.3007,0.1396,-0.2608,0.0584,-0.3055,0.2846,-0.0945,0.1646,-0.0822,0.0408,-0.308,0.3092,0.068,0.1733,-0.1754,0.0034,-0.2275,0.3108,-0.0403,0.1241,-0.0986,-0.0095,0.0428,0.0168,0.0141,-0.0025,-0.0074,-0.1586,-0.1388,-0.2494,0.3136,-0.6483,0.3886,-0.5009,-0.0086,0.3185,0.3978,-0.6816,0.2235,-0.3647,-0.1196,0.4885,0.6225,-0.9453,0.0,0.0,0.0,0.0,0.0,0.0,0.0,0.0,0.0,
1.4,run,-0.01,3.16,-0.4,-0.45,1.51,0.0,0.0,0.0,0.071,-0.53,-32.26,46.76,-8.44,-12.66,10.11,13.36,-44.12,47.02,11.07,-4.13,7.73,7.82,-43.77,45.09,17.05,9.14,-15.38,0.29,-34.09,54.18,-9.01,-5.05,8.99,13.85,-50.47,54.53,12.03,-1.05,4.98,8.27,-47.29,50.58,16.55,9.51,-15.73,0.0084,-0.1653,-0.1255,-0.2575,0.3627,-0.6589,0.3958,-0.5553,0.049,0.3436,0.4355,-0.7061,0.2363,-0.4053,-0.0576,0.473,0.6275,-0.9498,0.019,0.019,0.033,0.006,0.006,0.013,0.006,0.033,0.019,0.006,0.0,0.019,0.013,0.071,0.006,0.006,0.0,0.0,-0.0046,-0.5538,0.7869,-0.158,-0.2546,0.1841,0.2286,-0.7486,0.7869,0.1933,-0.0982,0.1503,0.1304,-0.7532,0.7593,0.2976,0.1457,-0.2669,0.0639,-0.2886,0.3028,-0.0834,0.2072,-0.0863,0.0401,-0.3076,0.3142,0.0649,0.1846,-0.1861,0.0024,-0.2225,0.3154,-0.0397,0.1099,-0.092,-0.0107,0.0421,-0.0178,-0.0109,-0.0093,-0.0036,-0.1633,-0.1274,-0.2549,0.3384,-0.6477,0.3905,-0.5247,0.0148,0.3354,0.4143,-0.6885,0.2278,-0.3838,-0.0913,0.4775,0.6248,-0.9479,0.0,0.0,0.0,0.0,0.0,0.0,0.0,0.0,0.0,
1.44,run,0.06,3.22,1.12,1.3,0.29,0.0,0.0,0.0,0.104,0.44,-33.05,48.25,-8.79,-11.25,9.76,13.62,-45.44,48.43,11.6,-3.16,6.86,7.91,-44.74,46.41,16.61,9.32,-15.47,0.7,-34.36,54.62,-9.16,-3.65,7.94,14.08,-51.97,56.03,12.27,0.01,3.5,8.57,-48.56,52.08,16.47,9.82,-16.14,0.0201,-0.1703,-0.1221,-0.2616,0.3882,-0.6713,0.4023,-0.5854,0.0793,0.3504,0.4546,-0.7236,0.245,-0.4284,-0.0278,0.4707,0.6331,-0.9546,0.006,0.013,0.013,0.006,0.006,0.019,0.0,0.058,0.019,0.006,0.006,0.013,0.006,0.104,0.013,0.006,0.0,0.006,-0.0092,-0.5706,0.813,-0.1503,-0.2301,0.1749,0.2301,-0.7731,0.8115,0.1948,-0.0798,0.1319,0.135,-0.7685,0.7839,0.2976,0.1503,-0.2715,0.0275,-0.2651,0.3094,-0.0297,0.2368,-0.0948,0.0338,-0.307,0.3117,0.0511,0.198,-0.199,0.0189,-0.2131,0.3125,-0.0278,0.0941,-0.0816,-0.0143,0.0454,-0.0071,-0.0079,0.0263,0.0084,-0.1653,-0.1255,-0.2575,0.3627,-0.6589,0.3958,-0.5553,0.049,0.3436,0.4355,-0.7061,0.2363,-0.4053,-0.0576,0.473,0.6275,-0.9498,0.0,0.0,0.0,0.0,0.0,0.0,0.0,0.0,0.0,
1.48,run,0.02,3.2,-0.85,-0.8,0.19,0.0,0.0,0.0,0.104,0.35,-33.57,49.75,-9.32,-9.84,8.96,13.71,-46.85,49.83,12.04,-2.11,5.71,8.35,-45.79,47.99,16.35,9.49,-15.82,0.96,-34.42,54.97,-9.25,-2.53,7.5,14.1,-53.47,57.53,12.7,0.78,2.6,8.86,-49.84,53.58,16.28,9.92,-16.48,0.0273,-0.1713,-0.118,-0.2642,0.4086,-0.6765,0.403,-0.6091,0.1027,0.3629,0.4687,-0.7342,0.2533,-0.4517,-0.0024,0.465,0.6349,-0.9586,0.006,0.013,0.013,0.006,0.006,0.019,0.0,0.058,0.019,0.006,0.006,0.013,0.006,0.104,0.013,0.006,0.0,0.006,0.0077,-0.5844,0.8391,-0.1565,-0.2056,0.1687,0.2347,-0.7961,0.836,0.204,-0.0629,0.1166,0.1365,-0.7854,0.8069,0.2899,0.1534,-0.273,0.0825,-0.2373,0.3144,-0.0438,0.2578,-0.0894,0.0409,-0.3012,0.3102,0.0703,0.2019,-0.1969,0.019,-0.2124,0.305,-0.0482,0.0774,-0.0629,-0.0087,0.0507,0.0195,0.0227,0.005,0.0201,-0.1703,-0.1221,-0.2616,0.3882,-0.6713,0.4023,-0.5854,0.0793,0.3504,0.4546,-0.7236,0.245,-0.4284,-0.0278,0.4707,0.6331,-0.9546,0.0,0.0,0.0,0.0,0.0,0.0,0.0,0.0,0.0,
1.52,run,-0.01,3.25,-0.04,0.07,1.17,0.0,0.0,0.0,0.104,0.62,-33.93,51.15,-9.23,-8.44,8.17,13.89,-48.25,51.15,12.22,-1.14,4.57,8.53,-46.85,49.31,16.35,9.76,-16.08,1.37,-34.17,54.97,-9.09,-1.43,6.5,14.34,-54.97,59.03,12.83,1.72,1.24,9.24,-51.07,55.08,16.2,10.03,-16.32,0.0391,-0.1667,-0.118,-0.2597,0.4285,-0.6883,0.4097,-0.6306,0.1321,0.3665,0.4857,-0.7501,0.264,-0.474,0.0327,0.463,0.6369,-0.9568,0.006,0.013,0.013,0.006,0.006,0.019,0.0,0.058,0.019,0.006,0.006,0.013,0.006,0.104,0.013,0.006,0.0,0.006,0.0061,-0.5937,0.8652,-0.1657,-0.181,0.1549,0.2362,-0.8207,0.8606,0.2117,-0.0445,0.0966,0.1442,-0.8038,0.8345,0.2853,0.1565,-0.2792,0.052,-0.2009,0.3187,-0.0655,0.2733,-0.1148,0.0344,-0.3037,0.31,0.0782,0.211,-0.2132,0.0423,-0.2183,0.318,-0.0512,0.0658,-0.0672,-0.0119,0.0497,-0.0148,-0.0139,0.0034,0.0273,-0.1713,-0.118,-0.2642,0.4086,-0.6765,0.403,-0.6091,0.1027,0.3629,0.4687,-0.7342,0.2533,-0.4517,-0.0024,0.465,0.6349,-0.9586,0.0,0.0,0.0,0.0,0.0,0.0,0.0,0.0,0.0,
1.56,run,0.04,3.25,0.53,0.54,-1.3,0.0,0.0,0.0,0.104,1.49,-34.01,52.38,-8.96,-6.94,7.47,13.97,-49.66,52.65,12.66,-0.09,3.43,8.88,-47.99,50.71,16.26,9.93,-16.35,1.76,-34.0,54.72,-9.02,-0.21,5.47,14.5,-56.47,60.53,12.97,2.67,-0.15,9.62,-52.28,56.58,16.19,10.21,-16.49,0.0503,-0.1636,-0.1209,-0.2576,0.4507,-0.7004,0.4144,-0.6532,0.1591,0.3705,0.5031,-0.7665,0.2748,-0.496,0.0635,0.4627,0.6402,-0.9587,0.006,0.006,0.0,0.0,0.006,0.013,0.006,0.045,0.019,0.0,0.0,0.013,0.006,0.104,0.006,0.006,0.0,0.006,0.0107,-0.5998,0.8897,-0.1641,-0.1565,0.1411,0.2393,-0.8452,0.8836,0.2148,-0.0276,0.0767,0.1473,-0.8222,0.8575,0.2853,0.1611,-0.2838,0.0536,-0.1636,0.315,-0.0401,0.2832,-0.1321,0.0356,-0.3045,0.3032,0.0663,0.2109,-0.224,0.0411,-0.2218,0.3088,-0.0358,0.0633,-0.0643,-0.014,0.0538,-0.0007,0.0013,0.0204,0.0391,-0.1667,-0.118,-0.2597,0.4285,-0.6883,0.4097,-0.6306,0.1321,0.3665,0.4857,-0.7501,0.264,-0.474,0.0327,0.463,0.6369,-0.9568,0.0,0.0,0.0,0.0,0.0,0.0,0.0,0.0,0.0,
1.6,run,-0.0,3.23,-0.51,-0.68,0.37,0.0,0.0,0.0,0.104,1.32,-34.01,53.35,-8.96,-5.54,6.59,14.24,-51.15,54.05,12.83,0.88,2.2,9.23,-49.13,52.21,16.26,9.93,-16.35,2.13,-33.52,54.19,-8.75,0.83,4.33,14.56,-57.97,62.03,13.03,3.5,-1.58,10.04,-53.58,58.08,16.19,10.18,-16.47,0.0608,-0.1549,-0.1272,-0.25,0.4696,-0.7138,0.4161,-0.6727,0.1865,0.3724,0.5183,-0.7833,0.287,-0.5196,0.0941,0.4626,0.6397,-0.9585,0.006,0.006,0.0,0.0,0.006,0.013,0.006,0.045,0.019,0.0,0.0,0.013,0.006,0.104,0.006,0.006,0.0,0.006,0.0261,-0.6013,0.9112,-0.1595,-0.1304,0.1289,0.2408,-0.8698,0.9097,0.2224,-0.0092,0.0568,0.1534,-0.8422,0.882,0.2838,0.1641,-0.2884,0.095,-0.1203,0.301,-0.0108,0.296,-0.1384,0.0307,-0.3052,0.31,0.0751,0.2166,-0.2315,0.0518,-0.23,0.3081,-0.0308,0.0558,-0.0623,-0.0103,0.054,0.0092,0.0094,-0.0226,0.0503,-0.1636,-0.1209,-0.2576,0.4507,-0.7004,0.4144,-0.6532,0.1591,0.3705,0.5031,-0.7665,0.2748,-0.496,0.0635,0.4627,0.6402,-0.9587,0.0,0.0,0.0,0.0,0.0,0.0,0.0,0.0,0.0,
1.64,run,0.01,3.23,0.72,0.5,0.26,0.0,0.0,0.0,0.104,1.85,-34.01,54.14,-8.96,-4.22,5.8,14.33,-52.56,55.46,12.83,1.76,1.05,9.49,-50.27,53.61,16.26,10.11,-16.35,2.52,-33.04,53.71,-8.42,1.84,3.21,14.81,-59.47,63.53,12.91,4.38,-2.86,10.43,-54.5,59.58,16.24,10.31,-16.16,0.0719,-0.1462,-0.1329,-0.2405,0.488,-0.727,0.4233,-0.6863,0.2094,0.3689,0.5342,-0.7984,0.2981,-0.5363,0.1246,0.4639,0.6419,-0.9548,0.006,0.006,0.0,0.0,0.006,0.013,0.006,0.045,0.019,0.0,0.0,0.013,0.006,0.104,0.006,0.006,0.0,0.006,0.023,-0.6013,0.9281,-0.1595,-0.1058,0.1135,0.2454,-0.8958,0.9342,0.2255,0.0077,0.0353,0.1595,-0.8621,0.9081,0.2838,0.1641,-0.2884,0.055,-0.0842,0.274,-0.0076,0.2993,-0.1545,0.0387,-0.3115,0.3091,0.0641,0.215,-0.2427,0.0593,-0.2359,0.3136,-0.0216,0.0391,-0.0436,-0.0136,0.0517,-0.0089,-0.0119,0.0064,0.0608,-0.1549,-0.1272,-0.25,0.4696,-0.7138,0.4161,-0.6727,0.1865,0.3724,0.5183,-0.7833,0.287,-0.5196,0.0941,0.4626,0.6397,-0.9585,0.0,0.0,0.0,0.0,0.0,0.0,0.0,0.0,0.0,
1.68,run,0.02,3.19,-0.14,-0.05,-1.07,0.0,0.0,0.0,0.104,2.46,-33.66,54.49,-8.96,-2.72,4.83,14.41,-53.96,56.87,12.74,2.72,-0.26,10.02,-51.59,55.02,16.26,10.11,-16.35,2.82,-32.49,53.13,-8.11,2.8,2.32,14.93,-60.97,65.03,12.85,5.15,-3.97,10.8,-55.44,61.08,16.3,10.41,-15.99,0.0805,-0.1361,-0.1396,-0.2316,0.5054,-0.7374,0.4266,-0.6993,0.23,0.3672,0.5482,-0.8115,0.3086,-0.5534,0.1514,0.4657,0.6437,-0.9528,0.0,0.006,0.0,0.006,0.006,0.013,0.006,0.033,0.019,0.0,0.006,0.006,0.013,0.091,0.0,0.0,0.006,0.006,0.0322,-0.6013,0.9419,-0.1595,-0.0828,0.0997,0.247,-0.9204,0.9587,0.2255,0.023,0.0153,0.1641,-0.882,0.9327,0.2838,0.1672,-0.2884,0.0729,-0.0589,0.2434,-0.0053,0.2955,-0.1597,0.0328,-0.3097,0.3081,0.0449,0.2078,-0.2444,0.0587,-0.2396,0.3112,-0.0151,0.0388,-0.0305,-0.013,0.0522,0.0125,0.0087,0.0046,0.0719,-0.1462,-0.1329,-0.2405,0.488,-0.727,0.4233,-0.6863,0.2094,0.3689,0.5342,-0.7984,0.2981,-0.5363,0.1246,0.4639,0.6419,-0.9548,0.0,0.0,0.0,0.0,0.0,0.0,0.0,0.0,0.0,
1.72,run,-0.01,3.18,-0.56,-0.21,1.25,0.0,0.0,0.0,0.104,2.2,-33.13,54.58,-8.7,-1.32,3.78,14.68,-55.46,58.27,12.74,3.6,-1.58,10.46,-52.73,56.51,16.26,10.2,-16.35,3.16,-31.69,52.31,-7.63,3.66,1.19,15.06,-62.47,66.53,12.65,5.94,-5.21,11.22,-56.32,62.58,16.41,10.39,-15.53,0.0902,-0.1217,-0.1493,-0.2181,0.521,-0.7507,0.4302,-0.71,0.2523,0.3616,0.5626,-0.8261,0.3205,-0.5694,0.1813,0.4689,0.6435,-0.9474,0.0,0.006,0.0,0.006,0.006,0.013,0.006,0.033,0.019,0.0,0.006,0.006,0.013,0.091,0.0,0.0,0.006,0.006,0.043,-0.5952,0.948,-0.1595,-0.0568,0.0828,0.2485,-0.9449,0.9833,0.224,0.0399,-0.0077,0.1733,-0.905,0.9572,0.2838,0.1672,-0.2884,0.0916,-0.0181,0.1936,-0.0037,0.3054,-0.1756,0.0288,-0.3096,0.3084,0.0256,0.2092,-0.258,0.0759,-0.2547,0.3106,-0.0106,0.0272,-0.0214,-0.0121,0.0489,-0.0025,-0.0009,-0.0187,0.0805,-0.1361,-0.1396,-0.2316,0.5054,-0.7374,0.4266,-0.6993,0.23,0.3672,0.5482,-0.8115,0.3086,-0.5534,0.1514,0.4657,0.6437,-0.9528,0.0,0.0,0.0,0.0,0.0,0.0,0.0,0.0,0.0,
1.76,run,-0.01,3.2,0.26,0.29,-0.44,0.0,0.0,0.0,0.104,3.25,-32.7,54.49,-8.44,0.09,2.9,14.77,-56.87,59.68,12.74,4.48,-2.72,10.72,-53.79,57.92,16.26,10.28,-16.08,3.49,-30.94,51.44,-7.11,4.7,-0.09,15.29,-63.97,68.03,12.3,6.77,-6.42,11.59,-57.09,64.08,16.54,10.51,-15.08,0.0997,-0.108,-0.1595,-0.2032,0.5401,-0.7658,0.4368,-0.7181,0.2709,0.3514,0.5777,-0.8402,0.3313,-0.5835,0.2077,0.4727,0.6457,-0.9421,0.0,0.006,0.0,0.006,0.006,0.013,0.006,0.033,0.019,0.0,0.006,0.006,0.013,0.091,0.0,0.0,0.006,0.006,0.0383,-0.586,0.9495,-0.1549,-0.0322,0.0644,0.2531,-0.971,1.0078,0.224,0.0552,-0.0307,0.181,-0.925,0.9833,0.2838,0.1687,-0.2884,0.0469,0.0217,0.1412,0.0146,0.3055,-0.1917,0.0373,-0.3141,0.3076,0.0179,0.2038,-0.2666,0.0818,-0.2528,0.3148,-0.0074,0.0247,-0.0149,-0.0145,0.0475,-0.0098,-0.0037,0.0219,0.0902,-0.1217,-0.1493,-0.2181,0.521,-0.7507,0.4302,-0.71,0.2523,0.3616,0.5626,-0.8261,0.3205,-0.5694,0.1813,0.4689,0.6435,-0.9474,0.0,0.0,0.0,0.0,0.0,0.0,0.0,0.0,0.0,
1.8,run,-0.02,3.19,-0.44,-0.39,0.74,0.0,0.0,0.0,0.104,3.34,-32.08,53.61,-7.82,1.49,1.76,14.85,-58.36,61.08,12.57,5.36,-4.04,11.16,-54.84,59.33,16.44,10.28,-15.64,3.73,-30.04,50.38,-6.57,5.51,-1.11,15.32,-64.83,69.53,12.03,7.41,-7.43,11.98,-57.78,65.58,16.67,10.42,-14.62,0.1066,-0.0917,-0.172,-0.1877,0.5548,-0.7778,0.4376,-0.7243,0.2889,0.3437,0.5892,-0.8521,0.3422,-0.5961,0.2321,0.4762,0.6439,-0.9367,0.019,0.006,0.006,0.0,0.0,0.006,0.0,0.026,0.019,0.006,0.0,0.006,0.0,0.071,0.006,0.0,0.0,0.006,0.0568,-0.5783,0.948,-0.1503,-0.0077,0.0491,0.2546,-0.9956,1.0324,0.224,0.0706,-0.0506,0.1856,-0.9434,1.0078,0.2838,0.1703,-0.2838,0.1016,0.0438,0.0931,0.0274,0.3054,-0.1914,0.0319,-0.3115,0.3069,0.0126,0.1999,-0.261,0.0744,-0.2456,0.312,-0.0052,0.023,0.0067,-0.0144,0.0493,0.0045,0.005,-0.0077,0.0997,-0.108,-0.1595,-0.2032,0.5401,-0.7658,0.4368,-0.7181,0.2709,0.3514,0.5777,-0.8402,0.3313,-0.5835,0.2077,0.4727,0.6457,-0.9421,0.0,0.0,0.0,0.0,0.0,0.0,0.0,0.0,0.0,
1.84,run,0.02,3.22,0.55,0.64,0.38,0.0,0.0,0.0,0.104,3.87,-31.03,52.03,-6.77,3.34,0.09,15.12,-60.64,63.37,12.04,6.5,-5.89,11.69,-56.16,61.52,16.61,10.28,-14.94,4.01,-29.04,49.2,-5.92,6.46,-2.39,15.47,-65.06,71.03,11.51,8.2,-8.55,12.33,-58.28,67.08,16.86,10.47,-13.98,0.1147,-0.0734,-0.1859,-0.1692,0.572,-0.7928,0.442,-0.7283,0.3058,0.3289,0.6036,-0.8653,0.3523,-0.6052,0.2564,0.4816,0.6449,-0.9291,0.019,0.006,0.006,0.0,0.0,0.006,0.0,0.026,0.019,0.006,0.0,0.006,0.0,0.071,0.006,0.0,0.0,0.006,0.0583,-0.5676,0.9327,-0.1396,0.0169,0.0291,0.2562,-1.0216,1.0569,0.2209,0.0859,-0.0736,0.1933,-0.9618,1.0324,0.2869,0.1703,-0.2761,0.0769,0.0711,0.0075,0.0595,0.3061,-0.209,0.0281,-0.3161,0.3071,-0.0027,0.1976,-0.2692,0.0809,-0.2412,0.3107,0.0079,0.0161,0.0335,-0.0152,0.0482,-0.0077,-0.0067,0.0128,0.1066,-0.0917,-0.172,-0.1877,0.5548,-0.7778,0.4376,-0.7243,0.2889,0.3437,0.5892,-0.8521,0.3422,-0.5961,0.2321,0.4762,0.6439,-0.9367,0.0,0.0,0.0,0.0,0.0,0.0,0.0,0.0,0.0,
1.88,run,0.04,3.23,0.37,0.14,0.05,0.0,0.0,0.0,0.104,3.87,-30.41,51.24,-6.68,4.39,-0.7,15.12,-62.05,64.78,12.04,7.03,-6.77,11.78,-56.87,62.93,16.61,10.28,-14.68,4.32,-27.54,47.7,-4.94,7.77,-3.89,15.58,-65.33,72.53,10.78,9.23,-10.05,12.87,-59.07,68.58,17.16,10.52,-13.23,0.1234,-0.0443,-0.2085,-0.1411,0.5958,-0.816,0.4452,-0.7332,0.3276,0.3079,0.6224,-0.8833,0.3678,-0.6195,0.2882,0.4903,0.6458,-0.9203,0.019,0.006,0.013,0.006,0.006,0.019,0.013,0.019,0.026,0.013,0.006,0.013,0.026,0.071,0.013,0.0,0.0,0.006,0.0675,-0.5492,0.905,-0.1212,0.0491,0.0,0.2608,-1.0615,1.0968,0.2117,0.1058,-0.1058,0.2025,-0.9848,1.0707,0.2899,0.1703,-0.2638,0.076,0.0941,-0.0612,0.086,0.2918,-0.2165,0.0307,-0.3173,0.311,-0.0241,0.1863,-0.266,0.0788,-0.2242,0.3098,0.0129,0.0113,0.053,-0.0115,0.0509,0.0096,0.0111,0.0066,0.1147,-0.0734,-0.1859,-0.1692,0.572,-0.7928,0.442,-0.7283,0.3058,0.3289,0.6036,-0.8653,0.3523,-0.6052,0.2564,0.4816,0.6449,-0.9291,0.0,0.0,0.0,0.0,0.0,0.0,0.0,0.0,0.0,
1.92,run,-0.02,3.22,-0.86,-0.5,1.54,0.0,0.0,0.0,0.104,3.87,-29.79,50.36,-6.68,5.36,-1.58,15.21,-63.28,66.09,11.51,7.73,-7.82,12.22,-57.66,64.42,17.05,10.28,-14.33,4.52,-26.68,46.42,-4.4,8.28,-5.26,15.73,-65.39,74.03,10.32,9.69,-10.63,13.24,-59.43,70.08,17.26,10.59,-12.7,0.1291,-0.0306,-0.2186,-0.1256,0.605,-0.8266,0.4495,-0.7343,0.3394,0.295,0.6307,-0.8897,0.3782,-0.626,0.3038,0.4933,0.6471,-0.9141,0.019,0.006,0.013,0.006,0.006,0.019,0.013,0.019,0.026,0.013,0.006,0.013,0.026,0.071,0.013,0.0,0.0,0.006,0.0675,-0.5384,0.8912,-0.1197,0.0675,-0.0138,0.2608,-1.0861,1.1213,0.2117,0.115,-0.1212,0.204,-0.9971,1.0953,0.2899,0.1703,-0.2592,0.0532,0.1055,-0.0938,0.0659,0.2722,-0.2025,0.0215,-0.3127,0.3083,-0.0169,0.1644,-0.2428,0.0608,-0.2023,0.3075,0.009,0.0079,0.0541,-0.0105,0.0518,0.0064,0.0025,0.0008,0.1234,-0.0443,-0.2085,-0.1411,0.5958,-0.816,0.4452,-0.7332,0.3276,0.3079,0.6224,-0.8833,0.3678,-0.6195,0.2882,0.4903,0.6458,-0.9203,0.0,0.0,0.0,0.0,0.0,0.0,0.0,0.0,0.0,
1.96,run,-0.02,3.24,0.01,0.01,-0.05,0.0,0.0,0.0,0.104,4.75,-28.83,49.22,-6.06,6.42,-2.81,15.47,-64.16,67.59,10.81,8.53,-8.96,12.74,-58.27,65.83,17.14,10.28,-13.71,4.71,-25.66,45.29,-3.82,8.88,-6.16,15.84,-65.33,75.53,9.8,10.34,-11.35,13.51,-59.54,71.58,17.44,10.59,-12.01,0.1345,-0.012,-0.2319,-0.109,0.616,-0.8371,0.4527,-0.7332,0.3508,0.28,0.6425,-0.8982,0.386,-0.628,0.3226,0.4983,0.6471,-0.906,0.019,0.006,0.013,0.006,0.006,0.019,0.013,0.019,0.026,0.013,0.006,0.013,0.026,0.071,0.013,0.0,0.0,0.006,0.0675,-0.5277,0.8759,-0.1197,0.0844,-0.0291,0.2623,-1.1075,1.1443,0.2025,0.1273,-0.1396,0.2117,-1.0109,1.1213,0.2976,0.1703,-0.2531,0.0372,0.1142,-0.1233,0.0461,0.254,-0.1994,0.0208,-0.2996,0.3023,-0.0464,0.1612,-0.2392,0.0714,-0.1935,0.3132,0.0352,0.0055,0.0609,-0.0155,0.0512,-0.015,-0.0087,0.0268,0.1291,-0.0306,-0.2186,-0.1256,0.605,-0.8266,0.4495,-0.7343,0.3394,0.295,0.6307,-0.8897,0.3782,-0.626,0.3038,0.4933,0.6471,-0.9141,0.0,0.0,0.0,0.0,0.0,0.0,0.0,0.0,0.0,
2.0,run,-0.04,3.22,-0.75,-0.51,0.75,0.0,0.0,0.0,0.104,4.22,-27.77,48.08,-4.57,7.29,-4.04,15.47,-64.86,68.99,10.28,9.23,-9.93,13.18,-58.89,67.32,17.31,10.28,-13.01,4.87,-24.44,43.79,-3.07,9.59,-7.3,15.77,-65.33,77.03,9.19,10.91,-12.22,13.81,-59.85,73.08,17.69,10.58,-11.4,0.1391,0.0101,-0.2502,-0.0878,0.6288,-0.8506,0.4507,-0.7334,0.3627,0.2625,0.6528,-0.9085,0.3947,-0.6337,0.3396,0.5054,0.647,-0.8988,0.013,0.006,0.013,0.006,0.006,0.019,0.006,0.013,0.026,0.006,0.0,0.013,0.006,0.026,0.006,0.006,0.0,0.006,0.0828,-0.5108,0.856,-0.1089,0.1028,-0.0506,0.2669,-1.1229,1.1704,0.1902,0.1411,-0.1595,0.2209,-1.0216,1.1459,0.2991,0.1703,-0.2424,0.0833,0.1429,-0.1607,0.0723,0.2464,-0.2197,0.0317,-0.2669,0.3089,-0.0782,0.1643,-0.2418,0.0843,-0.1755,0.3108,0.0303,0.0039,0.0827,-0.0152,0.053,0.0001,0.0002,-0.0009,0.1345,-0.012,-0.2319,-0.109,0.616,-0.8371,0.4527,-0.7332,0.3508,0.28,0.6425,-0.8982,0.386,-0.628,0.3226,0.4983,0.6471,-0.906,0.0,0.0,0.0,0.0,0.0,0.0,0.0,0.0,0.0,
2.04,run,-0.01,3.23,0.92,0.8,-1.37,0.0,0.0,0.0,0.104,5.01,-26.81,46.85,-4.13,8.17,-5.19,15.47,-65.13,70.4,9.67,10.02,-10.9,13.54,-59.24,68.73,17.49,10.46,-12.39,5.06,-23.32,42.31,-2.34,10.33,-8.5,15.78,-65.3,78.53,8.4,11.45,-13.03,14.07,-60.12,74.58,17.89,10.69,-10.79,0.1447,0.0305,-0.2669,-0.0669,0.6423,-0.8647,0.4509,-0.7328,0.3743,0.24,0.6627,-0.918,0.4021,-0.6385,0.3521,0.5112,0.6489,-0.8916,0.013,0.006,0.013,0.006,0.006,0.019,0.006,0.013,0.026,0.006,0.0,0.013,0.006,0.026,0.006,0.006,0.0,0.006,0.0736,-0.4924,0.836,-0.0828,0.1181,-0.0721,0.2669,-1.1351,1.195,0.181,0.1534,-0.1764,0.2286,-1.0324,1.172,0.3022,0.1703,-0.2301,0.0238,0.169,-0.1873,0.1484,0.23,-0.2343,0.0222,-0.2329,0.3082,-0.0893,0.161,-0.2325,0.0878,-0.1631,0.3153,0.0327,0.0027,0.1039,-0.0172,0.0513,-0.013,-0.009,0.0131,0.1391,0.0101,-0.2502,-0.0878,0.6288,-0.8506,0.4507,-0.7334,0.3627,0.2625,0.6528,-0.9085,0.3947,-0.6337,0.3396,0.5054,0.647,-0.8988,0.0,0.0,0.0,0.0,0.0,0.0,0.0,0.0,0.0,
2.08,run,-0.01,3.2,-0.13,-0.13,1.11,0.0,0.0,0.0,0.104,5.01,-25.66,45.62,-4.22,8.96,-6.33,15.47,-65.13,71.81,9.23,10.55,-11.78,13.8,-59.41,70.14,17.75,10.46,-11.78,5.17,-22.07,40.81,-1.57,10.87,-9.35,15.65,-65.17,80.03,7.77,11.86,-13.56,14.35,-60.38,76.08,18.08,10.71,-10.17,0.1478,0.0533,-0.2854,-0.0448,0.6521,-0.8747,0.4472,-0.7304,0.3817,0.222,0.6702,-0.9242,0.4099,-0.6433,0.364,0.5165,0.6492,-0.8844,0.013,0.006,0.013,0.006,0.006,0.019,0.006,0.013,0.026,0.006,0.0,0.013,0.006,0.026,0.006,0.006,0.0,0.006,0.0874,-0.4755,0.8145,-0.0752,0.1335,-0.092,0.2669,-1.1397,1.2195,0.1703,0.1672,-0.1933,0.2347,-1.0385,1.1965,0.3053,0.1733,-0.2194,0.0687,0.182,-0.2121,0.1328,0.2189,-0.2392,0.0156,-0.1804,0.3083,-0.103,0.1648,-0.2264,0.0846,-0.1373,0.3133,0.0345,0.0135,0.1132,-0.0148,0.0517,0.016,0.0139,-0.0239,0.1447,0.0305,-0.2669,-0.0669,0.6423,-0.8647,0.4509,-0.7328,0.3743,0.24,0.6627,-0.918,0.4021,-0.6385,0.3521,0.5112,0.6489,-0.8916,0.0,0.0,0.0,0.0,0.0,0.0,0.0,0.0,0.0,
2.12,run,-0.08,3.15,-1.78,-1.39,0.9,0.0,0.0,0.0,0.104,4.83,-24.61,44.38,-2.64,9.84,-7.47,15.47,-65.04,73.21,8.44,11.25,-12.66,14.06,-59.77,71.54,18.02,10.55,-11.16,5.33,-20.82,39.31,-0.78,11.28,-9.94,15.66,-64.69,81.53,7.05,12.27,-13.86,14.55,-60.24,77.58,18.13,10.72,-9.24,0.1522,0.0759,-0.3043,-0.0224,0.6596,-0.8817,0.4475,-0.7216,0.386,0.2013,0.6776,-0.9278,0.4156,-0.6408,0.3746,0.5181,0.6495,-0.8735,0.0,0.006,0.006,0.0,0.006,0.013,0.0,0.0,0.019,0.013,0.006,0.0,0.006,0.006,0.006,0.0,0.0,0.006,0.0874,-0.4556,0.7931,-0.0767,0.1473,-0.112,0.2669,-1.1397,1.2441,0.1626,0.1764,-0.2086,0.2393,-1.0416,1.221,0.3099,0.1733,-0.2086,0.0481,0.2018,-0.2286,0.0872,0.2047,-0.2418,0.0109,-0.1263,0.3074,-0.1007,0.1497,-0.2157,0.0764,-0.1076,0.3109,0.0413,0.0094,0.1193,-0.0143,0.0496,-0.0023,-0.0023,0.0194,0.1478,0.0533,-0.2854,-0.0448,0.6521,-0.8747,0.4472,-0.7304,0.3817,0.222,0.6702,-0.9242,0.4099,-0.6433,0.364,0.5165,0.6492,-0.8844,0.0,0.0,0.0,0.0,0.0,0.0,0.0,0.0,0.0,
2.16,run,-0.02,3.16,1.13,0.81,-0.6,0.0,0.0,0.0,0.104,5.71,-23.29,42.71,-1.76,10.55,-8.7,15.47,-64.86,74.88,7.65,11.78,-13.45,14.33,-59.85,73.21,18.02,10.63,-10.37,5.48,-19.54,37.81,-0.02,11.86,-10.85,15.55,-64.38,83.03,6.28,12.73,-14.43,14.73,-60.25,79.08,18.31,10.69,-8.38,0.1565,0.0993,-0.3238,-0.0007,0.6702,-0.8923,0.4443,-0.7159,0.3958,0.1794,0.686,-0.9345,0.4208,-0.6408,0.3848,0.5231,0.6488,-0.8633,0.0,0.006,0.006,0.0,0.006,0.013,0.0,0.0,0.019,0.013,0.006,0.0,0.006,0.006,0.006,0.0,0.0,0.006,0.0844,-0.4372,0.7716,-0.0491,0.1626,-0.1319,0.2669,-1.1382,1.2686,0.1488,0.1887,-0.224,0.2439,-1.0477,1.2456,0.3145,0.1749,-0.1979,0.0222,0.2102,-0.2405,0.1646,0.2008,-0.244,0.0076,-0.0826,0.3072,-0.1222,0.1508,-0.2085,0.0707,-0.0983,0.3096,0.0462,0.0123,0.1238,-0.0202,0.0453,-0.031,-0.0242,0.0158,0.1522,0.0759,-0.3043,-0.0224,0.6596,-0.8817,0.4475,-0.7216,0.386,0.2013,0.6776,-0.9278,0.4156,-0.6408,0.3746,0.5181,0.6495,-0.8735,0.0,0.0,0.0,0.0,0.0,0.0,0.0,0.0,0.0,
2.2,run,-0.03,3.16,-0.29,-0.07,1.87,0.0,0.0,0.0,0.104,5.01,-22.24,41.48,-2.02,10.99,-9.4,15.47,-64.6,76.29,7.12,12.22,-13.89,14.41,-59.94,74.71,18.02,10.63,-9.76,5.56,-18.04,36.31,0.91,12.42,-11.84,15.34,-63.89,84.53,5.51,13.09,-14.9,14.96,-60.29,80.58,18.44,10.74,-7.59,0.1589,0.1273,-0.3488,0.0259,0.6803,-0.904,0.4384,-0.707,0.3994,0.1575,0.6925,-0.94,0.4274,-0.6417,0.3927,0.5267,0.6499,-0.854,0.0,0.006,0.006,0.0,0.006,0.013,0.0,0.0,0.019,0.013,0.006,0.0,0.006,0.006,0.006,0.0,0.0,0.006,0.0997,-0.4142,0.7424,-0.0337,0.1749,-0.1534,0.2669,-1.1351,1.2977,0.135,0.1979,-0.2378,0.2485,-1.0492,1.2747,0.3145,0.1764,-0.1841,0.0641,0.2201,-0.2607,0.1638,0.1794,-0.2389,0.0053,-0.0481,0.3073,-0.1293,0.1347,-0.1897,0.0641,-0.0737,0.3091,0.0323,0.0135,0.1304,-0.0149,0.0459,0.0197,0.0141,-0.0105,0.1565,0.0993,-0.3238,-0.0007,0.6702,-0.8923,0.4443,-0.7159,0.3958,0.1794,0.686,-0.9345,0.4208,-0.6408,0.3848,0.5231,0.6488,-0.8633,0.0,0.0,0.0,0.0,0.0,0.0,0.0,0.0,0.0,
2.24,run,-0.04,3.19,0.77,0.6,-0.85,0.0,0.0,0.0,0.104,5.54,-21.09,40.17,-0.44,11.51,-10.37,15.47,-64.34,77.78,6.42,12.57,-14.5,14.59,-59.94,76.11,18.37,10.63,-8.96,5.7,-16.88,34.81,1.59,12.6,-12.13,15.38,-63.18,86.03,4.84,13.34,-14.99,15.1,-60.0,82.08,18.41,10.75,-6.63,0.1629,0.1477,-0.3663,0.0455,0.6836,-0.9074,0.4393,-0.6942,0.4014,0.1382,0.6972,-0.9411,0.4314,-0.6364,0.3988,0.5261,0.65,-0.8427,0.0,0.006,0.013,0.0,0.0,0.0,0.0,0.006,0.026,0.006,0.0,0.0,0.006,0.0,0.006,0.006,0.0,0.006,0.0874,-0.3958,0.721,-0.0383,0.1825,-0.1657,0.2669,-1.1305,1.3223,0.1258,0.2056,-0.2454,0.25,-1.0508,1.3008,0.3145,0.1764,-0.1733,-0.0014,0.2234,-0.2634,0.0973,0.1545,-0.2134,0.0037,-0.0163,0.3076,-0.1252,0.1232,-0.1617,0.0506,-0.0573,0.3146,0.0226,0.0095,0.1317,-0.0162,0.0456,-0.0051,-0.0013,0.0326,0.1589,0.1273,-0.3488,0.0259,0.6803,-0.904,0.4384,-0.707,0.3994,0.1575,0.6925,-0.94,0.4274,-0.6417,0.3927,0.5267,0.6499,-0.854,0.0,0.0,0.0,0.0,0.0,0.0,0.0,0.0,0.0,
2.28,run,-0.03,3.17,-0.42,-0.41,0.13,0.0,0.0,0.0,0.104,5.8,-19.86,38.76,0.53,12.13,-11.34,15.47,-63.63,79.1,5.62,13.01,-14.94,15.03,-59.94,77.61,18.46,10.63,-8.17,5.77,-15.48,33.31,2.35,13.13,-13.14,15.1,-62.8,87.53,4.18,13.68,-15.47,15.25,-60.02,83.58,18.57,10.71,-5.96,0.165,0.1731,-0.3879,0.067,0.6932,-0.9193,0.4315,-0.6872,0.4069,0.1195,0.7032,-0.9468,0.4358,-0.6367,0.4042,0.5304,0.6494,-0.8348,0.0,0.006,0.013,0.0,0.0,0.0,0.0,0.006,0.026,0.006,0.0,0.0,0.006,0.0,0.006,0.006,0.0,0.006,0.0966,-0.3758,0.698,-0.0107,0.1917,-0.1825,0.2669,-1.1259,1.3484,0.1135,0.2117,-0.2562,0.2531,-1.0508,1.3254,0.3206,0.1764,-0.1595,0.0332,0.2305,-0.2699,0.1707,0.1423,-0.2121,0.0026,0.0057,0.3122,-0.1332,0.109,-0.1531,0.0468,-0.0401,0.3114,0.0386,0.0066,0.1435,-0.0169,0.0483,0.0135,0.0105,-0.0149,0.1629,0.1477,-0.3663,0.0455,0.6836,-0.9074,0.4393,-0.6942,0.4014,0.1382,0.6972,-0.9411,0.4314,-0.6364,0.3988,0.5261,0.65,-0.8427,0.0,0.0,0.0,0.0,0.0,0.0,0.0,0.0,0.0,
2.32,run,-0.06,3.17,-0.76,-0.25,1.7,0.0,0.0,0.0,0.104,5.36,-18.63,37.35,0.44,12.48,-11.95,15.47,-63.19,80.6,4.92,13.27,-15.21,15.03,-59.77,79.01,18.54,10.63,-7.38,5.92,-14.0,31.81,3.19,13.49,-13.6,14.88,-61.96,89.03,3.44,13.99,-15.84,15.34,-59.69,85.08,18.6,10.62,-4.76,0.1691,0.2,-0.4122,0.0912,0.6997,-0.9247,0.425,-0.672,0.4099,0.0984,0.7089,-0.951,0.4382,-0.6308,0.4099,0.5314,0.6477,-0.8207,0.0,0.006,0.013,0.0,0.0,0.0,0.0,0.006,0.026,0.006,0.0,0.0,0.006,0.0,0.006,0.006,0.0,0.006,0.1012,-0.3543,0.6734,0.0061,0.2025,-0.1994,0.2669,-1.1137,1.3714,0.0997,0.2194,-0.2638,0.2608,-1.0508,1.3514,0.3221,0.1764,-0.1457,0.0406,0.2422,-0.2814,0.1831,0.1401,-0.2121,0.0018,0.0502,0.3053,-0.1453,0.1052,-0.136,0.0617,-0.0281,0.3162,0.0328,0.0046,0.1525,-0.0164,0.0467,-0.0073,-0.0071,0.0023,0.165,0.1731,-0.3879,0.067,0.6932,-0.9193,0.4315,-0.6872,0.4069,0.1195,0.7032,-0.9468,0.4358,-0.6367,0.4042,0.5304,0.6494,-0.8348,0.0,0.0,0.0,0.0,0.0,0.0,0.0,0.0,0.0,
2.36,run,-0.05,3.16,0.05,-0.12,-1.94,0.0,0.0,0.0,0.104,5.89,-17.31,35.95,1.49,12.92,-12.83,15.38,-62.75,82.0,4.22,13.71,-15.64,15.03,-59.59,80.33,18.54,10.63,-6.59,6.05,-12.72,30.31,3.89,13.7,-13.77,14.79,-61.06,90.53,2.83,14.22,-15.89,15.43,-59.32,86.58,18.54,10.55,-3.75,0.1727,0.2233,-0.4326,0.111,0.7036,-0.9267,0.4225,-0.6556,0.4104,0.0807,0.7132,-0.9517,0.4407,-0.6239,0.4142,0.5298,0.6464,-0.8088,0.006,0.013,0.006,0.006,0.0,0.006,0.006,0.006,0.019,0.006,0.0,0.0,0.019,0.0,0.006,0.0,0.0,0.006,0.0936,-0.3329,0.6489,0.0046,0.2086,-0.2102,0.2669,-1.106,1.3975,0.0874,0.224,-0.2684,0.2608,-1.0477,1.376,0.3237,0.1764,-0.1319,-0.0002,0.2498,-0.2886,0.1224,0.121,-0.1885,0.0013,0.0638,0.3111,-0.1475,0.0908,-0.1124,0.0432,-0.0082,0.3131,0.0287,0.0032,0.1583,-0.0187,0.0463,-0.0132,-0.0043,0.0298,0.1691,0.2,-0.4122,0.0912,0.6997,-0.9247,0.425,-0.672,0.4099,0.0984,0.7089,-0.951,0.4382,-0.6308,0.4099,0.5314,0.6477,-0.8207,0.0,0.0,0.0,0.0,0.0,0.0,0.0,0.0,0.0,
2.4,run,-0.04,3.17,0.08,-0.02,0.2,0.0,0.0,0.0,0.104,6.15,-16.0,34.54,2.81,13.36,-13.45,15.03,-61.88,83.41,3.43,13.97,-15.82,15.12,-59.33,81.83,18.54,10.63,-5.62,6.12,-11.41,28.81,4.57,14.05,-14.4,14.49,-60.5,92.03,2.34,14.4,-16.29,15.54,-59.32,88.08,18.61,10.41,-2.95,0.1748,0.2471,-0.4534,0.1307,0.71,-0.9341,0.4141,-0.6454,0.4149,0.0668,0.7163,-0.9563,0.444,-0.6239,0.4176,0.5319,0.6439,-0.7994,0.006,0.013,0.006,0.006,0.0,0.006,0.006,0.006,0.019,0.006,0.0,0.0,0.019,0.0,0.006,0.0,0.0,0.006,0.1028,-0.3099,0.6243,0.023,0.2163,-0.2255,0.2654,-1.0983,1.422,0.0752,0.2316,-0.2761,0.2608,-1.0446,1.399,0.3237,0.1764,-0.1181,0.0343,0.261,-0.2939,0.1546,0.1134,-0.1894,-0.0048,0.0734,0.3096,-0.1492,0.0923,-0.1074,0.0302,0.0057,0.3053,0.0201,0.0023,0.1625,-0.018,0.046,0.0008,-0.0021,-0.0339,0.1727,0.2233,-0.4326,0.111,0.7036,-0.9267,0.4225,-0.6556,0.4104,0.0807,0.7132,-0.9517,0.4407,-0.6239,0.4142,0.5298,0.6464,-0.8088,0.0,0.0,0.0,0.0,0.0,0.0,0.0,0.0,0.0,
2.44,run,-0.06,3.18,-0.27,-0.14,1.97,0.0,0.0,0.0,0.104,5.8,-14.85,33.13,2.99,13.62,-13.89,14.85,-61.17,84.81,2.81,14.24,-16.0,15.38,-59.33,83.14,18.54,10.63,-4.75,6.23,-9.94,27.31,5.37,14.43,-14.65,14.16,-59.43,93.53,1.7,14.6,-16.49,15.54,-58.86,89.58,18.58,10.26,-1.73,0.1779,0.2739,-0.4789,0.1534,0.7169,-0.937,0.4046,-0.626,0.4154,0.0486,0.72,-0.9587,0.444,-0.6156,0.4195,0.5307,0.6411,-0.7851,0.006,0.013,0.006,0.006,0.0,0.006,0.006,0.006,0.019,0.006,0.0,0.0,0.019,0.0,0.006,0.0,0.0,0.006,0.1074,-0.2869,0.5998,0.046,0.224,-0.2362,0.2592,-1.083,1.4465,0.0614,0.2362,-0.2792,0.2623,-1.04,1.4251,0.3237,0.1764,-0.1012,0.0413,0.2691,-0.2979,0.1946,0.1082,-0.1729,-0.0264,0.109,0.3089,-0.1563,0.0819,-0.0867,0.0269,0.0213,0.3116,0.0141,0.0016,0.1771,-0.0172,0.0466,0.0015,-0.0003,0.0035,0.1748,0.2471,-0.4534,0.1307,0.71,-0.9341,0.4141,-0.6454,0.4149,0.0668,0.7163,-0.9563,0.444,-0.6239,0.4176,0.5319,0.6439,-0.7994,0.0,0.0,0.0,0.0,0.0,0.0,0.0,0.0,0.0,
2.48,run,-0.02,3.21,0.31,-0.0,-0.9,0.0,0.0,0.0,0.104,6.42,-13.45,31.73,3.78,14.06,-14.41,14.41,-60.47,86.22,2.2,14.41,-16.44,15.38,-59.15,84.64,18.54,10.63,-3.78,6.36,-8.64,25.81,6.01,14.62,-14.67,13.99,-58.42,95.03,1.2,14.78,-16.51,15.54,-58.46,91.08,18.5,10.11,-0.7,0.1816,0.2974,-0.4989,0.1716,0.7203,-0.9373,0.3997,-0.6076,0.415,0.0344,0.7233,-0.9589,0.444,-0.6084,0.4226,0.5285,0.6383,-0.7729,0.006,0.006,0.013,0.0,0.0,0.006,0.006,0.013,0.026,0.0,0.0,0.0,0.006,0.0,0.006,0.0,0.006,0.006,0.1012,-0.2669,0.5752,0.0491,0.2286,-0.2439,0.2562,-1.0707,1.4711,0.0506,0.2408,-0.2823,0.2669,-1.04,1.4481,0.3237,0.1764,-0.0859,0.0059,0.2632,-0.3006,0.1477,0.093,-0.1498,-0.03,0.1223,0.3083,-0.1497,0.0746,-0.0722,0.0361,0.0149,0.3044,0.0098,0.0011,0.1815,-0.0187,0.048,-0.0047,-0.0025,0.0344,0.1779,0.2739,-0.4789,0.1534,0.7169,-0.937,0.4046,-0.626,0.4154,0.0486,0.72,-0.9587,0.444,-0.6156,0.4195,0.5307,0.6411,-0.7851,0.0,0.0,0.0,0.0,0.0,0.0,0.0,0.0,0.0,
2.52,run,-0.05,3.21,-0.25,0.03,1.02,0.0,0.0,0.0,0.104,6.15,-11.87,30.06,4.83,14.41,-14.59,14.24,-59.5,87.89,1.49,14.68,-16.52,15.38,-58.54,86.48,18.54,10.46,-2.64,6.42,-7.33,24.31,6.64,14.81,-15.0,13.66,-57.67,96.53,0.85,14.79,-16.68,15.6,-58.39,92.58,18.5,9.85,0.13,0.1833,0.3214,-0.5195,0.1898,0.7239,-0.9412,0.3903,-0.5941,0.4162,0.0244,0.7234,-0.9609,0.4458,-0.607,0.4246,0.5284,0.6336,-0.7632,0.006,0.006,0.013,0.0,0.0,0.006,0.006,0.013,0.026,0.0,0.0,0.0,0.006,0.0,0.006,0.0,0.006,0.006,0.112,-0.2424,0.5507,0.0629,0.2362,-0.2531,0.2485,-1.0584,1.4956,0.0399,0.2439,-0.2899,0.2669,-1.037,1.4742,0.3237,0.1764,-0.069,0.0444,0.2762,-0.3024,0.1552,0.0938,-0.1394,-0.0498,0.1316,0.3078,-0.145,0.0637,-0.0793,0.0253,0.0219,0.3109,0.0069,0.0008,0.1903,-0.0158,0.0499,0.0053,-0.0001,-0.0157,0.1816,0.2974,-0.4989,0.1716,0.7203,-0.9373,0.3997,-0.6076,0.415,0.0344,0.7233,-0.9589,0.444,-0.6084,0.4226,0.5285,0.6383,-0.7729,0.0,0.0,0.0,0.0,0.0,0.0,0.0,0.0,0.0,
2.56,run,-0.05,3.25,0.14,0.34,-0.04,0.0,0.0,0.0,0.104,6.24,-10.63,28.65,5.36,14.5,-14.68,13.97,-58.71,89.3,1.14,14.68,-16.52,15.38,-58.54,87.71,18.54,10.46,-1.76,6.5,-5.94,22.81,7.36,15.02,-15.05,13.33,-56.47,98.03,0.33,14.87,-16.62,15.61,-57.95,94.08,18.34,9.5,1.24,0.1857,0.3465,-0.544,0.2102,0.7277,-0.9418,0.3809,-0.5721,0.4155,0.0094,0.7248,-0.9602,0.446,-0.5991,0.4256,0.5239,0.6273,-0.7502,0.006,0.006,0.013,0.0,0.0,0.006,0.006,0.013,0.026,0.0,0.0,0.0,0.006,0.0,0.006,0.0,0.006,0.006,0.1074,-0.2148,0.5216,0.0813,0.2424,-0.2562,0.2454,-1.0416,1.5248,0.0276,0.2485,-0.2915,0.2669,-1.0262,1.5064,0.3237,0.1733,-0.0491,0.0163,0.2817,-0.305,0.1675,0.0853,-0.1074,-0.0446,0.1461,0.3087,-0.1408,0.0593,-0.0604,0.0177,0.0497,0.3207,0.0048,-0.0093,0.197,-0.0179,0.0505,-0.0044,0.0005,0.0178,0.1833,0.3214,-0.5195,0.1898,0.7239,-0.9412,0.3903,-0.5941,0.4162,0.0244,0.7234,-0.9609,0.4458,-0.607,0.4246,0.5284,0.6336,-0.7632,0.0,0.0,0.0,0.0,0.0,0.0,0.0,0.0,0.0,
2.6,run,-0.04,3.29,0.75,0.6,-1.04,0.0,0.0,0.0,0.104,6.86,-9.32,27.25,6.06,14.68,-14.94,13.71,-57.92,90.7,0.62,14.77,-16.52,15.38,-58.27,89.21,18.46,10.11,-0.79,6.54,-4.88,21.31,7.86,15.04,-15.12,13.06,-55.61,99.53,0.04,14.81,-16.53,15.6,-57.72,95.58,18.25,9.21,1.92,0.187,0.3658,-0.5603,0.2246,0.7281,-0.9426,0.3732,-0.5566,0.4137,0.0012,0.7238,-0.9592,0.4457,-0.595,0.4249,0.5215,0.6221,-0.7421,0.006,0.006,0.013,0.013,0.0,0.013,0.006,0.006,0.026,0.006,0.0,0.0,0.006,0.0,0.0,0.0,0.013,0.006,0.1089,-0.1933,0.497,0.0905,0.2439,-0.2577,0.2408,-1.0278,1.5493,0.0215,0.2485,-0.2915,0.2669,-1.0262,1.5278,0.3237,0.1733,-0.0337,0.0171,0.2771,-0.3047,0.1515,0.0654,-0.0809,-0.0484,0.1536,0.3074,-0.1214,0.0415,-0.0423,0.0124,0.0348,0.3043,0.0034,-0.0065,0.195,-0.0177,0.0538,0.0024,0.0059,-0.0006,0.1857,0.3465,-0.544,0.2102,0.7277,-0.9418,0.3809,-0.5721,0.4155,0.0094,0.7248,-0.9602,0.446,-0.5991,0.4256,0.5239,0.6273,-0.7502,0.0,0.0,0.0,0.0,0.0,0.0,0.0,0.0,0.0,
2.64,run,-0.08,3.27,-0.68,-0.4,1.42,0.0,0.0,0.0,0.104,6.33,-8.09,25.84,6.77,14.94,-15.03,13.36,-56.87,92.11,0.09,14.77,-16.52,15.38,-57.83,90.62,18.19,9.84,0.18,6.56,-3.83,19.81,8.35,15.11,-15.3,12.75,-54.75,100.09,-0.18,14.7,-16.54,15.6,-57.51,97.08,18.16,8.84,2.63,0.1873,0.3849,-0.5783,0.2386,0.7293,-0.9447,0.3642,-0.541,0.4128,-0.0052,0.7218,-0.9593,0.4458,-0.5912,0.4249,0.5188,0.6152,-0.7338,0.006,0.006,0.013,0.013,0.0,0.013,0.006,0.006,0.026,0.006,0.0,0.0,0.006,0.0,0.0,0.0,0.013,0.006,0.1197,-0.1703,0.4725,0.1028,0.247,-0.2623,0.2362,-1.014,1.5739,0.0123,0.25,-0.2915,0.2669,-1.0216,1.5539,0.3221,0.1672,-0.0169,0.0522,0.28,-0.3051,0.1519,0.0573,-0.0738,-0.0511,0.1592,0.307,-0.1194,0.0348,-0.0296,0.0087,0.0416,0.3106,-0.0034,-0.0275,0.1996,-0.0174,0.0569,0.0131,0.0105,-0.0182,0.187,0.3658,-0.5603,0.2246,0.7281,-0.9426,0.3732,-0.5566,0.4137,0.0012,0.7238,-0.9592,0.4457,-0.595,0.4249,0.5215,0.6221,-0.7421,0.0,0.0,0.0,0.0,0.0,0.0,0.0,0.0,0.0,
2.68,run,-0.08,3.28,0.12,0.06,-0.88,0.0,0.0,0.0,0.104,6.42,-6.86,24.43,7.29,14.94,-15.21,13.18,-56.07,93.52,0.0,14.77,-16.44,15.38,-57.74,92.02,18.19,9.58,1.05,6.64,-2.84,18.31,8.85,15.15,-15.08,12.51,-53.74,100.0,-0.5,14.62,-16.29,15.56,-57.23,98.58,17.96,8.46,3.45,0.1897,0.403,-0.5956,0.2528,0.73,-0.9422,0.3575,-0.5225,0.4117,-0.0142,0.7204,-0.9564,0.4447,-0.586,0.4241,0.513,0.6083,-0.7241,0.006,0.006,0.013,0.013,0.0,0.013,0.006,0.006,0.026,0.006,0.0,0.0,0.006,0.0,0.0,0.0,0.013,0.006,0.1104,-0.1488,0.4479,0.115,0.2516,-0.2638,0.2301,-0.9956,1.5984,0.0031,0.25,-0.2915,0.2669,-1.014,1.5785,0.3175,0.1626,0.0,0.0018,0.277,-0.3062,0.1527,0.0575,-0.0575,-0.0589,0.1809,0.3075,-0.1183,0.0244,-0.0207,0.0061,0.058,0.31,-0.0197,-0.0366,0.2034,-0.0203,0.0559,-0.0118,-0.007,0.0248,0.1873,0.3849,-0.5783,0.2386,0.7293,-0.9447,0.3642,-0.541,0.4128,-0.0052,0.7218,-0.9593,0.4458,-0.5912,0.4249,0.5188,0.6152,-0.7338,0.0,0.0,0.0,0.0,0.0,0.0,0.0,0.0,0.0,
2.72,run,-0.09,3.31,0.07,0.18,-0.41,0.0,0.0,0.0,0.104,7.03,-5.62,23.03,8.0,14.94,-15.03,12.74,-55.11,94.92,-0.44,14.77,-16.44,15.38,-57.3,93.52,18.02,9.32,1.93,6.63,-2.03,16.81,9.22,15.08,-15.2,12.24,-53.11,99.77,-0.65,14.42,-16.13,15.57,-57.23,100.08,17.81,8.05,3.77,0.1893,0.4177,-0.6086,0.2633,0.7288,-0.9436,0.3498,-0.5111,0.4091,-0.0186,0.7168,-0.9545,0.4447,-0.586,0.4218,0.5088,0.6008,-0.7203,0.006,0.006,0.013,0.006,0.006,0.006,0.006,0.006,0.026,0.006,0.006,0.0,0.006,0.0,0.006,0.019,0.019,0.006,0.112,-0.1273,0.4234,0.1243,0.2516,-0.2669,0.227,-0.9817,1.623,0.0015,0.25,-0.2899,0.2669,-1.0124,1.603,0.3175,0.158,0.0153,0.007,0.2741,-0.306,0.1412,0.0402,-0.0517,-0.0527,0.1782,0.3069,-0.0885,0.0171,-0.0088,0.0042,0.0464,0.3086,-0.0138,-0.0428,0.1996,-0.0208,0.0567,0.0021,0.001,-0.0153,0.1897,0.403,-0.5956,0.2528,0.73,-0.9422,0.3575,-0.5225,0.4117,-0.0142,0.7204,-0.9564,0.4447,-0.586,0.4241,0.513,0.6083,-0.7241,0.0,0.0,0.0,0.0,0.0,0.0,0.0,0.0,0.0,
2.76,run,-0.12,3.3,-0.59,-0.39,0.71,0.0,0.0,0.0,0.104,6.33,-4.39,21.53,8.44,14.94,-15.12,12.48,-54.14,96.33,-0.62,14.77,-16.26,15.38,-57.39,94.92,17.75,8.88,2.72,6.57,-1.27,15.31,9.6,14.92,-15.06,11.95,-52.27,99.5,-0.75,14.12,-15.85,15.55,-56.98,100.73,17.65,7.51,4.32,0.1877,0.4315,-0.6226,0.2743,0.7258,-0.9419,0.3414,-0.4958,0.4059,-0.0216,0.7113,-0.9511,0.4444,-0.5815,0.4203,0.5043,0.5911,-0.7139,0.006,0.006,0.013,0.006,0.006,0.006,0.006,0.006,0.026,0.006,0.006,0.0,0.006,0.0,0.006,0.019,0.019,0.006,0.1227,-0.1058,0.3988,0.1365,0.2516,-0.2638,0.2194,-0.9649,1.6475,-0.0061,0.25,-0.2899,0.2669,-1.0048,1.6291,0.3145,0.1534,0.0307,0.0452,0.2725,-0.3063,0.1449,0.0282,-0.0247,-0.0657,0.188,0.3069,-0.0908,0.0119,-0.0061,0.003,0.0612,0.3139,-0.0212,-0.0472,0.1973,-0.0217,0.0594,0.0012,0.0031,-0.0071,0.1893,0.4177,-0.6086,0.2633,0.7288,-0.9436,0.3498,-0.5111,0.4091,-0.0186,0.7168,-0.9545,0.4447,-0.586,0.4218,0.5088,0.6008,-0.7203,0.0,0.0,0.0,0.0,0.0,0.0,0.0,0.0,0.0,
2.8,run,-0.12,3.34,0.31,0.42,-0.19,0.0,0.0,0.0,0.104,6.5,-3.34,20.21,8.88,14.94,-15.12,12.22,-53.35,97.47,-0.7,14.77,-16.26,15.38,-57.13,96.33,17.75,8.61,3.34,6.59,-0.56,13.81,9.95,14.82,-15.03,11.75,-51.5,99.27,-0.94,13.89,-15.46,15.49,-56.93,100.44,17.39,7.04,4.79,0.1883,0.4444,-0.6348,0.2842,0.724,-0.9415,0.3357,-0.4818,0.4032,-0.0267,0.7071,-0.9466,0.4426,-0.5805,0.417,0.4967,0.5825,-0.7084,0.006,0.006,0.013,0.006,0.006,0.006,0.006,0.006,0.026,0.006,0.006,0.0,0.006,0.0,0.006,0.019,0.019,0.006,0.1104,-0.0844,0.3728,0.1442,0.2516,-0.2654,0.2148,-0.948,1.672,-0.0092,0.25,-0.2869,0.2669,-1.0063,1.6536,0.3099,0.1457,0.0445,-0.0144,0.2713,-0.3122,0.1302,0.0197,-0.023,-0.0632,0.1949,0.3069,-0.075,0.0084,0.0072,0.0021,0.0371,0.3118,-0.0321,-0.0618,0.1899,-0.0243,0.0585,-0.0102,-0.0067,0.0124,0.1877,0.4315,-0.6226,0.2743,0.7258,-0.9419,0.3414,-0.4958,0.4059,-0.0216,0.7113,-0.9511,0.4444,-0.5815,0.4203,0.5043,0.5911,-0.7139,0.0,0.0,0.0,0.0,0.0,0.0,0.0,0.0,0.0,
2.84,run,-0.12,3.36,-0.3,-0.32,-0.13,0.0,0.0,0.0,0.104,6.86,-2.29,18.72,9.32,14.94,-15.12,11.95,-52.56,98.26,-0.97,14.5,-15.64,15.29,-57.04,97.73,17.58,8.09,3.96,6.49,-0.04,12.31,10.19,14.58,-14.96,11.51,-50.95,98.84,-0.98,13.53,-15.13,15.51,-56.91,100.19,17.19,6.5,4.84,0.1855,0.4538,-0.6445,0.2913,0.7197,-0.9407,0.3287,-0.4719,0.3982,-0.0279,0.7006,-0.9427,0.4431,-0.5801,0.414,0.4912,0.5727,-0.7078,0.0,0.0,0.006,0.013,0.006,0.006,0.0,0.006,0.006,0.0,0.013,0.0,0.006,0.006,0.006,0.0,0.019,0.0,0.1135,-0.066,0.3497,0.1519,0.2516,-0.2654,0.2102,-0.9342,1.692,-0.0107,0.25,-0.2869,0.2669,-1.0017,1.6782,0.3099,0.1411,0.0552,0.0012,0.2575,-0.3031,0.1193,0.0138,-0.0161,-0.0612,0.1871,0.2881,-0.0582,0.0058,0.005,0.0015,0.0429,0.3084,-0.0225,-0.0602,0.1724,-0.0239,0.0618,0.0053,0.0073,-0.0033,0.1883,0.4444,-0.6348,0.2842,0.724,-0.9415,0.3357,-0.4818,0.4032,-0.0267,0.7071,-0.9466,0.4426,-0.5805,0.417,0.4967,0.5825,-0.7084,0.0,0.0,0.0,0.0,0.0,0.0,0.0,0.0,0.0,
2.88,run,-0.16,3.36,-1.04,-0.55,0.97,0.0,0.0,0.0,0.104,6.24,-1.41,17.31,9.67,14.94,-15.03,11.78,-51.77,98.88,-0.97,14.15,-15.38,15.38,-56.95,98.88,17.05,7.56,4.39,6.39,0.44,10.81,10.47,14.26,-14.9,11.31,-50.28,98.46,-1.01,13.15,-14.82,15.53,-56.75,99.94,16.99,5.87,5.15,0.1827,0.4626,-0.6548,0.2991,0.7138,-0.94,0.3231,-0.4596,0.3937,-0.0289,0.6936,-0.939,0.4438,-0.5773,0.4111,0.4856,0.5613,-0.7042,0.0,0.0,0.006,0.013,0.006,0.006,0.0,0.006,0.006,0.0,0.013,0.0,0.006,0.006,0.006,0.0,0.019,0.0,0.1197,-0.0476,0.3237,0.1595,0.2516,-0.2654,0.2056,-0.9204,1.7058,-0.0153,0.2454,-0.2761,0.2654,-1.0002,1.7027,0.3068,0.1319,0.066,0.0244,0.2508,-0.3121,0.1129,0.0097,-0.0113,-0.0605,0.1839,0.2546,-0.0584,-0.0136,0.0447,-0.0049,0.0359,0.31,-0.0275,-0.0774,0.1618,-0.0236,0.063,-0.0052,-0.0055,-0.0024,0.1855,0.4538,-0.6445,0.2913,0.7197,-0.9407,0.3287,-0.4719,0.3982,-0.0279,0.7006,-0.9427,0.4431,-0.5801,0.414,0.4912,0.5727,-0.7078,0.0,0.0,0.0,0.0,0.0,0.0,0.0,0.0,0.0,
2.92,run,-0.15,3.39,0.44,0.19,0.14,0.0,0.0,0.0,0.104,6.15,-0.62,15.91,9.93,14.94,-14.94,11.51,-51.06,99.14,-0.97,13.89,-15.21,15.38,-56.87,99.67,17.05,7.12,4.75,6.36,0.88,9.31,10.66,14.04,-14.95,11.18,-49.65,98.07,-1.07,12.84,-14.35,15.52,-56.76,99.66,16.75,5.31,5.38,0.1816,0.4705,-0.662,0.3046,0.7098,-0.9406,0.3193,-0.4482,0.3891,-0.0306,0.688,-0.9336,0.4433,-0.5775,0.4077,0.4784,0.5511,-0.7014,0.0,0.0,0.006,0.013,0.006,0.006,0.0,0.006,0.006,0.0,0.013,0.0,0.006,0.006,0.006,0.0,0.019,0.0,0.1089,-0.0322,0.2991,0.1657,0.2516,-0.2638,0.2025,-0.9066,1.7165,-0.0153,0.2393,-0.2715,0.2669,-0.9986,1.7227,0.2976,0.1227,0.0736,-0.0233,0.2333,-0.3108,0.1021,0.0068,-0.0021,-0.0539,0.1807,0.2186,-0.0409,-0.0326,0.0486,0.0024,0.0309,0.292,-0.0539,-0.0888,0.1421,-0.0279,0.0634,-0.0181,-0.0095,0.017,0.1827,0.4626,-0.6548,0.2991,0.7138,-0.94,0.3231,-0.4596,0.3937,-0.0289,0.6936,-0.939,0.4438,-0.5773,0.4111,0.4856,0.5613,-0.7042,0.0,0.0,0.0,0.0,0.0,0.0,0.0,0.0,0.0,
2.96,run,-0.15,3.4,0.31,0.16,-0.97,0.0,0.0,0.0,0.104,6.59,0.09,14.5,10.2,14.77,-15.03,11.34,-50.45,99.14,-0.97,13.45,-14.59,15.38,-56.87,100.2,16.88,6.5,5.01,6.24,1.08,8.26,10.76,13.7,-14.88,11.0,-49.27,97.39,-1.05,12.47,-14.04,15.54,-56.77,99.23,16.56,4.8,5.23,0.1783,0.4742,-0.6675,0.3075,0.7037,-0.9397,0.3142,-0.4413,0.381,-0.03,0.6812,-0.9299,0.4439,-0.5776,0.4027,0.4731,0.5417,-0.7032,0.006,0.0,0.013,0.006,0.019,0.006,0.006,0.0,0.006,0.0,0.019,0.006,0.006,0.0,0.0,0.006,0.019,0.0,0.1074,-0.0184,0.2746,0.1703,0.2516,-0.2623,0.1979,-0.8943,1.7211,-0.0153,0.2347,-0.2684,0.2669,-0.9971,1.7365,0.2976,0.115,0.0798,-0.022,0.2146,-0.3088,0.0886,0.0047,0.0042,-0.0548,0.1721,0.1701,-0.0286,-0.0399,0.0454,0.0017,0.0273,0.2557,-0.0377,-0.0907,0.1223,-0.027,0.0656,0.0077,0.0034,0.0024,0.1816,0.4705,-0.662,0.3046,0.7098,-0.9406,0.3193,-0.4482,0.3891,-0.0306,0.688,-0.9336,0.4433,-0.5775,0.4077,0.4784,0.5511,-0.7014,0.0,0.0,0.0,0.0,0.0,0.0,0.0,0.0,0.0,
3.0,run,-0.2,3.38,-1.19,-0.81,1.47,0.0,0.0,0.0,0.104,6.06,0.62,13.1,10.37,14.41,-14.94,11.25,-49.75,98.79,-0.97,13.1,-14.24,15.38,-56.87,100.28,16.44,5.98,5.19,6.11,1.28,7.93,10.85,13.32,-14.96,10.87,-48.88,96.89,-1.01,12.11,-13.81,15.58,-56.67,98.86,16.43,4.27,5.34,0.1746,0.4778,-0.6714,0.31,0.6968,-0.9407,0.3104,-0.4341,0.3751,-0.0289,0.6748,-0.9271,0.4452,-0.5759,0.3984,0.4695,0.5321,-0.7019,0.006,0.0,0.013,0.006,0.019,0.006,0.006,0.0,0.006,0.0,0.019,0.006,0.006,0.0,0.0,0.006,0.019,0.0,0.115,-0.0061,0.25,0.1749,0.2485,-0.2638,0.1948,-0.8836,1.7211,-0.0153,0.227,-0.2577,0.2669,-0.9971,1.7457,0.2945,0.1043,0.0844,0.0133,0.1962,-0.3081,0.0793,-0.0082,-0.0028,-0.0499,0.1607,0.1191,-0.02,-0.0567,0.072,0.0012,0.0191,0.2135,-0.0379,-0.1037,0.1028,-0.0263,0.0671,0.0053,0.0029,-0.017,0.1783,0.4742,-0.6675,0.3075,0.7037,-0.9397,0.3142,-0.4413,0.381,-0.03,0.6812,-0.9299,0.4439,-0.5776,0.4027,0.4731,0.5417,-0.7032,0.0,0.0,0.0,0.0,0.0,0.0,0.0,0.0,0.0,
3.04,run,-0.17,3.38,0.24,0.18,0.03,0.0,0.0,0.0,0.104,5.98,0.97,11.6,10.46,14.15,-14.85,11.16,-49.31,98.17,-0.97,12.83,-14.06,15.38,-56.87,100.11,16.44,5.45,5.19,6.08,1.46,7.58,10.96,13.12,-14.82,10.82,-48.27,96.59,-1.05,11.95,-13.4,15.56,-56.47,98.56,16.23,3.82,5.81,0.1738,0.4811,-0.6756,0.3132,0.693,-0.9391,0.309,-0.4232,0.3717,-0.03,0.6718,-0.9223,0.4447,-0.5722,0.3948,0.4636,0.5241,-0.6963,0.006,0.0,0.013,0.006,0.019,0.006,0.006,0.0,0.006,0.0,0.019,0.006,0.006,0.0,0.0,0.006,0.019,0.0,0.1058,0.0031,0.2255,0.1779,0.2424,-0.2623,0.1933,-0.8713,1.715,-0.0153,0.2209,-0.2516,0.2669,-0.9971,1.7472,0.2869,0.0951,0.0874,-0.0254,0.1721,-0.3084,0.0671,-0.0289,0.0038,-0.0407,0.1588,0.0602,-0.014,-0.0628,0.0736,0.0008,0.0134,0.1552,-0.0555,-0.1073,0.0836,-0.0306,0.0648,-0.0208,-0.0142,0.0256,0.1746,0.4778,-0.6714,0.31,0.6968,-0.9407,0.3104,-0.4341,0.3751,-0.0289,0.6748,-0.9271,0.4452,-0.5759,0.3984,0.4695,0.5321,-0.7019,0.0,0.0,0.0,0.0,0.0,0.0,0.0,0.0,0.0,
3.08,run,-0.19,3.38,-0.05,-0.0,-0.49,0.0,0.0,0.0,0.104,6.33,1.32,10.28,10.63,13.8,-14.85,10.9,-48.78,97.91,-0.97,12.48,-13.54,15.38,-56.6,99.23,16.35,4.92,5.27,5.96,1.42,7.46,10.91,12.82,-14.89,10.73,-48.1,95.88,-0.99,11.74,-13.3,15.61,-56.43,98.11,16.16,3.49,5.58,0.1703,0.4804,-0.677,0.3116,0.6877,-0.9399,0.3066,-0.42,0.3632,-0.0282,0.668,-0.9212,0.446,-0.5715,0.3895,0.4616,0.5181,-0.6991,0.0,0.0,0.013,0.006,0.013,0.0,0.0,0.0,0.013,0.0,0.013,0.006,0.013,0.006,0.006,0.006,0.019,0.0,0.1043,0.0092,0.1994,0.1795,0.2378,-0.2608,0.1917,-0.8636,1.7043,-0.0153,0.2163,-0.2485,0.2669,-0.9971,1.7441,0.2869,0.0859,0.0874,-0.0235,0.1433,-0.3131,0.0527,-0.0374,0.0084,-0.0342,0.1398,0.0021,-0.0098,-0.0611,0.0629,0.0006,0.0094,0.0972,-0.0388,-0.1095,0.0585,-0.0285,0.0651,0.0043,0.0031,0.0006,0.1738,0.4811,-0.6756,0.3132,0.693,-0.9391,0.309,-0.4232,0.3717,-0.03,0.6718,-0.9223,0.4447,-0.5722,0.3948,0.4636,0.5241,-0.6963,0.0,0.0,0.0,0.0,0.0,0.0,0.0,0.0,0.0,
3.12,run,-0.23,3.37,-1.05,-0.62,1.37,0.0,0.0,0.0,0.104,5.71,1.32,9.23,10.63,13.45,-14.85,10.9,-48.34,97.12,-0.97,12.3,-13.45,15.38,-56.51,98.61,16.17,4.39,5.45,5.88,1.32,7.5,10.88,12.53,-14.83,10.66,-47.93,95.43,-0.97,11.57,-13.26,15.65,-56.28,97.68,16.11,3.24,5.69,0.168,0.4786,-0.6764,0.3109,0.6824,-0.9392,0.3046,-0.4169,0.358,-0.0276,0.6649,-0.9207,0.447,-0.5687,0.3845,0.4603,0.5135,-0.6978,0.0,0.0,0.013,0.006,0.013,0.0,0.0,0.0,0.013,0.0,0.013,0.006,0.013,0.006,0.006,0.006,0.019,0.0,0.1104,0.0153,0.1764,0.1825,0.2316,-0.2608,0.1871,-0.8544,1.6997,-0.0153,0.2102,-0.2393,0.2669,-0.9925,1.7288,0.2853,0.0767,0.089,0.0067,0.1235,-0.3059,0.0484,-0.0493,0.0059,-0.0413,0.1325,-0.0159,-0.0069,-0.0659,0.0787,0.0004,0.0239,0.0103,-0.033,-0.1113,0.0467,-0.0298,0.0655,-0.0008,-0.0001,-0.0085,0.1703,0.4804,-0.677,0.3116,0.6877,-0.9399,0.3066,-0.42,0.3632,-0.0282,0.668,-0.9212,0.446,-0.5715,0.3895,0.4616,0.5181,-0.6991,0.0,0.0,0.0,0.0,0.0,0.0,0.0,0.0,0.0,
3.16,run,-0.22,3.4,0.25,0.47,-0.17,0.0,0.0,0.0,0.104,5.89,1.32,8.44,10.63,13.27,-14.85,10.81,-48.08,96.5,-0.97,12.04,-13.36,15.38,-56.43,98.0,16.17,4.04,5.54,5.87,1.33,7.39,10.88,12.49,-14.71,10.68,-47.63,95.18,-0.99,11.61,-13.05,15.64,-56.11,97.36,15.99,3.08,5.97,0.1678,0.4787,-0.6777,0.3108,0.6816,-0.9378,0.305,-0.4115,0.3551,-0.0282,0.6656,-0.9182,0.4469,-0.5657,0.3807,0.4568,0.5106,-0.6945,0.0,0.0,0.013,0.006,0.013,0.0,0.0,0.0,0.013,0.0,0.013,0.006,0.013,0.006,0.006,0.006,0.019,0.0,0.0997,0.0153,0.158,0.1825,0.2255,-0.2608,0.1871,-0.8468,1.6858,-0.0153,0.2071,-0.2378,0.2669,-0.991,1.7181,0.2823,0.0675,0.092,-0.0358,0.0864,-0.2834,0.0339,-0.0576,0.0041,-0.0289,0.1217,-0.0631,-0.0048,-0.0577,0.0609,0.0003,0.0225,-0.0333,-0.0346,-0.1126,0.0443,-0.0337,0.0641,-0.0182,-0.0109,0.0239,0.168,0.4786,-0.6764,0.3109,0.6824,-0.9392,0.3046,-0.4169,0.358,-0.0276,0.6649,-0.9207,0.447,-0.5687,0.3845,0.4603,0.5135,-0.6978,0.0,0.0,0.0,0.0,0.0,0.0,0.0,0.0,0.0,
3.2,run,-0.22,3.4,0.04,0.12,-0.43,0.0,0.0,0.0,0.104,6.33,1.32,7.91,10.63,13.01,-14.85,10.81,-47.81,95.98,-0.97,12.04,-13.1,15.38,-56.16,97.56,16.08,3.78,5.54,5.8,1.22,7.48,10.77,12.3,-14.73,10.63,-47.67,94.66,-0.91,11.5,-13.06,15.69,-56.06,97.04,16.01,2.99,5.71,0.1657,0.4767,-0.6767,0.3078,0.6783,-0.938,0.3036,-0.4121,0.349,-0.026,0.6636,-0.9183,0.4482,-0.5647,0.377,0.4573,0.5088,-0.6976,0.006,0.0,0.0,0.006,0.013,0.006,0.0,0.0,0.019,0.0,0.013,0.0,0.006,0.0,0.006,0.006,0.013,0.0,0.1028,0.0153,0.1442,0.1825,0.2224,-0.2608,0.1856,-0.8422,1.6751,-0.0153,0.2025,-0.2362,0.2669,-0.9894,1.7073,0.2823,0.0614,0.0936,-0.0136,0.0605,-0.2499,0.0237,-0.0518,0.0029,-0.026,0.1023,-0.0843,-0.0034,-0.0576,0.0484,0.0002,0.0215,-0.0634,-0.0242,-0.1017,0.0367,-0.0326,0.0668,0.0044,0.0082,-0.003,0.1678,0.4787,-0.6777,0.3108,0.6816,-0.9378,0.305,-0.4115,0.3551,-0.0282,0.6656,-0.9182,0.4469,-0.5657,0.3807,0.4568,0.5106,-0.6945,0.0,0.0,0.0,0.0,0.0,0.0,0.0,0.0,0.0,
3.24,run,-0.21,3.4,0.19,0.32,0.47,0.0,0.0,0.0,0.104,5.36,1.32,7.65,10.63,12.83,-14.85,10.72,-47.72,95.54,-0.97,12.04,-13.1,15.38,-56.25,97.12,16.0,3.6,5.54,5.76,1.15,7.4,10.76,12.13,-14.59,10.6,-47.61,94.48,-0.88,11.41,-13.08,15.72,-55.92,96.88,15.98,2.81,5.74,0.1645,0.4754,-0.6777,0.3074,0.6752,-0.9364,0.3027,-0.411,0.3468,-0.0251,0.662,-0.9186,0.449,-0.5622,0.3751,0.4567,0.5057,-0.6972,0.006,0.0,0.0,0.006,0.013,0.006,0.0,0.0,0.019,0.0,0.013,0.0,0.006,0.0,0.006,0.006,0.013,0.0,0.1104,0.0153,0.135,0.1825,0.2178,-0.2608,0.1856,-0.8376,1.6659,-0.0153,0.2025,-0.2316,0.2669,-0.9848,1.6997,0.2807,0.0568,0.0936,0.0192,0.0423,-0.2095,0.0166,-0.0535,0.002,-0.0182,0.0889,-0.0935,-0.0024,-0.0403,0.0511,0.0001,0.0323,-0.0731,-0.0227,-0.0885,0.0257,-0.0325,0.067,0.0007,0.0021,-0.0075,0.1657,0.4767,-0.6767,0.3078,0.6783,-0.938,0.3036,-0.4121,0.349,-0.026,0.6636,-0.9183,0.4482,-0.5647,0.377,0.4573,0.5088,-0.6976,0.0,0.0,0.0,0.0,0.0,0.0,0.0,0.0,0.0,
3.28,run,-0.21,3.37,-0.08,-0.08,-0.29,0.0,0.0,0.0,0.104,5.71,1.32,7.65,10.63,12.74,-14.85,10.72,-47.72,95.19,-0.97,12.04,-13.01,15.38,-56.16,97.03,16.0,3.43,5.54,5.79,1.08,7.42,10.74,12.17,-14.55,10.62,-47.63,94.22,-0.94,11.45,-12.98,15.69,-55.95,96.5,15.91,2.86,5.74,0.1655,0.4742,-0.6774,0.3068,0.6758,-0.9358,0.3033,-0.4115,0.3437,-0.0269,0.6627,-0.9174,0.4482,-0.5627,0.3706,0.4547,0.5066,-0.6971,0.006,0.0,0.0,0.006,0.013,0.006,0.0,0.0,0.019,0.0,0.013,0.0,0.006,0.0,0.006,0.006,0.013,0.0,0.0936,0.0153,0.1304,0.1825,0.2148,-0.2608,0.1841,-0.836,1.6582,-0.0153,0.2025,-0.2316,0.2669,-0.9863,1.692,0.2792,0.0537,0.0936,-0.0403,0.0296,-0.1613,0.0116,-0.0472,0.0014,-0.0176,0.0671,-0.0899,-0.0016,-0.0282,0.0358,0.0001,0.0177,-0.0756,-0.0208,-0.0717,0.018,-0.0317,0.0665,0.0033,0.0055,0.0082,0.1645,0.4754,-0.6777,0.3074,0.6752,-0.9364,0.3027,-0.411,0.3468,-0.0251,0.662,-0.9186,0.449,-0.5622,0.3751,0.4567,0.5057,-0.6972,0.0,0.0,0.0,0.0,0.0,0.0,0.0,0.0,0.0,
3.32,run,-0.22,3.35,-0.33,-0.14,-0.81,0.0,0.0,0.0,0.104,5.89,1.32,7.65,10.63,12.74,-14.77,10.72,-47.72,94.92,-0.97,11.95,-13.01,15.56,-56.07,96.68,16.0,3.43,5.54,5.77,1.1,7.28,10.75,12.08,-14.58,10.61,-47.68,94.12,-0.93,11.44,-13.13,15.74,-55.89,96.49,15.96,2.78,5.74,0.1648,0.4745,-0.6791,0.3073,0.6742,-0.9362,0.3033,-0.4123,0.3426,-0.0265,0.6625,-0.9192,0.4499,-0.5617,0.3704,0.456,0.5051,-0.6971,0.006,0.006,0.006,0.0,0.013,0.0,0.0,0.0,0.013,0.0,0.006,0.0,0.006,0.0,0.006,0.0,0.013,0.0,0.0997,0.0153,0.1304,0.1825,0.2132,-0.2608,0.1841,-0.836,1.6521,-0.0153,0.2025,-0.2301,0.2669,-0.9848,1.6904,0.2792,0.0506,0.0936,-0.0054,0.0208,-0.1129,0.0081,-0.0388,0.001,-0.0123,0.047,-0.0858,-0.0012,-0.0197,0.0308,0.0001,0.0181,-0.0587,-0.0146,-0.0616,0.0126,-0.0315,0.0646,-0.0015,-0.0014,-0.005,0.1655,0.4742,-0.6774,0.3068,0.6758,-0.9358,0.3033,-0.4115,0.3437,-0.0269,0.6627,-0.9174,0.4482,-0.5627,0.3706,0.4547,0.5066,-0.6971,0.0,0.0,0.0,0.0,0.0,0.0,0.0,0.0,0.0,
3.36,run,-0.21,3.34,-0.05,-0.07,1.05,0.0,0.0,0.0,0.104,5.45,1.32,7.65,10.63,12.66,-14.68,10.72,-47.72,94.66,-0.97,11.95,-13.01,15.56,-55.99,96.59,16.0,3.43,5.54,5.77,1.11,7.27,10.76,12.0,-14.54,10.6,-47.69,93.93,-0.95,11.45,-13.14,15.77,-55.84,96.39,15.98,2.76,5.77,0.1648,0.4748,-0.6792,0.3073,0.6728,-0.9358,0.3028,-0.4125,0.3404,-0.0271,0.6628,-0.9193,0.4505,-0.5608,0.3693,0.4565,0.5047,-0.6968,0.006,0.006,0.006,0.0,0.013,0.0,0.0,0.0,0.013,0.0,0.006,0.0,0.006,0.0,0.006,0.0,0.013,0.0,0.1028,0.0153,0.1304,0.1825,0.2132,-0.2592,0.1841,-0.836,1.6475,-0.0153,0.201,-0.2301,0.27,-0.9833,1.6843,0.2792,0.0506,0.0936,0.0077,0.0145,-0.079,0.0057,-0.0271,0.0064,-0.0086,0.0329,-0.0773,-0.0008,-0.0196,0.0215,0.0115,0.0184,-0.0641,-0.0102,-0.0431,0.0088,-0.0329,0.0626,-0.0057,-0.0025,-0.0141,0.1648,0.4745,-0.6791,0.3073,0.6742,-0.9362,0.3033,-0.4123,0.3426,-0.0265,0.6625,-0.9192,0.4499,-0.5617,0.3704,0.456,0.5051,-0.6971,0.0,0.0,0.0,0.0,0.0,0.0,0.0,0.0,0.0,
3.4,run,-0.19,3.33,0.09,0.08,-1.05,0.0,0.0,0.0,0.104,5.98,1.32,7.65,10.63,12.57,-14.59,10.72,-47.72,94.57,-0.97,11.95,-13.01,15.56,-56.07,96.59,16.0,3.34,5.54,5.8,1.05,7.15,10.78,12.04,-14.34,10.6,-47.59,93.82,-0.98,11.46,-13.04,15.72,-55.78,96.23,15.9,2.75,5.75,0.1656,0.4737,-0.6806,0.308,0.6735,-0.9334,0.3029,-0.4108,0.339,-0.0279,0.663,-0.9182,0.4493,-0.5597,0.3674,0.4544,0.5046,-0.697,0.006,0.006,0.006,0.0,0.013,0.0,0.0,0.0,0.013,0.0,0.006,0.0,0.006,0.0,0.006,0.0,0.013,0.0,0.0951,0.0153,0.1304,0.1825,0.2117,-0.2577,0.1841,-0.836,1.6429,-0.0153,0.201,-0.2301,0.27,-0.9817,1.6828,0.2792,0.0506,0.0936,-0.0233,0.0102,-0.0553,0.004,-0.0247,0.0103,-0.006,0.023,-0.0713,-0.0006,-0.0137,0.0151,0.0081,0.0186,-0.0506,-0.0071,-0.0302,0.0062,-0.0316,0.0618,-0.0008,-0.0013,0.0183,0.1648,0.4748,-0.6792,0.3073,0.6728,-0.9358,0.3028,-0.4125,0.3404,-0.0271,0.6628,-0.9193,0.4505,-0.5608,0.3693,0.4565,0.5047,-0.6968,0.0,0.0,0.0,0.0,0.0,0.0,0.0,0.0,0.0,
3.44,run,-0.19,3.33,0.07,0.05,0.08,0.0,0.0,0.0,0.104,6.06,1.32,7.38,10.63,12.57,-14.41,10.72,-47.72,94.31,-0.97,11.95,-13.1,15.56,-55.81,96.24,16.0,3.34,5.54,5.75,1.08,7.14,10.76,11.92,-14.5,10.58,-47.7,93.69,-0.93,11.4,-13.16,15.76,-55.8,96.17,15.98,2.69,5.69,0.1643,0.4741,-0.6807,0.3074,0.6713,-0.9353,0.3023,-0.4126,0.3375,-0.0266,0.6618,-0.9196,0.4502,-0.56,0.3666,0.4565,0.5034,-0.6978,0.0,0.006,0.0,0.0,0.013,0.0,0.006,0.0,0.013,0.0,0.013,0.0,0.013,0.0,0.0,0.0,0.019,0.0,0.1043,0.0153,0.1304,0.1825,0.2102,-0.2562,0.1841,-0.836,1.6414,-0.0153,0.201,-0.2301,0.27,-0.9833,1.6828,0.2792,0.0491,0.0936,0.0183,0.0071,-0.0387,0.0028,-0.0231,0.0129,-0.0042,0.0161,-0.0557,-0.0004,-0.0096,0.0105,0.0057,0.0073,-0.0354,-0.005,-0.0269,0.0043,-0.03,0.0605,0.0016,0.0014,-0.0183,0.1656,0.4737,-0.6806,0.308,0.6735,-0.9334,0.3029,-0.4108,0.339,-0.0279,0.663,-0.9182,0.4493,-0.5597,0.3674,0.4544,0.5046,-0.697,0.0,0.0,0.0,0.0,0.0,0.0,0.0,0.0,0.0,
3.48,run,-0.2,3.31,-0.63,-0.45,0.53,0.0,0.0,0.0,0.104,5.27,1.32,7.29,10.63,12.57,-14.41,10.72,-47.72,94.31,-0.97,11.95,-13.1,15.56,-55.9,96.24,16.0,3.34,5.54,5.74,0.96,7.13,10.75,11.89,-14.31,10.57,-47.61,93.57,-0.92,11.38,-13.1,15.74,-55.69,96.11,15.94,2.64,5.67,0.1641,0.472,-0.6808,0.307,0.6707,-0.933,0.3021,-0.411,0.3361,-0.0262,0.6615,-0.9188,0.4498,-0.558,0.366,0.4555,0.5026,-0.698,0.0,0.006,0.0,0.0,0.013,0.0,0.006,0.0,0.013,0.0,0.013,0.0,0.013,0.0,0.0,0.0,0.019,0.0,0.1058,0.0153,0.1258,0.1825,0.2102,-0.2531,0.1841,-0.836,1.6368,-0.0153,0.201,-0.2316,0.27,-0.9787,1.6766,0.2792,0.0491,0.0936,0.0185,0.005,-0.0443,0.002,-0.0162,0.0205,-0.003,0.0113,-0.0561,-0.0003,-0.0067,0.0017,0.004,0.0222,-0.0477,-0.0035,-0.0188,0.003,-0.0299,0.0606,0.0012,0.0009,0.0014,0.1643,0.4741,-0.6807,0.3074,0.6713,-0.9353,0.3023,-0.4126,0.3375,-0.0266,0.6618,-0.9196,0.4502,-0.56,0.3666,0.4565,0.5034,-0.6978,0.0,0.0,0.0,0.0,0.0,0.0,0.0,0.0,0.0,
3.52,run,-0.14,3.32,1.01,0.67,-0.54,0.0,0.0,0.0,0.104,5.89,1.32,7.29,10.63,12.57,-14.41,10.72,-47.72,94.13,-0.97,11.95,-13.1,15.64,-55.9,96.06,16.0,3.34,5.54,5.79,1.03,7.14,10.79,12.0,-14.36,10.6,-47.64,93.57,-1.02,11.46,-13.02,15.7,-55.8,95.9,15.88,2.7,5.76,0.1654,0.4732,-0.6807,0.3082,0.6727,-0.9336,0.303,-0.4115,0.3361,-0.029,0.663,-0.9179,0.4484,-0.5599,0.3635,0.4538,0.5037,-0.697,0.0,0.006,0.0,0.0,0.013,0.0,0.006,0.0,0.013,0.0,0.013,0.0,0.013,0.0,0.0,0.0,0.019,0.0,0.092,0.0153,0.1243,0.1825,0.2102,-0.2531,0.1841,-0.836,1.6368,-0.0153,0.201,-0.2316,0.27,-0.9802,1.6766,0.2792,0.0491,0.0936,-0.0391,0.0035,-0.0368,0.0014,-0.0113,0.0143,-0.0021,0.0079,-0.0393,-0.0002,-0.0047,0.0012,0.0028,0.0098,-0.0334,-0.0024,-0.0132,0.0021,-0.0311,0.0589,-0.0109,-0.0079,0.0092,0.1641,0.472,-0.6808,0.307,0.6707,-0.933,0.3021,-0.411,0.3361,-0.0262,0.6615,-0.9188,0.4498,-0.558,0.366,0.4555,0.5026,-0.698,0.0,0.0,0.0,0.0,0.0,0.0,0.0,0.0,0.0,
3.56,run,-0.14,3.31,-0.29,-0.24,0.49,0.0,0.0,0.0,0.104,5.8,1.32,7.29,10.63,12.57,-14.41,10.72,-47.72,94.13,-0.97,11.95,-13.1,15.64,-55.9,95.98,16.0,3.34,5.54,5.75,0.9,7.16,10.72,11.86,-14.31,10.55,-47.69,93.33,-0.92,11.35,-13.13,15.71,-55.74,95.86,15.95,2.69,5.49,0.1643,0.4709,-0.6804,0.3062,0.6702,-0.9331,0.3014,-0.4126,0.3333,-0.0263,0.6609,-0.9192,0.4488,-0.5588,0.3631,0.4557,0.5034,-0.7001,0.013,0.013,0.0,0.0,0.013,0.0,0.0,0.0,0.026,0.0,0.006,0.0,0.0,0.0,0.0,0.0,0.013,0.0,0.1028,0.0153,0.1243,0.1825,0.2102,-0.2531,0.1841,-0.836,1.6337,-0.0153,0.201,-0.2316,0.2715,-0.9802,1.6736,0.2792,0.0491,0.0936,0.0126,0.0024,-0.0257,0.001,-0.0079,0.01,-0.0015,0.0055,-0.0389,-0.0001,-0.0033,0.0008,0.0077,0.0069,-0.0348,-0.0017,-0.0092,0.0015,-0.0258,0.0601,0.0176,0.0117,-0.0094,0.1654,0.4732,-0.6807,0.3082,0.6727,-0.9336,0.303,-0.4115,0.3361,-0.029,0.663,-0.9179,0.4484,-0.5599,0.3635,0.4538,0.5037,-0.697,0.0,0.0,0.0,0.0,0.0,0.0,0.0,0.0,0.0,
3.6,run,-0.12,3.31,0.18,0.05,1.09,0.0,0.0,0.0,0.104,5.36,1.32,7.29,10.63,12.57,-14.41,10.72,-47.72,93.96,-0.97,11.78,-13.1,15.56,-55.81,95.98,16.0,3.34,5.54,5.77,0.96,7.09,10.77,11.89,-14.28,10.58,-47.63,93.43,-0.97,11.4,-13.11,15.7,-55.68,95.87,15.93,2.68,5.7,0.1649,0.472,-0.6813,0.3078,0.6707,-0.9327,0.3023,-0.4114,0.3345,-0.0277,0.6618,-0.919,0.4485,-0.5578,0.3631,0.4551,0.5032,-0.6977,0.013,0.013,0.0,0.0,0.013,0.0,0.0,0.0,0.026,0.0,0.006,0.0,0.0,0.0,0.0,0.0,0.013,0.0,0.1012,0.0153,0.1243,0.1825,0.2102,-0.2531,0.1841,-0.836,1.6337,-0.0153,0.201,-0.2316,0.2715,-0.9802,1.672,0.2792,0.0491,0.0936,0.0031,0.0017,-0.018,0.0007,-0.0055,0.007,-0.001,0.0039,-0.0273,-0.0001,-0.0023,0.0006,0.0054,0.0048,-0.0301,-0.0012,-0.0065,0.001,-0.0256,0.0589,-0.0051,-0.0042,0.0086,0.1643,0.4709,-0.6804,0.3062,0.6702,-0.9331,0.3014,-0.4126,0.3333,-0.0263,0.6609,-0.9192,0.4488,-0.5588,0.3631,0.4557,0.5034,-0.7001,0.0,0.0,0.0,0.0,0.0,0.0,0.0,0.0,0.0,
3.64,run,-0.1,3.31,0.44,0.26,-1.28,0.0,0.0,0.0,0.104,5.98,1.32,7.29,10.63,12.48,-14.41,10.72,-47.72,93.96,-0.97,11.78,-13.1,15.64,-55.9,95.98,16.0,3.34,5.54,5.79,0.91,7.07,10.76,11.94,-14.22,10.6,-47.6,93.36,-0.97,11.42,-13.06,15.68,-55.7,95.77,15.9,2.73,5.6,0.1656,0.4712,-0.6816,0.3074,0.6717,-0.932,0.3027,-0.4109,0.3337,-0.0278,0.6622,-0.9184,0.4481,-0.5582,0.362,0.4541,0.5042,-0.6988,0.013,0.013,0.0,0.0,0.013,0.0,0.0,0.0,0.026,0.0,0.006,0.0,0.0,0.0,0.0,0.0,0.013,0.0,0.0936,0.0153,0.1243,0.1825,0.2102,-0.2531,0.1841,-0.836,1.6306,-0.0153,0.1979,-0.2316,0.27,-0.9787,1.672,0.2792,0.0491,0.0936,-0.0265,0.0012,-0.0126,0.0005,-0.0039,0.0049,-0.0007,0.0027,-0.0305,-0.0001,-0.0131,0.0004,-0.002,0.0091,-0.0211,-0.0008,-0.0045,0.0007,-0.0243,0.0587,0.0032,0.0009,0.019,0.1649,0.472,-0.6813,0.3078,0.6707,-0.9327,0.3023,-0.4114,0.3345,-0.0277,0.6618,-0.919,0.4485,-0.5578,0.3631,0.4551,0.5032,-0.6977,0.0,0.0,0.0,0.0,0.0,0.0,0.0,0.0,0.0,
3.68,run,-0.09,3.3,0.05,0.06,0.22,0.0,0.0,0.0,0.104,5.8,1.32,7.29,10.63,12.39,-14.41,10.72,-47.72,93.96,-0.97,11.78,-13.1,15.56,-55.9,95.98,16.0,3.34,5.54,5.75,0.94,7.12,10.73,11.83,-14.39,10.57,-47.73,93.32,-0.93,11.36,-13.2,15.72,-55.74,95.77,15.99,2.71,5.54,0.1644,0.4716,-0.6809,0.3066,0.6696,-0.934,0.302,-0.4133,0.3331,-0.0265,0.661,-0.92,0.4492,-0.559,0.362,0.4568,0.5039,-0.6996,0.006,0.006,0.0,0.0,0.013,0.0,0.006,0.0,0.013,0.0,0.013,0.0,0.006,0.006,0.0,0.0,0.019,0.0,0.1043,0.0153,0.1243,0.1825,0.2086,-0.2531,0.1841,-0.836,1.6306,-0.0153,0.1979,-0.2316,0.2715,-0.9802,1.672,0.2792,0.0491,0.0936,0.0212,0.0008,-0.0088,0.0003,-0.0084,0.0034,-0.0005,0.0019,-0.0214,-0.0,-0.0092,0.0003,0.0043,0.0007,-0.0147,-0.0006,-0.0032,0.0005,-0.022,0.059,0.0076,0.0046,-0.0223,0.1656,0.4712,-0.6816,0.3074,0.6717,-0.932,0.3027,-0.4109,0.3337,-0.0278,0.6622,-0.9184,0.4481,-0.5582,0.362,0.4541,0.5042,-0.6988,0.0,0.0,0.0,0.0,0.0,0.0,0.0,0.0,0.0,
3.72,run,-0.09,3.29,-0.1,-0.1,0.6,0.0,0.0,0.0,0.104,5.27,1.32,7.29,10.63,12.39,-14.41,10.72,-47.72,93.96,-0.97,11.69,-13.1,15.56,-55.9,95.98,16.0,3.34,5.54,5.78,0.92,7.05,10.76,11.88,-14.28,10.59,-47.63,93.39,-0.95,11.39,-13.14,15.69,-55.68,95.75,15.93,2.7,5.65,0.1652,0.4713,-0.6818,0.3074,0.6705,-0.9327,0.3025,-0.4115,0.334,-0.0271,0.6616,-0.9192,0.4482,-0.5578,0.3617,0.4553,0.5037,-0.6983,0.006,0.006,0.0,0.0,0.013,0.0,0.006,0.0,0.013,0.0,0.013,0.0,0.006,0.006,0.0,0.0,0.019,0.0,0.1012,0.0153,0.1243,0.1825,0.2071,-0.2531,0.1841,-0.836,1.6306,-0.0153,0.1979,-0.2316,0.27,-0.9802,1.672,0.2792,0.0491,0.0936,0.0034,0.0006,-0.0062,0.0002,-0.0116,0.0024,-0.0003,0.0013,-0.015,-0.0,-0.0064,0.0002,-0.0027,0.0005,-0.0103,-0.0004,-0.0022,0.0004,-0.021,0.0577,0.0009,0.001,0.0039,0.1644,0.4716,-0.6809,0.3066,0.6696,-0.934,0.302,-0.4133,0.3331,-0.0265,0.661,-0.92,0.4492,-0.559,0.362,0.4568,0.5039,-0.6996,0.0,0.0,0.0,0.0,0.0,0.0,0.0,0.0,0.0,
3.76,run,-0.07,3.29,0.37,0.31,-0.47,0.0,0.0,0.0,0.104,6.06,1.32,7.29,10.63,12.39,-14.41,10.72,-47.72,93.96,-0.97,11.69,-13.1,15.56,-55.9,95.98,16.0,3.34,5.54,5.81,0.94,7.04,10.77,11.95,-14.31,10.61,-47.65,93.38,-1.0,11.45,-13.12,15.68,-55.74,95.68,15.91,2.77,5.64,0.1661,0.4717,-0.6819,0.3077,0.6719,-0.933,0.3031,-0.4118,0.3338,-0.0285,0.6627,-0.919,0.4479,-0.559,0.3609,0.4547,0.505,-0.6983,0.006,0.006,0.0,0.0,0.013,0.0,0.006,0.0,0.013,0.0,0.013,0.0,0.006,0.006,0.0,0.0,0.019,0.0,0.092,0.0153,0.1243,0.1825,0.2071,-0.2531,0.1841,-0.836,1.6306,-0.0153,0.1963,-0.2316,0.27,-0.9802,1.672,0.2792,0.0491,0.0936,-0.0323,0.0004,-0.0043,0.0002,-0.0081,0.0017,-0.0002,0.0009,-0.0105,-0.0,-0.0103,0.0001,-0.0019,0.0003,-0.0072,-0.0003,-0.0016,0.0002,-0.021,0.0573,-0.0017,-0.0018,0.0104,0.1652,0.4713,-0.6818,0.3074,0.6705,-0.9327,0.3025,-0.4115,0.334,-0.0271,0.6616,-0.9192,0.4482,-0.5578,0.3617,0.4553,0.5037,-0.6983,0.0,0.0,0.0,0.0,0.0,0.0,0.0,0.0,0.0,
3.8,run,-0.07,3.28,-0.05,0.06,-0.27,0.0,0.0,0.0,0.104,5.8,1.32,7.29,10.63,12.39,-14.41,10.72,-47.72,93.96,-0.97,11.69,-13.1,15.56,-55.81,95.98,16.0,3.34,5.54,5.77,0.91,7.02,10.74,11.83,-14.32,10.57,-47.67,93.33,-0.92,11.36,-13.23,15.71,-55.67,95.8,15.98,2.69,5.55,0.1648,0.4711,-0.6822,0.307,0.6696,-0.9331,0.3021,-0.4122,0.3333,-0.0262,0.661,-0.9203,0.4488,-0.5576,0.3624,0.4565,0.5034,-0.6994,0.006,0.006,0.0,0.0,0.006,0.0,0.006,0.0,0.013,0.0,0.006,0.006,0.006,0.006,0.006,0.0,0.013,0.0,0.1058,0.0153,0.1243,0.1825,0.2071,-0.2531,0.1841,-0.836,1.6306,-0.0153,0.1963,-0.2316,0.27,-0.9802,1.672,0.2792,0.0491,0.0936,0.0287,0.0003,-0.003,0.0001,-0.0057,0.0012,-0.0002,0.0007,-0.0073,-0.0,-0.0072,0.0001,-0.0013,0.0002,-0.0051,-0.0002,-0.0011,0.0002,-0.0198,0.0571,0.0065,0.0054,-0.0082,0.1661,0.4717,-0.6819,0.3077,0.6719,-0.933,0.3031,-0.4118,0.3338,-0.0285,0.6627,-0.919,0.4479,-0.559,0.3609,0.4547,0.505,-0.6983,0.0,0.0,0.0,0.0,0.0,0.0,0.0,0.0,0.0,
3.84,run,-0.08,3.27,-0.53,-0.32,0.88,0.0,0.0,0.0,0.104,5.54,1.32,7.29,10.63,12.39,-14.41,10.72,-47.72,93.96,-0.97,11.69,-13.1,15.56,-55.81,95.98,16.0,3.34,5.54,5.79,0.93,7.0,10.76,11.87,-14.31,10.59,-47.67,93.36,-0.96,11.39,-13.2,15.7,-55.71,95.75,15.95,2.7,5.59,0.1654,0.4714,-0.6823,0.3075,0.6703,-0.933,0.3026,-0.4122,0.3336,-0.0274,0.6617,-0.92,0.4486,-0.5584,0.3617,0.4557,0.5037,-0.6989,0.006,0.006,0.0,0.0,0.006,0.0,0.006,0.0,0.013,0.0,0.006,0.006,0.006,0.006,0.006,0.0,0.013,0.0,0.1012,0.0153,0.1243,0.1825,0.2071,-0.2531,0.1841,-0.836,1.6306,-0.0153,0.1963,-0.2316,0.27,-0.9787,1.672,0.2792,0.0491,0.0936,0.0028,0.0002,-0.0021,0.0001,-0.004,0.0008,-0.0001,0.0005,-0.0051,-0.0,-0.005,0.0001,-0.0009,0.0059,-0.0035,-0.0001,-0.0008,0.0001,-0.0196,0.0559,-0.0008,0.001,-0.0048,0.1648,0.4711,-0.6822,0.307,0.6696,-0.9331,0.3021,-0.4122,0.3333,-0.0262,0.661,-0.9203,0.4488,-0.5576,0.3624,0.4565,0.5034,-0.6994,0.0,0.0,0.0,0.0,0.0,0.0,0.0,0.0,0.0,
3.88,run,-0.05,3.29,0.37,0.34,-0.91,0.0,0.0,0.0,0.104,6.15,1.32,7.29,10.63,12.39,-14.41,10.72,-47.72,93.96,-0.97,11.69,-13.18,15.56,-55.81,95.98,16.0,3.34,5.54,5.81,0.95,6.95,10.79,11.93,-14.26,10.6,-47.61,93.42,-0.99,11.44,-13.17,15.68,-55.68,95.76,15.92,2.72,5.69,0.1661,0.4717,-0.6829,0.3083,0.6714,-0.9325,0.303,-0.4111,0.3344,-0.0284,0.6626,-0.9196,0.448,-0.5579,0.3619,0.4548,0.5039,-0.6978,0.006,0.006,0.0,0.0,0.006,0.0,0.006,0.0,0.013,0.0,0.006,0.006,0.006,0.006,0.006,0.0,0.013,0.0,0.0966,0.0153,0.1243,0.1825,0.2071,-0.2531,0.1841,-0.836,1.6306,-0.0153,0.1963,-0.2316,0.27,-0.9787,1.672,0.2792,0.0491,0.0936,-0.0153,0.0001,-0.0015,0.0001,-0.0028,0.0006,-0.0001,0.0003,-0.0036,-0.0,-0.0035,0.0,-0.0007,0.0041,-0.0025,-0.0001,-0.0005,0.0001,-0.0208,0.0554,-0.0093,-0.0055,0.0154,0.1654,0.4714,-0.6823,0.3075,0.6703,-0.933,0.3026,-0.4122,0.3336,-0.0274,0.6617,-0.92,0.4486,-0.5584,0.3617,0.4557,0.5037,-0.6989,0.0,0.0,0.0,0.0,0.0,0.0,0.0,0.0,0.0,
3.92,run,-0.08,3.29,-0.47,-0.3,1.12,0.0,0.0,0.0,0.104,5.71,1.32,7.29,10.63,12.39,-14.33,10.72,-47.72,93.96,-0.97,11.69,-13.1,15.56,-55.9,95.98,16.0,3.34,5.54,5.77,0.92,7.0,10.74,11.82,-14.35,10.57,-47.71,93.33,-0.92,11.36,-13.26,15.72,-55.7,95.81,16.0,2.69,5.52,0.1648,0.4712,-0.6824,0.3068,0.6695,-0.9335,0.3019,-0.4129,0.3333,-0.0261,0.661,-0.9207,0.4491,-0.5583,0.3625,0.457,0.5034,-0.6998,0.013,0.006,0.0,0.0,0.013,0.0,0.0,0.0,0.013,0.0,0.006,0.006,0.006,0.0,0.0,0.0,0.013,0.0,0.1074,0.0153,0.1243,0.1825,0.2071,-0.2531,0.1841,-0.836,1.6306,-0.0153,0.1963,-0.2332,0.27,-0.9787,1.672,0.2792,0.0491,0.0936,0.0296,0.0001,-0.001,0.0,-0.002,0.0004,-0.0001,0.0002,-0.0025,-0.0,-0.0025,-0.0057,-0.0005,0.0029,-0.0017,-0.0001,-0.0004,0.0001,-0.0183,0.0571,0.0064,0.0059,-0.0159,0.1661,0.4717,-0.6829,0.3083,0.6714,-0.9325,0.303,-0.4111,0.3344,-0.0284,0.6626,-0.9196,0.448,-0.5579,0.3619,0.4548,0.5039,-0.6978,0.0,0.0,0.0,0.0,0.0,0.0,0.0,0.0,0.0,
3.96,run,-0.08,3.32,-0.05,0.24,0.64,0.0,0.0,0.0,0.104,5.62,1.32,7.29,10.63,12.39,-14.41,10.72,-47.72,93.96,-0.97,11.69,-13.27,15.56,-55.9,95.98,16.0,3.34,5.54,5.81,0.94,6.96,10.78,11.89,-14.26,10.59,-47.59,93.38,-0.98,11.4,-13.13,15.67,-55.65,95.75,15.92,2.68,5.71,0.1659,0.4716,-0.6829,0.3081,0.6707,-0.9324,0.3026,-0.4108,0.3338,-0.028,0.6619,-0.9192,0.4478,-0.5572,0.3618,0.4549,0.5033,-0.6976,0.013,0.006,0.0,0.0,0.013,0.0,0.0,0.0,0.013,0.0,0.006,0.006,0.006,0.0,0.0,0.0,0.013,0.0,0.0997,0.0153,0.1243,0.1825,0.2071,-0.2516,0.1841,-0.836,1.6306,-0.0153,0.1963,-0.2316,0.27,-0.9802,1.672,0.2792,0.0491,0.0936,-0.008,0.0001,-0.0007,0.0,-0.0014,0.006,-0.0,0.0002,-0.0018,-0.0,-0.0017,0.0017,-0.0003,-0.0037,-0.0012,-0.0,-0.0003,0.0,-0.0203,0.0575,-0.0082,-0.0053,0.0196,0.1648,0.4712,-0.6824,0.3068,0.6695,-0.9335,0.3019,-0.4129,0.3333,-0.0261,0.661,-0.9207,0.4491,-0.5583,0.3625,0.457,0.5034,-0.6998,0.0,0.0,0.0,0.0,0.0,0.0,0.0,0.0,0.0,
4.0,run,-0.1,3.32,-0.19,-0.1,-0.82,0.0,0.0,0.0,0.104,6.24,1.32,7.29,10.63,12.39,-14.33,10.72,-47.72,93.96,-0.97,11.69,-13.27,15.56,-55.9,95.98,16.0,3.34,5.54,5.8,0.94,7.03,10.75,11.94,-14.35,10.58,-47.67,93.4,-0.96,11.41,-13.15,15.68,-55.72,95.75,15.94,2.74,5.61,0.1658,0.4716,-0.6821,0.3071,0.6716,-0.9336,0.3024,-0.4121,0.3341,-0.0275,0.6619,-0.9194,0.4479,-0.5586,0.3618,0.4554,0.5044,-0.6987,0.013,0.006,0.0,0.0,0.013,0.0,0.0,0.0,0.013,0.0,0.006,0.006,0.006,0.0,0.0,0.0,0.013,0.0,0.0982,0.0153,0.1243,0.1825,0.2071,-0.2531,0.1841,-0.836,1.6306,-0.0153,0.1963,-0.2347,0.27,-0.9802,1.672,0.2792,0.0491,0.0936,-0.0114,0.0,-0.0005,0.0,-0.001,-0.0016,-0.0,0.0001,-0.0012,-0.0,-0.0012,-0.0103,-0.0002,-0.0026,-0.0009,-0.0,-0.0002,0.0,-0.0209,0.0596,-0.0008,0.0042,0.0111,0.1659,0.4716,-0.6829,0.3081,0.6707,-0.9324,0.3026,-0.4108,0.3338,-0.028,0.6619,-0.9192,0.4478,-0.5572,0.3618,0.4549,0.5033,-0.6976,0.0,0.0,0.0,0.0,0.0,0.0,0.0,0.0,0.0,
4.04,run,-0.14,3.31,-0.81,-0.39,1.22,0.0,0.0,0.0,0.104,5.45,1.32,7.29,10.63,12.39,-14.41,10.72,-47.72,93.96,-0.97,11.69,-13.27,15.56,-55.81,95.98,16.0,3.34,5.54,5.76,0.96,7.05,10.74,11.84,-14.43,10.57,-47.73,93.43,-0.92,11.36,-13.24,15.72,-55.71,95.86,16.0,2.68,5.63,0.1647,0.4719,-0.6817,0.3069,0.6698,-0.9345,0.302,-0.4132,0.3344,-0.0264,0.6611,-0.9204,0.4491,-0.5584,0.3631,0.4572,0.5033,-0.6984,0.013,0.006,0.006,0.0,0.013,0.0,0.0,0.0,0.006,0.0,0.006,0.0,0.006,0.006,0.0,0.0,0.013,0.0,0.1089,0.0153,0.1243,0.1825,0.2071,-0.2516,0.1841,-0.836,1.6306,-0.0153,0.1963,-0.2347,0.27,-0.9802,1.672,0.2792,0.0491,0.0936,0.0322,0.0,-0.0004,0.0,-0.0007,0.0046,-0.0,0.0001,-0.0009,-0.0,-0.0008,-0.0072,-0.0002,-0.0018,-0.0006,-0.0,-0.0001,0.0,-0.0222,0.0601,-0.0033,-0.0017,-0.0143,0.1658,0.4716,-0.6821,0.3071,0.6716,-0.9336,0.3024,-0.4121,0.3341,-0.0275,0.6619,-0.9194,0.4479,-0.5586,0.3618,0.4554,0.5044,-0.6987,0.0,0.0,0.0,0.0,0.0,0.0,0.0,0.0,0.0,
4.08,run,-0.11,3.32,0.5,0.39,-0.96,0.0,0.0,0.0,0.104,6.06,1.32,7.29,10.63,12.39,-14.41,10.72,-47.72,93.96,-0.97,11.69,-13.27,15.56,-55.9,96.06,16.0,3.34,5.54,5.83,0.97,7.04,10.78,12.01,-14.33,10.61,-47.64,93.57,-1.0,11.47,-13.11,15.67,-55.74,95.79,15.9,2.74,5.76,0.1665,0.4722,-0.6818,0.3079,0.6729,-0.9333,0.303,-0.4117,0.3361,-0.0287,0.6631,-0.9189,0.4476,-0.559,0.3622,0.4543,0.5044,-0.697,0.013,0.006,0.006,0.0,0.013,0.0,0.0,0.0,0.006,0.0,0.006,0.0,0.006,0.006,0.0,0.0,0.013,0.0,0.0951,0.0153,0.1243,0.1825,0.2071,-0.2531,0.1841,-0.836,1.6306,-0.0153,0.1963,-0.2347,0.27,-0.9787,1.672,0.2792,0.0491,0.0936,-0.0292,0.0,-0.0002,0.0,-0.0005,-0.0025,-0.0,0.0001,-0.0006,-0.0,-0.0006,-0.0051,-0.0001,0.0045,-0.0004,-0.0,-0.0001,0.0,-0.0262,0.0588,-0.0141,-0.0069,0.0212,0.1647,0.4719,-0.6817,0.3069,0.6698,-0.9345,0.302,-0.4132,0.3344,-0.0264,0.6611,-0.9204,0.4491,-0.5584,0.3631,0.4572,0.5033,-0.6984,0.0,0.0,0.0,0.0,0.0,0.0,0.0,0.0,0.0,
4.12,run,-0.09,3.31,0.12,0.07,-0.18,0.0,0.0,0.0,0.104,5.98,1.32,7.29,10.63,12.39,-14.41,10.72,-47.72,93.96,-0.97,11.69,-13.27,15.56,-55.9,95.89,16.0,3.34,5.54,5.78,0.94,7.09,10.72,11.9,-14.43,10.56,-47.77,93.42,-0.93,11.37,-13.22,15.7,-55.79,95.8,15.98,2.72,5.53,0.1652,0.4716,-0.6813,0.3062,0.671,-0.9345,0.3018,-0.4139,0.3344,-0.0265,0.6612,-0.9202,0.4485,-0.5597,0.3624,0.4565,0.504,-0.6996,0.013,0.006,0.006,0.0,0.013,0.0,0.0,0.0,0.006,0.0,0.006,0.0,0.006,0.006,0.0,0.0,0.013,0.0,0.1058,0.0153,0.1243,0.1825,0.2071,-0.2531,0.1841,-0.836,1.6306,-0.0153,0.1963,-0.2347,0.27,-0.9802,1.6736,0.2792,0.0491,0.0936,0.0133,0.0,-0.0002,0.0,-0.0003,-0.0017,-0.0,0.0,-0.0004,-0.0,-0.0004,-0.0035,-0.0001,-0.0017,0.0045,-0.0,-0.0001,0.0,-0.0232,0.0601,0.0087,0.0069,-0.0167,0.1665,0.4722,-0.6818,0.3079,0.6729,-0.9333,0.303,-0.4117,0.3361,-0.0287,0.6631,-0.9189,0.4476,-0.559,0.3622,0.4543,0.5044,-0.697,0.0,0.0,0.0,0.0,0.0,0.0,0.0,0.0,0.0,
4.16,run,-0.09,3.3,-0.26,-0.27,1.14,0.0,0.0,0.0,0.104,5.36,1.32,7.29,10.63,12.39,-14.41,10.72,-47.72,93.96,-0.97,11.69,-13.27,15.64,-55.9,95.98,16.0,3.34,5.54,5.8,0.92,7.08,10.73,11.91,-14.35,10.58,-47.71,93.41,-0.95,11.4,-13.19,15.69,-55.73,95.77,15.96,2.73,5.63,0.1656,0.4713,-0.6814,0.3067,0.671,-0.9336,0.3023,-0.413,0.3343,-0.0272,0.6618,-0.9199,0.4481,-0.5587,0.3621,0.456,0.5043,-0.6985,0.0,0.013,0.0,0.0,0.013,0.0,0.0,0.0,0.006,0.0,0.006,0.0,0.0,0.0,0.006,0.0,0.013,0.0,0.1043,0.0153,0.1243,0.1825,0.2071,-0.2531,0.1841,-0.836,1.6306,-0.0153,0.1963,-0.2347,0.27,-0.9802,1.6705,0.2792,0.0491,0.0936,0.0036,0.0,-0.0001,0.0,-0.0002,-0.0012,-0.0,0.0,-0.0003,-0.0,-0.0003,-0.0025,-0.0001,-0.0012,-0.0082,-0.0,-0.0,0.0,-0.0216,0.0591,0.002,0.0013,-0.0032,0.1652,0.4716,-0.6813,0.3062,0.671,-0.9345,0.3018,-0.4139,0.3344,-0.0265,0.6612,-0.9202,0.4485,-0.5597,0.3624,0.4565,0.504,-0.6996,0.0,0.0,0.0,0.0,0.0,0.0,0.0,0.0,0.0,
4.2,run,-0.05,3.31,0.48,0.23,-1.21,0.0,0.0,0.0,0.104,6.24,1.32,7.29,10.63,12.39,-14.41,10.72,-47.72,93.96,-0.97,11.69,-13.27,15.56,-55.81,95.98,16.0,3.34,5.54,5.84,0.95,7.0,10.77,12.01,-14.33,10.61,-47.67,93.44,-1.01,11.48,-13.16,15.66,-55.76,95.75,15.92,2.78,5.67,0.1668,0.4719,-0.6824,0.3077,0.6728,-0.9332,0.303,-0.4121,0.3346,-0.029,0.6632,-0.9195,0.4474,-0.5592,0.3617,0.4547,0.5052,-0.698,0.0,0.013,0.0,0.0,0.013,0.0,0.0,0.0,0.006,0.0,0.006,0.0,0.0,0.0,0.006,0.0,0.013,0.0,0.0936,0.0153,0.1243,0.1825,0.2071,-0.2531,0.1841,-0.836,1.6306,-0.0153,0.1963,-0.2347,0.2715,-0.9802,1.672,0.2792,0.0491,0.0936,-0.0378,0.0,-0.0001,0.0,-0.0002,-0.0009,-0.0,0.0,-0.0002,-0.0,-0.0002,-0.0017,0.0057,-0.0008,0.0,-0.0,-0.0,0.0,-0.0211,0.0582,-0.0045,-0.0047,0.0199,0.1656,0.4713,-0.6814,0.3067,0.671,-0.9336,0.3023,-0.413,0.3343,-0.0272,0.6618,-0.9199,0.4481,-0.5587,0.3621,0.456,0.5043,-0.6985,0.0,0.0,0.0,0.0,0.0,0.0,0.0,0.0,0.0,
4.24,run,-0.04,3.28,-0.09,-0.21,0.4,0.0,0.0,0.0,0.104,5.8,1.32,7.21,10.63,12.39,-14.41,10.72,-47.72,93.96,-0.97,11.69,-13.27,15.56,-55.9,95.8,16.0,3.34,5.54,5.77,0.91,7.01,10.73,11.84,-14.38,10.57,-47.77,93.38,-0.91,11.36,-13.3,15.72,-55.73,95.86,16.01,2.71,5.49,0.1649,0.471,-0.6822,0.3064,0.6699,-0.9339,0.302,-0.414,0.3338,-0.0261,0.6611,-0.9212,0.4493,-0.5588,0.363,0.4576,0.5038,-0.7001,0.0,0.013,0.0,0.0,0.013,0.0,0.0,0.0,0.006,0.0,0.006,0.0,0.0,0.0,0.006,0.0,0.013,0.0,0.1089,0.0153,0.1243,0.1825,0.2071,-0.2531,0.1841,-0.836,1.6306,-0.0153,0.1963,-0.2347,0.27,-0.9787,1.672,0.2792,0.0491,0.0936,0.0315,0.0,-0.0001,0.0,-0.0001,-0.0006,-0.0,0.0,-0.0001,-0.0,-0.0001,-0.0012,-0.0018,0.0052,0.0,-0.0,-0.0,0.0,-0.0182,0.0588,0.0084,0.0039,-0.0211,0.1668,0.4719,-0.6824,0.3077,0.6728,-0.9332,0.303,-0.4121,0.3346,-0.029,0.6632,-0.9195,0.4474,-0.5592,0.3617,0.4547,0.5052,-0.698,0.0,0.0,0.0,0.0,0.0,0.0,0.0,0.0,0.0,
4.28,run,-0.06,3.29,-0.42,-0.14,0.98,0.0,0.0,0.0,0.104,5.62,1.32,7.21,10.63,12.39,-14.41,10.72,-47.72,93.96,-0.97,11.69,-13.27,15.56,-55.9,95.89,16.0,3.34,5.54,5.81,0.9,6.99,10.76,11.9,-14.27,10.6,-47.66,93.36,-0.97,11.43,-13.2,15.68,-55.68,95.75,15.95,2.74,5.65,0.166,0.4709,-0.6825,0.3073,0.6709,-0.9326,0.3027,-0.412,0.3336,-0.0278,0.6623,-0.92,0.448,-0.5577,0.3618,0.4557,0.5043,-0.6982,0.006,0.013,0.006,0.0,0.013,0.0,0.0,0.0,0.013,0.0,0.0,0.0,0.0,0.0,0.006,0.0,0.019,0.0,0.1012,0.0153,0.1227,0.1825,0.2071,-0.2531,0.1841,-0.836,1.6306,-0.0153,0.1963,-0.2347,0.27,-0.9802,1.669,0.2792,0.0491,0.0936,-0.0066,0.0,-0.0058,0.0,-0.0001,-0.0004,-0.0,0.0,-0.0001,-0.0,-0.0001,-0.0009,-0.0012,-0.0021,-0.0114,-0.0,-0.0,0.0,-0.0174,0.0565,-0.0016,-0.0037,0.007,0.1649,0.471,-0.6822,0.3064,0.6699,-0.9339,0.302,-0.414,0.3338,-0.0261,0.6611,-0.9212,0.4493,-0.5588,0.363,0.4576,0.5038,-0.7001,0.0,0.0,0.0,0.0,0.0,0.0,0.0,0.0,0.0,
4.32,run,-0.03,3.28,0.15,0.24,-1.36,0.0,0.0,0.0,0.104,6.24,1.32,7.21,10.63,12.39,-14.41,10.72,-47.72,93.96,-0.97,11.69,-13.27,15.56,-55.72,95.8,16.0,3.34,5.54,5.81,0.93,6.97,10.77,11.94,-14.28,10.6,-47.64,93.41,-0.99,11.44,-13.18,15.67,-55.68,95.77,15.94,2.74,5.65,0.1661,0.4714,-0.6827,0.3077,0.6717,-0.9327,0.3029,-0.4116,0.3342,-0.0282,0.6626,-0.9198,0.4478,-0.5577,0.362,0.4554,0.5044,-0.6982,0.006,0.013,0.006,0.0,0.013,0.0,0.0,0.0,0.013,0.0,0.0,0.0,0.0,0.0,0.006,0.0,0.019,0.0,0.0982,0.0153,0.1227,0.1825,0.2071,-0.2531,0.1841,-0.836,1.6306,-0.0153,0.1963,-0.2347,0.27,-0.9802,1.6705,0.2792,0.0491,0.0936,-0.0161,0.0,-0.004,0.0,-0.0001,-0.0003,-0.0,0.0,-0.0001,-0.0,-0.0001,-0.0006,-0.0009,-0.0014,-0.0023,-0.0,-0.0,0.0,-0.0188,0.0571,-0.0073,-0.0025,0.0171,0.166,0.4709,-0.6825,0.3073,0.6709,-0.9326,0.3027,-0.412,0.3336,-0.0278,0.6623,-0.92,0.448,-0.5577,0.3618,0.4557,0.5043,-0.6982,0.0,0.0,0.0,0.0,0.0,0.0,0.0,0.0,0.0,
4.36,run,-0.05,3.28,-0.42,-0.34,1.3,0.0,0.0,0.0,0.104,5.54,1.32,7.21,10.63,12.39,-14.24,10.72,-47.72,93.96,-0.97,11.69,-13.27,15.56,-55.72,95.8,16.0,3.34,5.54,5.77,0.89,7.02,10.72,11.83,-14.35,10.58,-47.77,93.34,-0.92,11.38,-13.32,15.74,-55.71,95.83,16.02,2.72,5.49,0.1648,0.4707,-0.6821,0.3064,0.6696,-0.9336,0.3022,-0.4139,0.3334,-0.0264,0.6615,-0.9214,0.4496,-0.5584,0.3627,0.4578,0.5041,-0.7001,0.006,0.013,0.006,0.0,0.013,0.0,0.0,0.0,0.013,0.0,0.0,0.0,0.0,0.0,0.006,0.0,0.019,0.0,0.1089,0.0153,0.1227,0.1825,0.2071,-0.2531,0.1841,-0.836,1.6306,-0.0153,0.1963,-0.2347,0.27,-0.9771,1.669,0.2792,0.0491,0.0936,0.0293,0.0,-0.0028,0.0,-0.0,-0.0002,-0.0,0.0,-0.0,-0.0,-0.0,-0.0004,-0.0006,0.0106,-0.0074,-0.0,-0.0,0.0,-0.0166,0.0567,0.0027,0.0042,-0.0238,0.1661,0.4714,-0.6827,0.3077,0.6717,-0.9327,0.3029,-0.4116,0.3342,-0.0282,0.6626,-0.9198,0.4478,-0.5577,0.362,0.4554,0.5044,-0.6982,0.0,0.0,0.0,0.0,0.0,0.0,0.0,0.0,0.0,
4.4,run,-0.06,3.31,0.07,0.49,0.18,0.0,0.0,0.0,0.104,5.8,1.32,7.21,10.63,12.39,-14.24,10.72,-47.72,93.96,-0.97,11.69,-13.27,15.56,-55.81,95.8,16.0,3.34,5.54,5.82,0.88,6.96,10.77,11.93,-14.22,10.61,-47.62,93.34,-1.0,11.46,-13.16,15.68,-55.66,95.75,15.93,2.74,5.66,0.1662,0.4706,-0.6829,0.3078,0.6714,-0.9321,0.3032,-0.4113,0.3335,-0.0285,0.6628,-0.9195,0.448,-0.5575,0.3618,0.4551,0.5044,-0.6981,0.006,0.013,0.006,0.006,0.006,0.0,0.0,0.0,0.019,0.0,0.0,0.0,0.0,0.006,0.0,0.0,0.019,0.0,0.0966,0.0153,0.1227,0.1825,0.2071,-0.25,0.1841,-0.836,1.6306,-0.0153,0.1963,-0.2347,0.27,-0.9771,1.669,0.2792,0.0491,0.0936,-0.0253,0.0,-0.002,0.0,-0.0,0.0113,-0.0,0.0,-0.0,-0.0,-0.0,-0.0003,-0.0004,0.0074,-0.0052,-0.0,-0.0,0.0,-0.0175,0.0568,-0.0073,-0.0059,0.0227,0.1648,0.4707,-0.6821,0.3064,0.6696,-0.9336,0.3022,-0.4139,0.3334,-0.0264,0.6615,-0.9214,0.4496,-0.5584,0.3627,0.4578,0.5041,-0.7001,0.0,0.0,0.0,0.0,0.0,0.0,0.0,0.0,0.0,
4.44,run,-0.07,3.31,-0.24,-0.08,-1.02,0.0,0.0,0.0,0.104,6.15,1.32,7.21,10.63,12.39,-14.24,10.72,-47.72,93.96,-0.97,11.69,-13.27,15.56,-55.81,95.8,16.0,3.34,5.54,5.78,0.87,7.06,10.73,11.87,-14.32,10.58,-47.69,93.28,-0.95,11.39,-13.18,15.69,-55.68,95.72,15.97,2.73,5.54,0.1652,0.4704,-0.6817,0.3065,0.6704,-0.9332,0.3023,-0.4126,0.3328,-0.0271,0.6616,-0.9198,0.4481,-0.5578,0.3614,0.4562,0.5042,-0.6996,0.006,0.013,0.006,0.006,0.006,0.0,0.0,0.0,0.019,0.0,0.0,0.0,0.0,0.006,0.0,0.0,0.019,0.0,0.1012,0.0153,0.1227,0.1825,0.2071,-0.25,0.1841,-0.836,1.6306,-0.0153,0.1963,-0.2347,0.27,-0.9787,1.669,0.2792,0.0491,0.0936,-0.0005,0.0,-0.0014,0.0,-0.0,0.0079,-0.0,0.0,-0.0,-0.0,-0.0,-0.0002,-0.0003,-0.0006,-0.0036,-0.0,-0.0,0.0,-0.0187,0.0586,0.0012,0.0085,0.0031,0.1662,0.4706,-0.6829,0.3078,0.6714,-0.9321,0.3032,-0.4113,0.3335,-0.0285,0.6628,-0.9195,0.448,-0.5575,0.3618,0.4551,0.5044,-0.6981,0.0,0.0,0.0,0.0,0.0,0.0,0.0,0.0,0.0,
4.48,run,-0.09,3.3,-0.4,-0.06,1.44,0.0,0.0,0.0,0.104,5.45,1.32,7.21,10.63,12.39,-14.24,10.72,-47.72,93.96,-0.97,11.69,-13.27,15.56,-55.81,95.8,16.0,3.34,5.54,5.76,0.91,7.08,10.73,11.82,-14.4,10.58,-47.75,93.34,-0.94,11.37,-13.25,15.71,-55.71,95.77,16.01,2.7,5.6,0.1646,0.4712,-0.6814,0.3067,0.6695,-0.9341,0.3023,-0.4136,0.3334,-0.0268,0.6613,-0.9205,0.449,-0.5583,0.362,0.4573,0.5037,-0.6989,0.006,0.013,0.006,0.006,0.006,0.0,0.0,0.0,0.019,0.0,0.0,0.0,0.0,0.006,0.0,0.0,0.019,0.0,0.1074,0.0153,0.1227,0.1825,0.2071,-0.25,0.1841,-0.836,1.6306,-0.0153,0.1963,-0.2347,0.27,-0.9787,1.669,0.2792,0.0491,0.0936,0.0228,0.0,-0.001,0.0,-0.0,0.0055,-0.0,0.0,-0.0,-0.0,-0.0,-0.0001,-0.0002,-0.0004,-0.0025,-0.0,-0.0,0.0,-0.0194,0.0589,-0.0041,-0.0014,-0.0178,0.1652,0.4704,-0.6817,0.3065,0.6704,-0.9332,0.3023,-0.4126,0.3328,-0.0271,0.6616,-0.9198,0.4481,-0.5578,0.3614,0.4562,0.5042,-0.6996,0.0,0.0,0.0,0.0,0.0,0.0,0.0,0.0,0.0,
4.52,run,-0.08,3.31,0.08,0.25,-0.9,0.0,0.0,0.0,0.104,6.06,1.32,7.21,10.63,12.39,-14.41,10.72,-47.72,93.78,-0.97,11.69,-13.27,15.56,-55.9,95.8,16.0,3.34,5.54,5.82,0.89,7.05,10.76,11.96,-14.27,10.6,-47.62,93.38,-0.99,11.44,-13.1,15.65,-55.68,95.69,15.91,2.75,5.68,0.1662,0.4708,-0.6818,0.3074,0.672,-0.9326,0.3029,-0.4113,0.3339,-0.0284,0.6626,-0.9189,0.4472,-0.5579,0.3611,0.4545,0.5045,-0.6979,0.019,0.006,0.0,0.0,0.006,0.0,0.006,0.0,0.006,0.0,0.006,0.0,0.0,0.006,0.0,0.0,0.019,0.0,0.0951,0.0153,0.1227,0.1825,0.2071,-0.25,0.1841,-0.836,1.6306,-0.0153,0.1963,-0.2347,0.27,-0.9787,1.669,0.2792,0.0491,0.0936,-0.0298,0.0,-0.0007,0.0,-0.0,0.0039,-0.0,0.0,-0.0,-0.0,-0.0,-0.0001,-0.0001,-0.0003,-0.0018,-0.0,-0.0,0.0,-0.0215,0.0585,-0.0071,-0.001,0.0251,0.1646,0.4712,-0.6814,0.3067,0.6695,-0.9341,0.3023,-0.4136,0.3334,-0.0268,0.6613,-0.9205,0.449,-0.5583,0.362,0.4573,0.5037,-0.6989,0.0,0.0,0.0,0.0,0.0,0.0,0.0,0.0,0.0,
4.56,run,-0.08,3.3,0.16,0.16,-0.49,0.0,0.0,0.0,0.104,5.98,1.32,7.21,10.63,12.39,-14.33,10.72,-47.72,93.78,-0.97,11.69,-13.27,15.56,-55.81,95.8,16.0,3.34,5.54,5.77,0.91,7.11,10.71,11.86,-14.38,10.57,-47.75,93.38,-0.92,11.38,-13.24,15.7,-55.71,95.75,16.0,2.74,5.56,0.1648,0.471,-0.6811,0.3061,0.6703,-0.9339,0.3021,-0.4136,0.3339,-0.0264,0.6614,-0.9205,0.4486,-0.5583,0.3617,0.457,0.5043,-0.6993,0.019,0.006,0.0,0.0,0.006,0.0,0.006,0.0,0.006,0.0,0.006,0.0,0.0,0.006,0.0,0.0,0.019,0.0,0.1058,0.0153,0.1227,0.1825,0.2071,-0.2531,0.1841,-0.836,1.6276,-0.0153,0.1963,-0.2347,0.27,-0.9802,1.669,0.2792,0.0491,0.0936,0.0194,0.0,-0.0005,0.0,-0.0,-0.0088,-0.0,0.0,-0.0115,-0.0,-0.0,-0.0001,-0.0001,-0.006,-0.0012,-0.0,-0.0,0.0,-0.0207,0.0588,0.0015,0.0043,-0.0157,0.1662,0.4708,-0.6818,0.3074,0.672,-0.9326,0.3029,-0.4113,0.3339,-0.0284,0.6626,-0.9189,0.4472,-0.5579,0.3611,0.4545,0.5045,-0.6979,0.0,0.0,0.0,0.0,0.0,0.0,0.0,0.0,0.0,
4.6,run,-0.09,3.28,-0.47,-0.44,1.04,0.0,0.0,0.0,0.104,5.45,1.32,7.21,10.63,12.39,-14.33,10.72,-47.72,93.78,-0.97,11.69,-13.27,15.56,-55.9,95.8,16.0,3.34,5.54,5.78,0.87,7.09,10.72,11.87,-14.33,10.58,-47.72,93.35,-0.93,11.39,-13.21,15.69,-55.71,95.73,15.97,2.72,5.56,0.1651,0.4704,-0.6813,0.3063,0.6704,-0.9333,0.3023,-0.4132,0.3336,-0.0267,0.6616,-0.9202,0.4484,-0.5584,0.3615,0.4562,0.5041,-0.6993,0.019,0.006,0.0,0.0,0.006,0.0,0.006,0.0,0.006,0.0,0.006,0.0,0.0,0.006,0.0,0.0,0.019,0.0,0.1043,0.0153,0.1227,0.1825,0.2071,-0.2516,0.1841,-0.836,1.6276,-0.0153,0.1963,-0.2347,0.27,-0.9787,1.669,0.2792,0.0491,0.0936,0.0078,0.0,-0.0003,0.0,-0.0,-0.0004,-0.0,0.0,-0.0081,-0.0,-0.0,-0.0,-0.0001,0.0016,-0.0009,-0.0,-0.0,0.0,-0.0205,0.0582,0.0028,0.0027,-0.0086,0.1648,0.471,-0.6811,0.3061,0.6703,-0.9339,0.3021,-0.4136,0.3339,-0.0264,0.6614,-0.9205,0.4486,-0.5583,0.3617,0.457,0.5043,-0.6993,0.0,0.0,0.0,0.0,0.0,0.0,0.0,0.0,0.0,
4.64,run,-0.05,3.29,0.35,0.21,-1.73,0.0,0.0,0.0,0.104,6.24,1.32,7.21,10.63,12.39,-14.33,10.72,-47.72,93.78,-0.97,11.69,-13.27,15.64,-55.9,95.8,16.0,3.34,5.54,5.82,0.91,7.03,10.76,11.97,-14.28,10.61,-47.64,93.41,-1.0,11.46,-13.15,15.66,-55.69,95.69,15.92,2.76,5.7,0.1663,0.4711,-0.682,0.3075,0.6721,-0.9327,0.3031,-0.4117,0.3342,-0.0285,0.663,-0.9194,0.4473,-0.558,0.3611,0.4548,0.5047,-0.6976,0.013,0.013,0.0,0.0,0.013,0.0,0.0,0.0,0.006,0.0,0.0,0.0,0.0,0.006,0.0,0.0,0.013,0.0,0.0951,0.0153,0.1227,0.1825,0.2071,-0.2516,0.1841,-0.836,1.6276,-0.0153,0.1963,-0.2347,0.27,-0.9802,1.669,0.2792,0.0491,0.0936,-0.0289,0.0,-0.0002,0.0,-0.0,-0.0003,-0.0,0.0,-0.0056,-0.0,-0.0,-0.0,-0.0001,-0.0046,-0.0006,-0.0,-0.0,0.0,-0.0214,0.0566,-0.0082,-0.0077,0.0182,0.1651,0.4704,-0.6813,0.3063,0.6704,-0.9333,0.3023,-0.4132,0.3336,-0.0267,0.6616,-0.9202,0.4484,-0.5584,0.3615,0.4562,0.5041,-0.6993,0.0,0.0,0.0,0.0,0.0,0.0,0.0,0.0,0.0,
4.68,run,-0.04,3.29,-0.39,-0.32,1.27,0.0,0.0,0.0,0.104,5.71,1.32,7.21,10.63,12.39,-14.33,10.72,-47.72,93.78,-0.97,11.69,-13.27,15.56,-55.81,95.8,16.0,3.34,5.54,5.76,0.9,7.08,10.71,11.81,-14.42,10.57,-47.79,93.29,-0.92,11.37,-13.31,15.72,-55.73,95.76,16.03,2.72,5.5,0.1647,0.4708,-0.6814,0.306,0.6694,-0.9343,0.3019,-0.4143,0.3328,-0.0261,0.6613,-0.9213,0.4491,-0.5587,0.3618,0.458,0.5041,-0.7,0.013,0.013,0.0,0.0,0.013,0.0,0.0,0.0,0.006,0.0,0.0,0.0,0.0,0.006,0.0,0.0,0.013,0.0,0.1089,0.0153,0.1227,0.1825,0.2071,-0.2516,0.1841,-0.836,1.6276,-0.0153,0.1963,-0.2347,0.2715,-0.9802,1.669,0.2792,0.0491,0.0936,0.0314,0.0,-0.0002,0.0,-0.0,-0.0002,-0.0,0.0,-0.004,-0.0,-0.0,-0.0,0.0057,-0.0032,-0.0004,-0.0,-0.0,0.0,-0.0181,0.0572,0.0061,0.0037,-0.0302,0.1663,0.4711,-0.682,0.3075,0.6721,-0.9327,0.3031,-0.4117,0.3342,-0.0285,0.663,-0.9194,0.4473,-0.558,0.3611,0.4548,0.5047,-0.6976,0.0,0.0,0.0,0.0,0.0,0.0,0.0,0.0,0.0,
4.72,run,-0.04,3.31,0.34,0.5,0.26,0.0,0.0,0.0,0.104,5.62,1.32,7.21,10.63,12.39,-14.33,10.72,-47.72,93.78,-0.97,11.69,-13.27,15.56,-55.9,95.8,16.0,3.34,5.54,5.81,0.87,6.96,10.76,11.92,-14.21,10.61,-47.61,93.39,-0.97,11.43,-13.18,15.67,-55.64,95.75,15.93,2.73,5.67,0.1661,0.4704,-0.6828,0.3075,0.6713,-0.9319,0.303,-0.4111,0.334,-0.0278,0.6625,-0.9198,0.4478,-0.5571,0.3618,0.4552,0.5042,-0.6981,0.013,0.013,0.0,0.0,0.013,0.0,0.0,0.0,0.006,0.0,0.0,0.0,0.0,0.006,0.0,0.0,0.013,0.0,0.0997,0.0153,0.1227,0.1825,0.2071,-0.2516,0.1841,-0.836,1.6276,-0.0153,0.1963,-0.2347,0.27,-0.9787,1.669,0.2792,0.0491,0.0936,-0.0125,0.0,-0.0001,0.0,-0.0,-0.0001,-0.0,0.0,-0.0028,-0.0,-0.0,-0.0,-0.0018,0.0035,-0.0003,-0.0,-0.0,0.0,-0.0175,0.0569,-0.0068,-0.0057,0.0222,0.1647,0.4708,-0.6814,0.306,0.6694,-0.9343,0.3019,-0.4143,0.3328,-0.0261,0.6613,-0.9213,0.4491,-0.5587,0.3618,0.458,0.5041,-0.7,0.0,0.0,0.0,0.0,0.0,0.0,0.0,0.0,0.0,
4.76,run,-0.05,3.31,-0.15,-0.19,-1.09,0.0,0.0,0.0,0.104,6.24,1.32,7.21,10.63,12.39,-14.33,10.72,-47.72,93.78,-0.97,11.69,-13.27,15.56,-55.81,95.8,16.0,3.34,5.54,5.8,0.85,7.07,10.71,11.91,-14.31,10.58,-47.71,93.29,-0.95,11.39,-13.18,15.67,-55.71,95.66,15.96,2.77,5.5,0.1657,0.47,-0.6816,0.3061,0.6711,-0.9331,0.3024,-0.4129,0.3329,-0.0272,0.6617,-0.9197,0.4477,-0.5584,0.3608,0.4559,0.505,-0.7,0.006,0.006,0.0,0.0,0.006,0.0,0.006,0.0,0.013,0.0,0.006,0.0,0.0,0.0,0.006,0.0,0.013,0.0,0.0982,0.0153,0.1227,0.1825,0.2071,-0.2516,0.1841,-0.836,1.6276,-0.0153,0.1963,-0.2347,0.27,-0.9802,1.669,0.2792,0.0491,0.0936,-0.0145,0.0,-0.0001,0.0,-0.0,-0.0001,-0.0,0.0,-0.0019,-0.0,-0.0,-0.0,-0.0012,-0.0033,-0.0002,-0.0,-0.0,0.0,-0.0172,0.0593,0.0059,0.0087,0.0046,0.1661,0.4704,-0.6828,0.3075,0.6713,-0.9319,0.303,-0.4111,0.334,-0.0278,0.6625,-0.9198,0.4478,-0.5571,0.3618,0.4552,0.5042,-0.6981,0.0,0.0,0.0,0.0,0.0,0.0,0.0,0.0,0.0,
4.8,run,-0.07,3.3,-0.39,-0.17,1.36,0.0,0.0,0.0,0.104,5.45,1.32,7.21,10.63,12.39,-14.33,10.72,-47.72,93.78,-0.97,11.69,-13.27,15.56,-55.81,95.8,16.0,3.34,5.54,5.77,0.89,7.05,10.73,11.83,-14.38,10.58,-47.76,93.38,-0.92,11.37,-13.3,15.72,-55.7,95.81,16.02,2.71,5.57,0.1647,0.4708,-0.6818,0.3065,0.6695,-0.9339,0.3024,-0.4138,0.3338,-0.0264,0.6613,-0.9212,0.4492,-0.5582,0.3624,0.4577,0.5039,-0.6992,0.006,0.006,0.0,0.0,0.006,0.0,0.006,0.0,0.013,0.0,0.006,0.0,0.0,0.0,0.006,0.0,0.013,0.0,0.1089,0.0153,0.1227,0.1825,0.2071,-0.2516,0.1841,-0.836,1.6276,-0.0153,0.1963,-0.2347,0.27,-0.9787,1.669,0.2792,0.0491,0.0936,0.0302,0.0,-0.0001,0.0,-0.0,-0.0001,-0.0,0.0,-0.0014,-0.0,-0.0,-0.0,-0.0009,0.0035,-0.0001,-0.0,-0.0,0.0,-0.0178,0.0587,-0.0027,-0.0034,-0.019,0.1657,0.47,-0.6816,0.3061,0.6711,-0.9331,0.3024,-0.4129,0.3329,-0.0272,0.6617,-0.9197,0.4477,-0.5584,0.3608,0.4559,0.505,-0.7,0.0,0.0,0.0,0.0,0.0,0.0,0.0,0.0,0.0,
4.84,run,-0.07,3.32,0.15,0.33,-0.56,0.0,0.0,0.0,0.104,5.8,1.32,7.21,10.63,12.39,-14.33,10.72,-47.72,93.78,-0.97,11.69,-13.27,15.56,-55.9,95.8,16.0,3.34,5.54,5.83,0.88,7.03,10.75,11.97,-14.26,10.61,-47.64,93.42,-0.99,11.45,-13.13,15.66,-55.69,95.71,15.91,2.77,5.66,0.1665,0.4705,-0.682,0.3072,0.6722,-0.9324,0.3031,-0.4116,0.3343,-0.0283,0.6627,-0.9192,0.4474,-0.5581,0.3612,0.4546,0.5048,-0.6981,0.006,0.006,0.0,0.0,0.006,0.0,0.006,0.0,0.013,0.0,0.006,0.0,0.0,0.0,0.006,0.0,0.013,0.0,0.0951,0.0153,0.1227,0.1825,0.2071,-0.2516,0.1841,-0.836,1.6276,-0.0153,0.1963,-0.2347,0.27,-0.9787,1.669,0.2792,0.0491,0.0936,-0.0305,0.0,-0.0,0.0,-0.0,-0.0,-0.0,0.0,-0.0009,-0.0,-0.0,-0.0,-0.0006,0.0024,-0.0001,-0.0,-0.0,0.0,-0.02,0.0583,-0.0068,-0.003,0.0238,0.1647,0.4708,-0.6818,0.3065,0.6695,-0.9339,0.3024,-0.4138,0.3338,-0.0264,0.6613,-0.9212,0.4492,-0.5582,0.3624,0.4577,0.5039,-0.6992,0.0,0.0,0.0,0.0,0.0,0.0,0.0,0.0,0.0,
4.88,run,-0.06,3.33,0.28,0.22,-0.59,0.0,0.0,0.0,0.104,6.06,1.32,7.21,10.63,12.39,-14.33,10.72,-47.72,93.78,-0.97,11.69,-13.27,15.56,-55.81,95.8,16.0,3.34,5.54,5.79,0.88,7.11,10.71,11.89,-14.39,10.58,-47.76,93.34,-0.94,11.39,-13.22,15.69,-55.74,95.71,15.98,2.76,5.53,0.1653,0.4705,-0.681,0.306,0.6707,-0.9339,0.3023,-0.4139,0.3334,-0.0269,0.6616,-0.9202,0.4482,-0.5589,0.3612,0.4567,0.5048,-0.6997,0.013,0.006,0.0,0.0,0.006,0.0,0.0,0.0,0.006,0.0,0.006,0.0,0.0,0.0,0.0,0.0,0.013,0.0,0.1012,0.0153,0.1227,0.1825,0.2071,-0.2516,0.1841,-0.836,1.6276,-0.0153,0.1963,-0.2347,0.27,-0.9802,1.669,0.2792,0.0491,0.0936,0.0017,0.0,-0.0,0.0,-0.0,-0.0,-0.0,0.0,-0.0007,-0.0,-0.0,-0.0,-0.0004,-0.0041,-0.0001,-0.0,-0.0,0.0,-0.0194,0.0595,0.0025,0.0058,-0.0098,0.1665,0.4705,-0.682,0.3072,0.6722,-0.9324,0.3031,-0.4116,0.3343,-0.0283,0.6627,-0.9192,0.4474,-0.5581,0.3612,0.4546,0.5048,-0.6981,0.0,0.0,0.0,0.0,0.0,0.0,0.0,0.0,0.0,
4.92,run,-0.06,3.32,-0.21,-0.08,1.35,0.0,0.0,0.0,0.104,5.45,1.32,7.21,10.63,12.39,-14.33,10.72,-47.72,93.78,-0.97,11.69,-13.27,15.56,-55.9,95.8,16.0,3.34,5.54,5.78,0.85,7.1,10.71,11.85,-14.36,10.58,-47.76,93.35,-0.92,11.36,-13.24,15.7,-55.72,95.76,15.99,2.73,5.52,0.165,0.4701,-0.6812,0.3059,0.67,-0.9336,0.3022,-0.4138,0.3336,-0.0263,0.6611,-0.9205,0.4486,-0.5586,0.3619,0.4569,0.5042,-0.6998,0.013,0.006,0.0,0.0,0.006,0.0,0.0,0.0,0.006,0.0,0.006,0.0,0.0,0.0,0.0,0.0,0.013,0.0,0.1058,0.0153,0.1227,0.1825,0.2071,-0.2516,0.1841,-0.836,1.6276,-0.0153,0.1963,-0.2347,0.27,-0.9787,1.669,0.2792,0.0491,0.0936,0.0185,0.0,-0.0,0.0,-0.0,-0.0,-0.0,0.0,-0.0005,-0.0,-0.0,-0.0,-0.0003,0.0029,-0.0,-0.0,-0.0,0.0,-0.0186,0.0609,0.0048,0.0038,-0.0102,0.1653,0.4705,-0.681,0.306,0.6707,-0.9339,0.3023,-0.4139,0.3334,-0.0269,0.6616,-0.9202,0.4482,-0.5589,0.3612,0.4567,0.5048,-0.6997,0.0,0.0,0.0,0.0,0.0,0.0,0.0,0.0,0.0,
4.96,run,-0.04,3.33,0.39,0.24,-1.26,0.0,0.0,0.0,0.104,6.06,1.32,7.21,10.63,12.39,-14.33,10.72,-47.72,93.78,-0.97,11.69,-13.27,15.56,-55.9,95.8,16.0,3.34,5.54,5.82,0.87,7.05,10.74,11.95,-14.28,10.6,-47.66,93.38,-0.98,11.43,-13.14,15.66,-55.69,95.69,15.92,2.78,5.63,0.1663,0.4704,-0.6818,0.3069,0.6719,-0.9327,0.3029,-0.412,0.3339,-0.0281,0.6624,-0.9192,0.4473,-0.5581,0.3611,0.455,0.505,-0.6984,0.013,0.006,0.0,0.0,0.006,0.0,0.0,0.0,0.006,0.0,0.006,0.0,0.0,0.0,0.0,0.0,0.013,0.0,0.0951,0.0153,0.1227,0.1825,0.2071,-0.2516,0.1841,-0.836,1.6276,-0.0153,0.1963,-0.2347,0.27,-0.9802,1.669,0.2792,0.0491,0.0936,-0.0276,0.0,-0.0,0.0,-0.0,-0.0,-0.0,0.0,-0.0003,-0.0,-0.0,-0.0,-0.0002,-0.0038,-0.0,-0.0,-0.0,0.0,-0.0186,0.0602,-0.0036,-0.0014,0.0236,0.165,0.4701,-0.6812,0.3059,0.67,-0.9336,0.3022,-0.4138,0.3336,-0.0263,0.6611,-0.9205,0.4486,-0.5586,0.3619,0.4569,0.5042,-0.6998,0.0,0.0,0.0,0.0,0.0,0.0,0.0,0.0,0.0,
