t_s,phase,roll_deg,pitch_deg,gyro_x_dps,gyro_y_dps,gyro_z_dps,height_ref_mm,vx_ref_mps,vy_ref_mps,max_cur_a,q0_deg,q1_deg,q2_deg,q3_deg,q4_deg,q5_deg,q6_deg,q7_deg,q8_deg,q9_deg,q10_deg,q11_deg,q12_deg,q13_deg,q14_deg,q15_deg,q16_deg,q17_deg,cmd0_deg,cmd1_deg,cmd2_deg,cmd3_deg,cmd4_deg,cmd5_deg,cmd6_deg,cmd7_deg,cmd8_deg,cmd9_deg,cmd10_deg,cmd11_deg,cmd12_deg,cmd13_deg,cmd14_deg,cmd15_deg,cmd16_deg,cmd17_deg,act0,act1,act2,act3,act4,act5,act6,act7,act8,act9,act10,act11,act12,act13,act14,act15,act16,act17,cur0_a,cur1_a,cur2_a,cur3_a,cur4_a,cur5_a,cur6_a,cur7_a,cur8_a,cur9_a,cur10_a,cur11_a,cur12_a,cur13_a,cur14_a,cur15_a,cur16_a,cur17_a,obs0,obs1,obs2,obs3,obs4,obs5,obs6,obs7,obs8,obs9,obs10,obs11,obs12,obs13,obs14,obs15,obs16,obs17,obs18,obs19,obs20,obs21,obs22,obs23,obs24,obs25,obs26,obs27,obs28,obs29,obs30,obs31,obs32,obs33,obs34,obs35,obs36,obs37,obs38,obs39,obs40,obs41,obs42,obs43,obs44,obs45,obs46,obs47,obs48,obs49,obs50,obs51,obs52,obs53,obs54,obs55,obs56,obs57,obs58,obs59,obs60,obs61,obs62,obs63,obs64,obs65,obs66,obs67,rot60_k
0.0,run,-0.01,3.15,-0.12,-0.2,-0.72,0.0,0.0,0.0,0.019,0.09,0.62,0.18,-0.18,-0.09,0.35,-0.18,0.26,0.44,-0.18,-0.09,0.09,-0.09,0.09,0.18,0.0,0.35,0.35,0.01,-0.97,1.68,1.32,-0.91,1.68,1.32,-1.32,1.94,-1.59,1.41,1.59,1.41,-1.41,1.68,1.5,-1.08,1.76,0.0004,0.3343,-0.0868,0.1338,0.438,-0.3161,0.1652,-0.0828,-0.2013,-0.2266,0.5733,-0.0824,0.0703,-0.029,-0.2541,0.415,0.4349,-0.1773,0.0,0.006,0.006,0.006,0.006,0.0,0.006,0.019,0.006,0.013,0.006,0.013,0.006,0.019,0.013,0.013,0.013,0.006,-0.0031,0.0015,0.0,0.0,0.0,0.0015,0.0,0.0031,0.0,0.0,0.0,0.0,0.0,0.0,0.0,0.0,0.0015,0.0015,-0.0023,0.0038,0.0,0.0,0.0,0.0032,0.0,0.0069,0.0,0.0,0.0,0.0,0.0,0.0,0.0,0.0,0.0032,0.0038,0.0,0.0,-0.0069,-0.0047,0.0232,0.0,0.0,0.0,0.0,0.0,0.0,0.0,0.0,0.0,0.0,0.0,0.0,0.0,0.0,0.0,0.0,0.0,0.0,0.0,0.0,0.0,0.0,0.0,0.0,0.0,0.0,0.0,
0.04,run,-0.0,3.15,0.0,0.08,1.5,0.0,0.0,0.0,0.019,-0.26,0.62,0.26,-0.18,-0.09,0.44,-0.18,-0.18,0.44,-0.26,0.0,0.26,0.09,0.0,0.44,0.09,0.18,0.35,-0.44,0.53,3.18,2.82,0.59,3.18,2.82,-2.82,3.44,-2.18,2.91,3.09,2.91,-2.91,3.18,3.0,0.42,3.26,-0.0126,0.5483,-0.2895,0.1659,0.5613,-0.4447,0.1789,0.162,-0.167,-0.0624,0.6172,-0.405,0.1375,0.133,-0.0258,0.3354,0.5776,-0.517,0.0,0.006,0.006,0.006,0.006,0.0,0.006,0.019,0.006,0.013,0.006,0.013,0.006,0.019,0.013,0.013,0.013,0.006,0.0015,0.0015,0.0,0.0,0.0,0.0031,0.0,0.0015,0.0,-0.0015,0.0,0.0,0.0,0.0,0.0,0.0,0.0015,0.0015,0.0059,0.0026,0.0,0.0,0.0,0.0047,0.0,0.0023,0.0,-0.0025,0.0,0.0,0.0,0.0,0.0,0.0,0.0022,0.0026,0.0003,-0.0016,-0.0021,-0.0035,-0.0126,0.0004,0.3343,-0.0868,0.1338,0.438,-0.3161,0.1652,-0.0828,-0.2013,-0.2266,0.5733,-0.0824,0.0703,-0.029,-0.2541,0.415,0.4349,-0.1773,0.0,0.0,0.0,0.0,0.0,0.0,0.0,0.0,0.0,
0.08,run,0.01,3.12,-0.24,-0.11,-1.91,0.0,0.0,0.0,0.019,0.18,0.26,0.88,0.35,-0.26,1.05,0.44,-0.7,1.05,-1.41,0.7,1.05,0.88,-0.88,1.14,1.14,-0.18,0.88,-0.28,2.03,4.68,4.32,2.09,4.68,4.32,-4.32,4.94,-0.68,4.41,4.59,4.41,-4.41,4.68,4.5,1.92,4.76,-0.0079,0.6098,-0.3727,0.1933,0.6363,-0.482,0.2042,0.175,-0.0832,-0.0167,0.6339,-0.4569,0.1631,0.1717,-0.0727,0.2846,0.5571,-0.5094,0.0,0.006,0.006,0.006,0.006,0.0,0.006,0.019,0.006,0.013,0.006,0.013,0.006,0.019,0.013,0.013,0.013,0.006,-0.0046,0.0015,0.0015,0.0,0.0,0.0046,0.0,-0.0061,0.0,-0.0031,0.0015,0.0031,0.0031,-0.0015,0.0046,0.0015,-0.0015,0.0015,-0.0189,0.0018,0.0058,0.0,0.0,0.0091,0.0,-0.0271,0.0,-0.0075,0.0058,0.0115,0.0115,-0.0058,0.0173,0.0058,-0.0099,0.0018,0.0009,-0.0017,0.0,0.0014,0.0262,-0.0126,0.5483,-0.2895,0.1659,0.5613,-0.4447,0.1789,0.162,-0.167,-0.0624,0.6172,-0.405,0.1375,0.133,-0.0258,0.3354,0.5776,-0.517,0.0,0.0,0.0,0.0,0.0,0.0,0.0,0.0,0.0,
0.12,run,0.03,3.1,-0.36,-0.4,1.05,0.0,0.0,0.0,0.039,-0.53,-0.09,1.58,1.23,-0.26,2.2,1.23,-1.58,1.58,-1.93,1.58,2.11,1.76,-1.67,2.37,2.02,-0.44,1.76,-0.52,3.53,6.18,5.82,3.59,6.18,5.82,-5.82,6.44,0.1,5.91,6.09,5.04,-5.91,6.18,6.0,3.42,6.26,-0.0149,0.5853,-0.3802,0.1695,0.6239,-0.4945,0.1904,0.1769,-0.1209,0.003,0.6241,-0.4806,0.144,0.1897,-0.1487,0.2728,0.5779,-0.5446,0.019,0.0,0.013,0.019,0.0,0.019,0.013,0.033,0.039,0.006,0.006,0.019,0.013,0.033,0.006,0.033,0.006,0.019,0.0031,-0.0046,0.0123,0.0092,-0.0031,0.0153,0.0107,-0.0153,0.0107,-0.023,0.0138,0.0169,0.0169,-0.0169,0.0169,0.0199,-0.0077,0.0107,0.015,-0.0213,0.0436,0.0339,-0.0113,0.0459,0.0395,-0.0529,0.0395,-0.0787,0.0492,0.0589,0.0589,-0.0605,0.0573,0.0718,-0.0296,0.0352,0.0021,-0.0037,-0.0041,-0.0019,-0.0334,-0.0079,0.6098,-0.3727,0.1933,0.6363,-0.482,0.2042,0.175,-0.0832,-0.0167,0.6339,-0.4569,0.1631,0.1717,-0.0727,0.2846,0.5571,-0.5094,0.0,0.0,0.0,0.0,0.0,0.0,0.0,0.0,0.0,
0.16,run,-0.02,3.11,-0.79,-0.18,2.16,0.0,0.0,0.0,0.039,-0.7,0.0,2.81,2.29,-0.09,3.34,2.37,-2.72,2.55,-1.85,2.64,3.25,2.9,-2.81,3.43,2.99,-0.35,2.81,-1.23,4.95,7.68,5.52,5.09,7.68,5.85,-7.32,7.94,0.38,6.97,7.59,3.59,-7.41,7.68,7.5,4.92,7.76,-0.0352,0.5446,-0.3988,0.1577,0.5781,-0.4998,0.1672,0.2079,-0.2125,0.0108,0.5813,-0.4918,0.1027,0.2179,-0.2833,0.2653,0.572,-0.601,0.019,0.0,0.013,0.019,0.0,0.019,0.013,0.033,0.039,0.006,0.006,0.019,0.013,0.033,0.006,0.033,0.006,0.019,-0.0092,-0.0107,0.0245,0.0245,-0.0031,0.0353,0.0245,-0.0307,0.0199,-0.0322,0.0291,0.0353,0.0322,-0.0307,0.0383,0.0353,-0.0123,0.0261,-0.0368,-0.0386,0.0778,0.0829,-0.0079,0.109,0.0809,-0.0962,0.0632,-0.0906,0.0936,0.1122,0.1004,-0.0956,0.1229,0.1094,-0.0384,0.0838,0.0037,-0.0054,-0.0063,-0.007,0.0183,-0.0149,0.5853,-0.3802,0.1695,0.6239,-0.4945,0.1904,0.1769,-0.1209,0.003,0.6241,-0.4806,0.144,0.1897,-0.1487,0.2728,0.5779,-0.5446,0.0,0.0,0.0,0.0,0.0,0.0,0.0,0.0,0.0,
0.2,run,-0.01,3.13,-0.07,-0.16,-1.57,0.0,0.0,0.0,0.039,-0.44,0.35,3.96,3.52,0.53,4.66,3.52,-4.04,3.96,-2.46,3.96,4.57,3.87,-4.13,4.75,4.83,0.0,4.13,-2.15,3.47,9.18,5.65,3.63,9.18,4.78,-8.82,9.44,-0.05,5.47,9.09,2.09,-8.91,9.18,9.0,5.51,8.94,-0.0614,0.5177,-0.4263,0.1613,0.5206,-0.5078,0.1366,0.2604,-0.3334,-0.0013,0.5259,-0.4991,0.0476,0.2633,-0.4509,0.2613,0.5547,-0.6595,0.019,0.0,0.013,0.019,0.0,0.019,0.013,0.033,0.039,0.006,0.006,0.019,0.013,0.033,0.006,0.033,0.006,0.019,-0.0123,-0.0092,0.046,0.043,0.0,0.0552,0.0445,-0.0506,0.0368,-0.0307,0.0476,0.0552,0.0522,-0.0506,0.0568,0.0522,-0.0107,0.0445,-0.0373,-0.0212,0.1351,0.1271,0.006,0.1512,0.1315,-0.1422,0.1076,-0.0576,0.1346,0.1534,0.1451,-0.1418,0.1551,0.1399,-0.0211,0.1277,-0.0003,-0.0049,-0.0138,-0.0031,0.0377,-0.0352,0.5446,-0.3988,0.1577,0.5781,-0.4998,0.1672,0.2079,-0.2125,0.0108,0.5813,-0.4918,0.1027,0.2179,-0.2833,0.2653,0.572,-0.601,0.0,0.0,0.0,0.0,0.0,0.0,0.0,0.0,0.0,
0.24,run,-0.05,3.12,-0.96,-0.44,1.83,0.0,0.0,0.0,0.039,-1.49,1.14,5.36,4.39,1.58,6.06,4.48,-5.45,5.36,-1.05,5.01,5.89,4.48,-5.54,6.15,5.54,0.53,5.45,-2.8,1.97,10.68,5.76,2.13,10.68,3.86,-8.2,10.94,-0.44,3.97,10.59,0.59,-8.77,10.68,9.42,4.35,7.44,-0.0799,0.4893,-0.4609,0.1645,0.4486,-0.5163,0.1103,0.3054,-0.443,-0.0127,0.4617,-0.5193,0.0063,0.295,-0.5895,0.2692,0.5337,-0.7227,0.013,0.0,0.006,0.013,0.0,0.013,0.006,0.019,0.026,0.013,0.0,0.006,0.0,0.019,0.006,0.026,0.026,0.006,-0.0077,-0.0031,0.066,0.0644,0.0107,0.0782,0.0644,-0.0736,0.0614,-0.0414,0.0706,0.0782,0.069,-0.0736,0.0798,0.0844,-0.0046,0.0675,-0.0089,0.008,0.169,0.1691,0.0443,0.1917,0.1665,-0.1854,0.1669,-0.0804,0.1801,0.1933,0.1646,-0.1851,0.1945,0.2182,0.0081,0.1753,0.0,-0.0035,-0.0012,-0.0027,-0.0274,-0.0614,0.5177,-0.4263,0.1613,0.5206,-0.5078,0.1366,0.2604,-0.3334,-0.0013,0.5259,-0.4991,0.0476,0.2633,-0.4509,0.2613,0.5547,-0.6595,0.0,0.0,0.0,0.0,0.0,0.0,0.0,0.0,0.0,
0.28,run,-0.05,3.14,0.15,-0.16,-0.75,0.0,0.0,0.0,0.039,-2.02,2.02,6.77,5.01,2.37,7.47,5.1,-6.68,6.77,-0.79,5.89,7.29,4.83,-6.68,7.56,7.47,1.58,6.68,-3.03,0.47,12.18,6.01,0.63,12.18,3.89,-7.08,12.44,-0.5,2.47,12.09,-0.29,-8.58,11.26,9.81,2.85,5.94,-0.0865,0.4494,-0.4985,0.1716,0.3939,-0.5263,0.1112,0.3258,-0.4997,-0.0143,0.3991,-0.5304,-0.0083,0.2986,-0.6322,0.2804,0.4852,-0.7626,0.013,0.0,0.006,0.013,0.0,0.013,0.006,0.019,0.026,0.013,0.0,0.006,0.0,0.019,0.006,0.026,0.026,0.006,-0.0261,0.0107,0.0905,0.0798,0.0291,0.1028,0.0813,-0.0982,0.0859,-0.0169,0.089,0.1012,0.0798,-0.0982,0.1043,0.0966,0.0046,0.0905,-0.0752,0.0574,0.2103,0.1759,0.1,0.2262,0.1798,-0.2218,0.2088,0.0357,0.1951,0.2215,0.1554,-0.2216,0.2281,0.1987,0.0402,0.209,-0.0037,-0.0037,-0.0168,-0.0077,0.032,-0.0799,0.4893,-0.4609,0.1645,0.4486,-0.5163,0.1103,0.3054,-0.443,-0.0127,0.4617,-0.5193,0.0063,0.295,-0.5895,0.2692,0.5337,-0.7227,0.0,0.0,0.0,0.0,0.0,0.0,0.0,0.0,0.0,
0.32,run,-0.01,3.14,-0.11,0.16,0.24,0.0,0.0,0.0,0.039,-2.2,2.81,8.0,5.45,2.99,8.79,5.54,-7.56,8.09,-0.7,6.5,8.7,4.75,-7.73,8.79,8.09,3.43,7.56,-3.11,-1.03,13.68,5.44,-0.87,13.68,4.13,-8.0,13.94,-0.2,0.97,13.59,-0.26,-10.08,10.08,10.72,1.35,4.44,-0.0889,0.3859,-0.5331,0.1554,0.3217,-0.53,0.1181,0.3091,-0.5295,-0.0058,0.3341,-0.5458,-0.0076,0.2701,-0.6462,0.3063,0.4402,-0.7972,0.013,0.0,0.006,0.013,0.0,0.013,0.006,0.019,0.026,0.013,0.0,0.006,0.0,0.019,0.006,0.026,0.026,0.006,-0.0353,0.0261,0.115,0.0905,0.043,0.1273,0.092,-0.1197,0.1104,-0.0123,0.1043,0.1258,0.0859,-0.1181,0.1289,0.1304,0.023,0.112,-0.0871,0.0976,0.2391,0.1633,0.1217,0.2502,0.1661,-0.2357,0.2381,0.0422,0.194,0.247,0.1318,-0.2298,0.2516,0.2655,0.097,0.2267,-0.0029,-0.0025,0.0027,-0.0027,-0.013,-0.0865,0.4494,-0.4985,0.1716,0.3939,-0.5263,0.1112,0.3258,-0.4997,-0.0143,0.3991,-0.5304,-0.0083,0.2986,-0.6322,0.2804,0.4852,-0.7626,0.0,0.0,0.0,0.0,0.0,0.0,0.0,0.0,0.0,
0.36,run,-0.07,3.09,-1.32,-0.69,2.14,0.0,0.0,0.0,0.039,-3.43,3.25,9.58,5.45,3.34,10.28,5.54,-8.17,9.49,0.0,6.68,10.11,4.31,-8.44,9.93,8.96,3.69,8.26,-3.45,-2.53,15.18,4.7,-2.37,15.18,4.53,-9.5,15.44,0.16,-0.53,15.09,-0.18,-11.58,11.49,11.86,-0.15,2.94,-0.0987,0.303,-0.5603,0.1343,0.2418,-0.5215,0.1295,0.2803,-0.5464,0.0045,0.2587,-0.5392,-0.0051,0.237,-0.6295,0.3389,0.3812,-0.8152,0.013,0.0,0.013,0.0,0.006,0.019,0.019,0.013,0.019,0.0,0.0,0.006,0.013,0.026,0.013,0.006,0.0,0.006,-0.0383,0.0399,0.1365,0.0982,0.0537,0.1503,0.0997,-0.135,0.1335,-0.0107,0.115,0.1503,0.0844,-0.1365,0.1503,0.1411,0.0552,0.1273,-0.0725,0.12,0.2477,0.143,0.1253,0.2612,0.1449,-0.2223,0.2527,0.0353,0.176,0.2647,0.0865,-0.2297,0.2564,0.226,0.1884,0.216,0.0002,-0.0023,-0.0019,0.0029,0.0042,-0.0889,0.3859,-0.5331,0.1554,0.3217,-0.53,0.1181,0.3091,-0.5295,-0.0058,0.3341,-0.5458,-0.0076,0.2701,-0.6462,0.3063,0.4402,-0.7972,0.0,0.0,0.0,0.0,0.0,0.0,0.0,0.0,0.0,
0.4,run,-0.04,3.08,0.18,0.03,-1.01,0.0,0.0,0.0,0.039,-3.34,3.25,10.99,5.45,3.34,11.69,5.54,-8.7,10.99,-0.35,6.68,11.6,3.25,-9.58,10.63,10.55,4.04,8.61,-3.41,-4.03,16.68,4.36,-3.87,16.68,5.16,-11.0,16.94,0.21,-2.03,16.59,0.36,-13.08,12.99,12.82,-1.65,1.44,-0.0975,0.2347,-0.5685,0.1245,0.1795,-0.5251,0.1475,0.2474,-0.5497,0.006,0.2136,-0.5368,0.0102,0.1861,-0.6017,0.3664,0.3388,-0.8274,0.013,0.0,0.013,0.0,0.006,0.019,0.019,0.013,0.019,0.0,0.0,0.006,0.013,0.026,0.013,0.006,0.0,0.006,-0.0598,0.0476,0.1641,0.0982,0.0598,0.1764,0.0997,-0.1457,0.158,0.0015,0.1181,0.1749,0.0767,-0.1488,0.1703,0.1565,0.0598,0.1396,-0.1311,0.1127,0.2767,0.1001,0.1107,0.2805,0.1014,-0.1958,0.2688,0.0706,0.1347,0.2771,0.0318,-0.2067,0.2542,0.2156,0.1491,0.1972,-0.0053,-0.0065,-0.023,-0.0121,0.0373,-0.0987,0.303,-0.5603,0.1343,0.2418,-0.5215,0.1295,0.2803,-0.5464,0.0045,0.2587,-0.5392,-0.0051,0.237,-0.6295,0.3389,0.3812,-0.8152,0.0,0.0,0.0,0.0,0.0,0.0,0.0,0.0,0.0,
0.44,run,-0.05,3.08,-0.27,-0.1,-0.17,0.0,0.0,0.0,0.039,-3.34,3.16,12.39,5.36,2.99,13.1,5.01,-9.23,12.39,0.35,6.33,13.01,2.2,-10.55,10.99,10.72,4.13,8.7,-3.49,-5.53,17.38,3.61,-5.37,18.18,5.48,-12.5,17.81,0.62,-3.53,18.09,0.68,-14.58,13.95,13.59,-3.15,-0.06,-0.0997,0.1706,-0.5602,0.1031,0.1205,-0.5193,0.1565,0.2071,-0.5552,0.0176,0.1799,-0.5298,0.0195,0.1416,-0.6006,0.3882,0.3199,-0.8368,0.013,0.0,0.013,0.0,0.006,0.019,0.019,0.013,0.019,0.0,0.0,0.006,0.013,0.026,0.013,0.006,0.0,0.006,-0.0583,0.0476,0.1887,0.0982,0.0598,0.201,0.0997,-0.1549,0.1841,-0.0046,0.1181,0.201,0.0583,-0.1687,0.1825,0.1841,0.066,0.1457,-0.0863,0.0789,0.2818,0.0701,0.0775,0.2844,0.071,-0.1701,0.2818,0.0274,0.0943,0.2876,-0.0438,-0.2163,0.222,0.2501,0.1264,0.16,-0.002,-0.0077,0.0031,0.0005,-0.0175,-0.0975,0.2347,-0.5685,0.1245,0.1795,-0.5251,0.1475,0.2474,-0.5497,0.006,0.2136,-0.5368,0.0102,0.1861,-0.6017,0.3664,0.3388,-0.8274,0.0,0.0,0.0,0.0,0.0,0.0,0.0,0.0,0.0,
0.48,run,-0.07,3.05,-0.6,-0.32,0.14,0.0,0.0,0.0,0.039,-3.78,2.46,13.8,4.75,2.2,14.5,4.92,-9.84,13.8,0.35,5.45,14.41,1.23,-11.69,12.48,12.22,4.04,8.26,-3.71,-7.03,18.88,3.17,-6.87,19.68,5.92,-14.0,18.25,0.93,-5.03,19.59,1.18,-16.08,15.45,14.14,-4.65,-1.56,-0.106,0.1193,-0.5403,0.0906,0.0889,-0.5198,0.1692,0.1793,-0.55,0.0265,0.1596,-0.5208,0.0338,0.1115,-0.5802,0.4041,0.3071,-0.8376,0.0,0.013,0.013,0.006,0.026,0.006,0.013,0.026,0.013,0.026,0.026,0.013,0.006,0.039,0.013,0.0,0.019,0.006,-0.0583,0.046,0.2132,0.0966,0.0537,0.2255,0.0905,-0.1641,0.2086,0.0077,0.112,0.2255,0.0399,-0.1856,0.1887,0.1871,0.0675,0.1473,-0.0604,0.0495,0.2886,0.0433,0.0314,0.2904,0.0155,-0.1533,0.2885,0.0648,0.0432,0.2926,-0.0991,-0.2142,0.1782,0.1865,0.0942,0.1177,-0.0029,-0.0078,-0.0047,-0.0018,-0.0029,-0.0997,0.1706,-0.5602,0.1031,0.1205,-0.5193,0.1565,0.2071,-0.5552,0.0176,0.1799,-0.5298,0.0195,0.1416,-0.6006,0.3882,0.3199,-0.8368,0.0,0.0,0.0,0.0,0.0,0.0,0.0,0.0,0.0,
0.52,run,-0.05,3.05,-0.14,-0.17,-0.13,0.0,0.0,0.0,0.039,-3.78,1.41,15.12,3.69,1.14,15.91,4.92,-10.9,15.12,0.62,4.22,15.82,0.7,-13.01,13.01,13.01,3.34,7.38,-3.73,-8.53,20.36,2.83,-8.37,20.53,6.45,-15.5,19.02,1.18,-6.53,20.66,1.65,-17.58,15.8,14.53,-6.15,-3.06,-0.1064,0.0842,-0.5252,0.081,0.0635,-0.5231,0.1843,0.1469,-0.541,0.0338,0.1554,-0.5217,0.0472,0.0775,-0.5788,0.4152,0.3136,-0.844,0.0,0.013,0.013,0.006,0.026,0.006,0.013,0.026,0.013,0.026,0.026,0.013,0.006,0.039,0.013,0.0,0.019,0.006,-0.066,0.0337,0.2378,0.0859,0.0399,0.25,0.089,-0.1749,0.2332,0.0077,0.0966,0.25,0.023,-0.2056,0.2148,0.2132,0.066,0.1396,-0.0709,-0.0111,0.2935,-0.0097,-0.0295,0.2948,0.0051,-0.1474,0.2935,0.0454,-0.027,0.2963,-0.1323,-0.2243,0.222,0.2277,0.0602,0.0538,-0.0047,-0.0102,-0.0105,-0.0055,0.0024,-0.106,0.1193,-0.5403,0.0906,0.0889,-0.5198,0.1692,0.1793,-0.55,0.0265,0.1596,-0.5208,0.0338,0.1115,-0.5802,0.4041,0.3071,-0.8376,0.0,0.0,0.0,0.0,0.0,0.0,0.0,0.0,0.0,
0.56,run,-0.04,3.04,-0.15,-0.15,-0.21,0.0,0.0,0.0,0.039,-3.52,0.09,16.52,3.52,-0.18,17.31,5.19,-12.13,16.35,1.23,2.81,17.23,0.44,-14.33,14.24,13.62,2.37,6.24,-3.88,-10.03,21.86,2.37,-9.87,20.17,7.03,-17.0,19.99,1.61,-8.03,20.48,2.26,-19.08,17.24,15.11,-6.83,-4.56,-0.1107,0.0572,-0.4984,0.0678,0.0463,-0.5274,0.2008,0.1312,-0.5295,0.0461,0.1599,-0.5238,0.0645,0.0596,-0.5618,0.4317,0.3304,-0.8446,0.0,0.013,0.013,0.006,0.026,0.006,0.013,0.026,0.013,0.026,0.026,0.013,0.006,0.039,0.013,0.0,0.019,0.006,-0.066,0.0153,0.2608,0.0675,0.0215,0.2746,0.089,-0.1933,0.2562,0.0123,0.0752,0.2746,0.0138,-0.2286,0.224,0.227,0.0537,0.1243,-0.0496,-0.0772,0.2923,-0.0762,-0.0901,0.299,0.0036,-0.1726,0.2923,0.0491,-0.0999,0.3001,-0.1273,-0.2438,0.1901,0.2115,-0.0042,-0.0202,-0.0031,-0.0105,-0.0024,-0.003,-0.0024,-0.1064,0.0842,-0.5252,0.081,0.0635,-0.5231,0.1843,0.1469,-0.541,0.0338,0.1554,-0.5217,0.0472,0.0775,-0.5788,0.4152,0.3136,-0.844,0.0,0.0,0.0,0.0,0.0,0.0,0.0,0.0,0.0,
0.6,run,-0.04,3.03,-0.02,-0.02,-0.93,0.0,0.0,0.0,0.039,-3.96,-1.32,17.75,3.08,-1.58,18.63,6.06,-13.54,17.31,0.97,1.41,18.54,0.44,-15.56,15.64,14.68,1.05,4.92,-3.88,-11.53,23.36,1.76,-11.37,19.33,7.55,-18.5,21.25,2.15,-9.53,20.0,2.92,-20.58,18.13,15.53,-5.86,-6.06,-0.1109,0.0349,-0.4729,0.0503,0.0362,-0.5372,0.2157,0.1148,-0.5147,0.0613,0.1624,-0.5294,0.0834,0.0437,-0.5514,0.4438,0.3479,-0.8477,0.006,0.026,0.006,0.006,0.033,0.006,0.006,0.026,0.019,0.026,0.026,0.0,0.019,0.039,0.013,0.013,0.039,0.013,-0.0614,-0.0077,0.2853,0.0644,-0.0015,0.2991,0.0936,-0.2148,0.2777,0.023,0.0506,0.2991,0.0092,-0.2516,0.2454,0.2378,0.0368,0.1043,-0.0175,-0.1404,0.2967,-0.0649,-0.1494,0.3014,0.0198,-0.2014,0.2852,0.0747,-0.1621,0.3022,-0.1064,-0.257,0.2137,0.1884,-0.0662,-0.089,-0.0022,-0.0109,-0.0027,-0.0026,-0.0037,-0.1107,0.0572,-0.4984,0.0678,0.0463,-0.5274,0.2008,0.1312,-0.5295,0.0461,0.1599,-0.5238,0.0645,0.0596,-0.5618,0.4317,0.3304,-0.8446,0.0,0.0,0.0,0.0,0.0,0.0,0.0,0.0,0.0,
0.64,run,-0.05,3.01,-0.53,-0.14,1.9,0.0,0.0,0.0,0.039,-3.96,-2.72,19.34,2.46,-3.08,19.51,6.68,-14.94,18.46,1.85,0.0,19.51,1.14,-17.05,16.17,14.68,-0.35,3.52,-3.66,-13.03,24.86,1.11,-12.87,18.22,8.08,-19.8,22.41,2.66,-11.03,18.96,3.55,-22.08,18.45,16.0,-4.56,-7.44,-0.1047,0.0156,-0.4508,0.0316,0.0261,-0.5503,0.2308,0.0946,-0.501,0.0761,0.173,-0.5417,0.1016,0.0214,-0.5476,0.4571,0.3717,-0.8522,0.006,0.026,0.006,0.006,0.033,0.006,0.006,0.026,0.019,0.026,0.026,0.0,0.019,0.039,0.013,0.013,0.039,0.013,-0.069,-0.0322,0.3068,0.0568,-0.0261,0.3221,0.1089,-0.2393,0.2945,0.0184,0.0261,0.3221,0.0092,-0.273,0.27,0.2562,0.0138,0.0813,-0.0411,-0.1906,0.2885,-0.0743,-0.1969,0.2975,0.0715,-0.2333,0.2631,0.035,-0.2058,0.2981,-0.0745,-0.2607,0.2419,0.2011,-0.1329,-0.1488,-0.0024,-0.0122,-0.0004,-0.0003,-0.0162,-0.1109,0.0349,-0.4729,0.0503,0.0362,-0.5372,0.2157,0.1148,-0.5147,0.0613,0.1624,-0.5294,0.0834,0.0437,-0.5514,0.4438,0.3479,-0.8477,0.0,0.0,0.0,0.0,0.0,0.0,0.0,0.0,0.0,
0.68,run,-0.05,3.03,0.21,-0.03,-1.83,0.0,0.0,0.0,0.039,-3.87,-4.04,20.65,1.93,-4.48,20.13,7.21,-16.44,19.6,2.2,-1.41,20.21,2.02,-18.46,17.58,15.64,-1.67,2.11,-3.58,-14.53,26.36,0.48,-14.37,17.5,8.66,-20.4,23.72,3.27,-12.53,18.78,4.13,-23.58,19.95,16.41,-3.48,-7.23,-0.1023,0.0006,-0.422,0.0136,0.0266,-0.5588,0.2474,0.0836,-0.4857,0.0933,0.1819,-0.5438,0.118,0.0094,-0.5224,0.4688,0.3913,-0.8497,0.006,0.026,0.006,0.006,0.033,0.006,0.006,0.026,0.019,0.026,0.026,0.0,0.019,0.039,0.013,0.013,0.039,0.013,-0.069,-0.0568,0.3344,0.046,-0.0522,0.3375,0.1197,-0.2638,0.3145,0.0337,0.0015,0.339,0.0215,-0.2991,0.2792,0.2562,-0.0107,0.0568,-0.0287,-0.2249,0.3049,-0.092,-0.2351,0.2655,0.0901,-0.2548,0.2585,0.0817,-0.2355,0.2716,-0.0064,-0.2797,0.2036,0.1408,-0.1846,-0.1957,-0.0037,-0.0135,-0.0092,-0.0025,0.0331,-0.1047,0.0156,-0.4508,0.0316,0.0261,-0.5503,0.2308,0.0946,-0.501,0.0761,0.173,-0.5417,0.1016,0.0214,-0.5476,0.4571,0.3717,-0.8522,0.0,0.0,0.0,0.0,0.0,0.0,0.0,0.0,0.0,
0.72,run,-0.05,3.03,-0.21,-0.02,0.83,0.0,0.0,0.0,0.039,-3.52,-5.54,22.06,1.41,-5.89,20.48,7.82,-17.67,20.74,2.55,-2.81,20.39,2.9,-19.78,18.19,16.08,-2.81,0.7,-3.41,-16.03,27.86,-0.34,-15.87,16.53,9.1,-21.9,25.22,4.06,-14.03,17.72,4.76,-25.08,21.31,16.74,-2.06,-8.29,-0.0974,-0.0141,-0.3986,-0.0099,0.0185,-0.5702,0.2601,0.0542,-0.4677,0.1161,0.1897,-0.5562,0.136,-0.0157,-0.514,0.4782,0.4171,-0.8622,0.0,0.033,0.013,0.006,0.026,0.006,0.006,0.026,0.019,0.006,0.019,0.0,0.013,0.033,0.033,0.019,0.019,0.013,-0.0675,-0.0798,0.3574,0.0368,-0.0767,0.3482,0.1289,-0.2899,0.3344,0.0399,-0.023,0.3513,0.0368,-0.3237,0.3037,0.273,-0.0337,0.0322,-0.0144,-0.244,0.3,-0.0991,-0.2569,0.2262,0.0977,-0.2765,0.256,0.0803,-0.2572,0.2363,0.0533,-0.2882,0.2349,0.162,-0.2158,-0.2293,-0.0036,-0.0117,0.0036,-0.0005,-0.0319,-0.1023,0.0006,-0.422,0.0136,0.0266,-0.5588,0.2474,0.0836,-0.4857,0.0933,0.1819,-0.5438,0.118,0.0094,-0.5224,0.4688,0.3913,-0.8497,0.0,0.0,0.0,0.0,0.0,0.0,0.0,0.0,0.0,
0.76,run,-0.05,3.03,-0.47,-0.16,0.1,0.0,0.0,0.0,0.039,-3.6,-6.86,23.47,0.7,-7.29,20.3,8.35,-18.9,21.97,3.43,-4.31,20.57,3.69,-21.27,19.07,16.26,-3.69,-0.7,-3.3,-17.53,29.36,-1.14,-17.37,16.04,9.5,-23.21,26.57,4.78,-13.98,17.69,5.23,-26.58,22.79,17.04,-0.97,-8.19,-0.0944,-0.0301,-0.3703,-0.0327,0.0222,-0.576,0.2715,0.0326,-0.4521,0.1366,0.2004,-0.5565,0.1495,-0.0347,-0.4966,0.4868,0.437,-0.8611,0.0,0.033,0.013,0.006,0.026,0.006,0.006,0.026,0.019,0.006,0.019,0.0,0.013,0.033,0.033,0.019,0.019,0.013,-0.0614,-0.1058,0.382,0.0276,-0.1012,0.3543,0.1396,-0.3114,0.3543,0.046,-0.0476,0.3543,0.0522,-0.3467,0.3145,0.2807,-0.0537,0.0077,0.013,-0.2688,0.3022,-0.1039,-0.272,0.1814,0.1087,-0.2742,0.2541,0.0792,-0.2722,0.1769,0.0949,-0.2881,0.2048,0.1422,-0.2259,-0.2527,-0.0029,-0.0119,-0.0037,-0.0003,0.0146,-0.0974,-0.0141,-0.3986,-0.0099,0.0185,-0.5702,0.2601,0.0542,-0.4677,0.1161,0.1897,-0.5562,0.136,-0.0157,-0.514,0.4782,0.4171,-0.8622,0.0,0.0,0.0,0.0,0.0,0.0,0.0,0.0,0.0,
0.8,run,0.01,3.04,0.55,0.22,-0.7,0.0,0.0,0.0,0.039,-3.6,-8.35,24.87,0.0,-8.7,19.78,8.79,-20.21,23.12,3.87,-5.71,20.04,4.39,-22.68,20.83,17.05,-4.31,-2.2,-3.12,-19.03,30.86,-1.92,-18.87,15.62,9.95,-24.71,28.07,5.53,-13.58,17.43,5.75,-28.08,24.29,17.26,0.12,-8.72,-0.0891,-0.0446,-0.344,-0.0547,0.0271,-0.581,0.2842,0.0032,-0.4303,0.158,0.2076,-0.5597,0.1644,-0.0612,-0.471,0.4933,0.4568,-0.8673,0.0,0.033,0.013,0.006,0.026,0.006,0.006,0.026,0.019,0.006,0.019,0.0,0.013,0.033,0.033,0.019,0.019,0.013,-0.0629,-0.1289,0.4065,0.0153,-0.1258,0.3513,0.1488,-0.3329,0.3758,0.0614,-0.0736,0.3574,0.066,-0.3728,0.3298,0.2838,-0.069,-0.0169,0.0034,-0.2744,0.3035,-0.1187,-0.2824,0.1155,0.1106,-0.2724,0.2583,0.1129,-0.2883,0.1353,0.1182,-0.2994,0.2008,0.1111,-0.2156,-0.2689,-0.0031,-0.0118,-0.0081,-0.0029,0.0018,-0.0944,-0.0301,-0.3703,-0.0327,0.0222,-0.576,0.2715,0.0326,-0.4521,0.1366,0.2004,-0.5565,0.1495,-0.0347,-0.4966,0.4868,0.437,-0.8611,0.0,0.0,0.0,0.0,0.0,0.0,0.0,0.0,0.0,
0.84,run,-0.01,3.06,0.11,0.28,0.61,0.0,0.0,0.0,0.039,-2.99,-9.76,26.46,-0.62,-10.11,18.9,9.32,-21.53,24.43,4.66,-7.12,19.07,5.1,-23.99,21.53,16.79,-4.48,-3.6,-2.91,-20.53,32.36,-2.72,-20.37,14.92,10.34,-26.21,29.57,6.33,-13.07,16.66,6.28,-29.58,25.79,17.49,1.26,-9.49,-0.0833,-0.0599,-0.3233,-0.0779,0.0327,-0.5891,0.2954,-0.0359,-0.4053,0.181,0.2169,-0.5687,0.1795,-0.0934,-0.4506,0.4996,0.4774,-0.8764,0.006,0.026,0.013,0.013,0.026,0.013,0.006,0.026,0.019,0.006,0.026,0.013,0.006,0.033,0.013,0.026,0.0,0.013,-0.0629,-0.1549,0.431,0.0031,-0.1503,0.3421,0.1565,-0.3559,0.3958,0.069,-0.0982,0.3482,0.0782,-0.3973,0.3605,0.2976,-0.0798,-0.043,0.0023,-0.2897,0.3044,-0.1291,-0.2896,0.0464,0.1061,-0.2769,0.2555,0.1078,-0.2937,0.0603,0.1287,-0.3015,0.2555,0.1294,-0.1912,-0.2859,0.0015,-0.0106,0.0096,0.0038,-0.0122,-0.0891,-0.0446,-0.344,-0.0547,0.0271,-0.581,0.2842,0.0032,-0.4303,0.158,0.2076,-0.5597,0.1644,-0.0612,-0.471,0.4933,0.4568,-0.8673,0.0,0.0,0.0,0.0,0.0,0.0,0.0,0.0,0.0,
0.88,run,-0.03,3.06,-0.07,-0.03,-0.81,0.0,0.0,0.0,0.039,-3.08,-11.16,27.77,-1.49,-11.51,17.75,9.76,-22.85,25.66,5.45,-8.53,18.11,5.62,-25.49,23.2,17.4,-4.48,-4.92,-2.79,-22.03,33.86,-3.63,-21.87,14.77,10.71,-27.71,31.07,7.07,-12.78,17.0,6.7,-31.08,27.29,17.7,2.16,-9.66,-0.0797,-0.0722,-0.296,-0.1036,0.0469,-0.5909,0.3061,-0.0659,-0.3792,0.2019,0.2222,-0.5647,0.1914,-0.1178,-0.4201,0.5059,0.4937,-0.8783,0.006,0.026,0.013,0.013,0.026,0.013,0.006,0.026,0.019,0.006,0.026,0.013,0.006,0.033,0.013,0.026,0.0,0.013,-0.0522,-0.1795,0.4587,-0.0077,-0.1749,0.3267,0.1657,-0.3789,0.4188,0.0828,-0.1227,0.3313,0.0905,-0.4203,0.3728,0.293,-0.0828,-0.0675,0.042,-0.2949,0.3167,-0.1306,-0.2948,-0.0251,0.1088,-0.2802,0.2652,0.1273,-0.2977,-0.0212,0.1361,-0.2974,0.2249,0.0733,-0.1453,-0.2922,0.0003,-0.0092,0.0019,0.0049,0.0106,-0.0833,-0.0599,-0.3233,-0.0779,0.0327,-0.5891,0.2954,-0.0359,-0.4053,0.181,0.2169,-0.5687,0.1795,-0.0934,-0.4506,0.4996,0.4774,-0.8764,0.0,0.0,0.0,0.0,0.0,0.0,0.0,0.0,0.0,
0.92,run,-0.04,3.08,-0.28,-0.03,0.86,0.0,0.0,0.0,0.039,-3.08,-12.57,29.18,-2.11,-13.01,16.52,10.11,-24.26,26.98,6.06,-9.84,17.31,6.15,-26.98,24.43,17.67,-4.04,-6.33,-2.52,-23.53,35.36,-4.32,-21.9,14.2,11.1,-29.21,32.57,7.78,-12.38,16.25,7.16,-32.58,28.79,17.87,3.1,-10.56,-0.0721,-0.0831,-0.2786,-0.1235,0.0563,-0.5977,0.3172,-0.1062,-0.3476,0.2224,0.2295,-0.5736,0.2045,-0.151,-0.3904,0.5105,0.5108,-0.889,0.006,0.026,0.013,0.013,0.026,0.013,0.006,0.026,0.019,0.006,0.026,0.013,0.006,0.033,0.013,0.026,0.0,0.013,-0.0537,-0.204,0.4817,-0.023,-0.1994,0.3068,0.1733,-0.4019,0.4403,0.0966,-0.1473,0.3145,0.0997,-0.4464,0.4019,0.3037,-0.0828,-0.0905,0.0236,-0.2985,0.308,-0.149,-0.2985,-0.0924,0.105,-0.2825,0.2662,0.1409,-0.3005,-0.0781,0.1298,-0.306,0.2668,0.0916,-0.1017,-0.2909,-0.0012,-0.0089,-0.0012,-0.0006,-0.0142,-0.0797,-0.0722,-0.296,-0.1036,0.0469,-0.5909,0.3061,-0.0659,-0.3792,0.2019,0.2222,-0.5647,0.1914,-0.1178,-0.4201,0.5059,0.4937,-0.8783,0.0,0.0,0.0,0.0,0.0,0.0,0.0,0.0,0.0,
0.96,run,-0.01,3.1,0.48,0.42,-0.27,0.0,0.0,0.0,0.039,-2.29,-13.97,30.59,-2.99,-14.41,15.56,10.55,-25.66,28.39,6.77,-10.99,16.7,6.68,-28.39,25.75,17.58,-3.25,-7.65,-2.28,-25.03,36.86,-4.98,-21.11,13.88,11.45,-30.71,34.07,8.28,-11.97,16.08,7.5,-34.08,30.29,18.03,3.98,-10.86,-0.0652,-0.0932,-0.2603,-0.1422,0.0707,-0.6014,0.3273,-0.1402,-0.3185,0.2366,0.2368,-0.5756,0.2141,-0.178,-0.3606,0.5151,0.5269,-0.8925,0.006,0.026,0.013,0.013,0.026,0.019,0.006,0.026,0.019,0.013,0.019,0.006,0.013,0.033,0.013,0.006,0.019,0.006,-0.0537,-0.2286,0.5062,-0.0337,-0.2255,0.2853,0.1795,-0.4264,0.4633,0.1074,-0.1703,0.3007,0.1089,-0.4725,0.4234,0.3083,-0.0752,-0.115,0.0165,-0.3011,0.3077,-0.1446,-0.3068,-0.1453,0.0965,-0.2899,0.2727,0.1389,-0.2967,-0.1065,0.1254,-0.3121,0.2674,0.0814,-0.0424,-0.2958,-0.0021,-0.0073,-0.0049,-0.0006,0.015,-0.0721,-0.0831,-0.2786,-0.1235,0.0563,-0.5977,0.3172,-0.1062,-0.3476,0.2224,0.2295,-0.5736,0.2045,-0.151,-0.3904,0.5105,0.5108,-0.889,0.0,0.0,0.0,0.0,0.0,0.0,0.0,0.0,0.0,
1.0,run,-0.0,3.08,0.08,-0.16,-0.86,0.0,0.0,0.0,0.039,-2.37,-15.47,31.99,-3.78,-15.82,14.68,10.9,-27.07,29.79,7.56,-11.87,16.17,7.12,-29.71,27.25,17.93,-2.11,-8.88,-2.14,-26.53,38.36,-5.59,-20.35,13.86,11.72,-32.21,35.57,8.77,-11.65,15.69,7.76,-35.58,31.79,18.15,4.65,-11.41,-0.061,-0.1,-0.2452,-0.1597,0.0846,-0.6016,0.3348,-0.1728,-0.2898,0.2506,0.2428,-0.5801,0.2218,-0.2016,-0.3317,0.5186,0.5392,-0.8989,0.006,0.026,0.013,0.013,0.026,0.019,0.006,0.026,0.019,0.013,0.019,0.006,0.013,0.033,0.013,0.006,0.019,0.006,-0.0399,-0.2531,0.5308,-0.0491,-0.25,0.2684,0.1871,-0.451,0.4878,0.1197,-0.1902,0.2899,0.1181,-0.497,0.4464,0.3068,-0.0614,-0.1381,0.0634,-0.3029,0.3075,-0.1588,-0.3069,-0.165,0.0963,-0.295,0.283,0.1433,-0.2825,-0.1148,0.1223,-0.3106,0.2735,0.0512,0.0221,-0.2934,0.0002,-0.006,0.0084,0.0074,-0.0048,-0.0652,-0.0932,-0.2603,-0.1422,0.0707,-0.6014,0.3273,-0.1402,-0.3185,0.2366,0.2368,-0.5756,0.2141,-0.178,-0.3606,0.5151,0.5269,-0.8925,0.0,0.0,0.0,0.0,0.0,0.0,0.0,0.0,0.0,
1.04,run,-0.04,3.06,-0.85,-0.58,1.55,0.0,0.0,0.0,0.039,-2.46,-16.88,33.4,-4.48,-17.14,14.15,11.16,-28.48,31.2,8.09,-12.39,16.0,7.47,-31.2,28.48,18.02,-0.7,-9.76,-1.93,-28.03,39.86,-6.06,-19.59,13.57,12.05,-33.71,37.07,9.13,-11.21,15.05,7.94,-37.08,33.29,18.23,5.33,-12.06,-0.0552,-0.1071,-0.2332,-0.173,0.0984,-0.6051,0.3442,-0.2066,-0.2606,0.2608,0.2507,-0.5876,0.2269,-0.2245,-0.3052,0.5207,0.5514,-0.9066,0.006,0.026,0.013,0.013,0.026,0.019,0.006,0.026,0.019,0.013,0.019,0.006,0.013,0.033,0.013,0.006,0.019,0.006,-0.0414,-0.2792,0.5553,-0.0629,-0.2746,0.2531,0.1933,-0.4755,0.5123,0.1335,-0.2056,0.2807,0.1258,-0.52,0.4725,0.3129,-0.0414,-0.1595,0.0386,-0.3096,0.3071,-0.1628,-0.3066,-0.1729,0.0904,-0.2983,0.2899,0.152,-0.2552,-0.1148,0.1143,-0.3035,0.289,0.0588,0.0901,-0.2857,0.0007,-0.0076,0.0015,-0.0027,-0.015,-0.061,-0.1,-0.2452,-0.1597,0.0846,-0.6016,0.3348,-0.1728,-0.2898,0.2506,0.2428,-0.5801,0.2218,-0.2016,-0.3317,0.5186,0.5392,-0.8989,0.0,0.0,0.0,0.0,0.0,0.0,0.0,0.0,0.0,
1.08,run,-0.01,3.09,0.66,0.52,-1.17,0.0,0.0,0.0,0.039,-1.67,-18.28,34.89,-5.19,-18.37,13.71,11.51,-29.88,32.61,8.61,-12.57,15.38,7.73,-32.61,29.97,18.11,0.62,-10.63,-1.81,-29.53,41.36,-6.44,-18.62,13.5,12.32,-35.21,38.57,9.32,-10.72,14.76,7.91,-38.22,34.79,18.27,5.95,-12.36,-0.0516,-0.1154,-0.2203,-0.1839,0.1159,-0.6059,0.352,-0.2358,-0.2364,0.2664,0.2596,-0.5911,0.226,-0.2404,-0.2839,0.5219,0.5628,-0.9101,0.006,0.026,0.013,0.006,0.019,0.006,0.006,0.033,0.019,0.006,0.006,0.006,0.006,0.026,0.006,0.006,0.006,0.006,-0.043,-0.3037,0.5798,-0.0752,-0.2976,0.2439,0.1979,-0.5001,0.5369,0.1427,-0.2148,0.2777,0.1319,-0.5461,0.4939,0.3145,-0.0169,-0.1749,0.0213,-0.3088,0.307,-0.16,-0.301,-0.1556,0.0805,-0.3009,0.295,0.1409,-0.2131,-0.0919,0.1031,-0.3103,0.2829,0.0469,0.1551,-0.2575,-0.0024,-0.0089,-0.0148,-0.0102,0.0271,-0.0552,-0.1071,-0.2332,-0.173,0.0984,-0.6051,0.3442,-0.2066,-0.2606,0.2608,0.2507,-0.5876,0.2269,-0.2245,-0.3052,0.5207,0.5514,-0.9066,0.0,0.0,0.0,0.0,0.0,0.0,0.0,0.0,0.0,
1.12,run,-0.02,3.07,-0.42,-0.37,0.52,0.0,0.0,0.0,0.039,-1.85,-19.69,36.3,-5.8,-19.25,13.62,11.87,-31.29,33.93,9.14,-12.57,14.94,7.82,-34.01,31.38,18.19,2.11,-11.43,-1.68,-31.03,42.86,-6.87,-17.58,13.26,12.47,-36.71,40.07,9.67,-10.08,13.87,7.96,-39.28,36.29,18.28,6.48,-13.06,-0.0481,-0.1192,-0.2114,-0.1962,0.1348,-0.6087,0.3562,-0.2701,-0.2096,0.2764,0.2713,-0.6015,0.2275,-0.2597,-0.265,0.5222,0.5724,-0.9183,0.006,0.026,0.013,0.006,0.019,0.006,0.006,0.033,0.019,0.006,0.006,0.006,0.006,0.026,0.006,0.006,0.006,0.006,-0.0291,-0.3283,0.6059,-0.0874,-0.3191,0.2362,0.204,-0.5246,0.5614,0.1519,-0.2178,0.2669,0.1365,-0.5706,0.52,0.316,0.0061,-0.1902,0.0667,-0.3083,0.3129,-0.1581,-0.2913,-0.1377,0.0794,-0.3028,0.2987,0.1332,-0.1607,-0.1046,0.0894,-0.3094,0.2959,0.0386,0.195,-0.2379,0.0004,-0.0069,0.0115,0.0091,-0.0203,-0.0516,-0.1154,-0.2203,-0.1839,0.1159,-0.6059,0.352,-0.2358,-0.2364,0.2664,0.2596,-0.5911,0.226,-0.2404,-0.2839,0.5219,0.5628,-0.9101,0.0,0.0,0.0,0.0,0.0,0.0,0.0,0.0,0.0,
1.16,run,-0.04,3.07,-0.46,-0.16,1.84,0.0,0.0,0.0,0.039,-2.02,-21.09,37.71,-6.24,-19.78,13.45,12.13,-32.7,35.42,9.14,-12.04,14.77,7.73,-35.51,32.78,18.19,3.52,-12.04,-1.57,-32.0,44.36,-7.16,-16.44,13.08,12.71,-38.21,41.57,9.84,-9.4,13.32,7.82,-39.93,37.79,18.2,6.96,-13.37,-0.0449,-0.1272,-0.2006,-0.2046,0.1556,-0.6108,0.3632,-0.3002,-0.1867,0.2812,0.2837,-0.608,0.2234,-0.2715,-0.2496,0.5199,0.5811,-0.922,0.006,0.026,0.013,0.006,0.019,0.006,0.006,0.033,0.019,0.006,0.006,0.006,0.006,0.026,0.006,0.006,0.006,0.006,-0.0322,-0.3528,0.6305,-0.0982,-0.3344,0.2347,0.2102,-0.5492,0.5844,0.1611,-0.2178,0.2592,0.1381,-0.5952,0.5446,0.3175,0.0322,-0.204,0.0352,-0.3078,0.311,-0.1509,-0.2614,-0.1021,0.0786,-0.304,0.2953,0.1277,-0.1125,-0.102,0.0683,-0.3086,0.2992,0.0328,0.2343,-0.2183,-0.0007,-0.008,-0.0073,-0.0065,0.0091,-0.0481,-0.1192,-0.2114,-0.1962,0.1348,-0.6087,0.3562,-0.2701,-0.2096,0.2764,0.2713,-0.6015,0.2275,-0.2597,-0.265,0.5222,0.5724,-0.9183,0.0,0.0,0.0,0.0,0.0,0.0,0.0,0.0,0.0,
1.2,run,-0.02,3.1,0.54,0.5,-1.83,0.0,0.0,0.0,0.039,-1.23,-22.5,39.11,-6.68,-20.04,13.1,12.3,-34.1,36.91,9.67,-11.16,13.97,7.82,-36.83,34.19,18.19,4.66,-12.66,-1.46,-32.48,45.86,-7.4,-15.08,12.81,12.89,-39.71,43.07,9.93,-8.47,12.45,7.61,-40.59,39.29,18.12,7.54,-13.64,-0.0417,-0.1361,-0.1897,-0.2115,0.1804,-0.614,0.3684,-0.3331,-0.163,0.2837,0.3006,-0.6182,0.2175,-0.2835,-0.236,0.5178,0.5916,-0.9252,0.0,0.019,0.013,0.006,0.0,0.006,0.006,0.033,0.026,0.0,0.0,0.006,0.006,0.026,0.006,0.0,0.006,0.006,-0.0353,-0.3774,0.655,-0.1058,-0.3436,0.2316,0.2148,-0.5737,0.6105,0.1611,-0.2086,0.2562,0.1365,-0.6213,0.5691,0.3175,0.0568,-0.2148,0.0132,-0.3074,0.3096,-0.1344,-0.2175,-0.083,0.0723,-0.3047,0.3044,0.0894,-0.0443,-0.0829,0.0421,-0.3137,0.3014,0.0229,0.2559,-0.193,-0.0027,-0.0079,-0.008,-0.0029,0.0322,-0.0449,-0.1272,-0.2006,-0.2046,0.1556,-0.6108,0.3632,-0.3002,-0.1867,0.2812,0.2837,-0.608,0.2234,-0.2715,-0.2496,0.5199,0.5811,-0.922,0.0,0.0,0.0,0.0,0.0,0.0,0.0,0.0,0.0,
1.24,run,-0.01,3.1,-0.47,-0.45,1.77,0.0,0.0,0.0,0.039,-1.85,-23.91,40.52,-7.03,-20.13,13.01,12.57,-35.6,38.23,9.76,-10.2,13.27,7.73,-37.88,35.68,18.19,5.71,-13.18,-1.34,-32.57,47.36,-7.66,-13.77,12.47,12.95,-41.21,44.57,10.21,-7.51,11.37,7.57,-41.52,40.79,17.95,7.82,-14.18,-0.0382,-0.1377,-0.18,-0.219,0.2042,-0.618,0.37,-0.3669,-0.1348,0.2917,0.3181,-0.631,0.2162,-0.3004,-0.2186,0.5128,0.5967,-0.9315,0.0,0.019,0.013,0.006,0.0,0.006,0.006,0.033,0.026,0.0,0.0,0.006,0.006,0.026,0.006,0.0,0.006,0.006,-0.0215,-0.4019,0.6796,-0.1135,-0.3482,0.2255,0.2178,-0.5983,0.6366,0.1703,-0.1933,0.2424,0.1381,-0.6443,0.5937,0.3175,0.0767,-0.2255,0.0608,-0.3068,0.3084,-0.1227,-0.1694,-0.081,0.062,-0.3049,0.3105,0.097,0.0263,-0.1096,0.0352,-0.3055,0.3026,0.0161,0.2536,-0.1752,-0.0003,-0.0059,0.0095,0.0087,-0.0319,-0.0417,-0.1361,-0.1897,-0.2115,0.1804,-0.614,0.3684,-0.3331,-0.163,0.2837,0.3006,-0.6182,0.2175,-0.2835,-0.236,0.5178,0.5916,-0.9252,0.0,0.0,0.0,0.0,0.0,0.0,0.0,0.0,0.0,
1.28,run,-0.06,3.09,-0.96,-0.43,-0.13,0.0,0.0,0.0,0.039,-1.41,-25.31,41.92,-7.29,-19.86,12.74,12.66,-37.0,39.64,9.84,-9.32,12.57,7.56,-38.94,37.09,18.11,6.59,-13.45,-1.14,-33.11,48.86,-7.87,-12.32,12.0,13.21,-42.71,46.07,10.27,-6.47,10.34,7.44,-42.04,42.29,17.79,8.22,-14.35,-0.0327,-0.1474,-0.1701,-0.2247,0.2306,-0.6235,0.3775,-0.3982,-0.111,0.2934,0.3369,-0.6431,0.2125,-0.3099,-0.2005,0.5084,0.604,-0.9336,0.0,0.019,0.013,0.006,0.0,0.006,0.006,0.033,0.026,0.0,0.0,0.006,0.006,0.026,0.006,0.0,0.006,0.006,-0.0322,-0.4264,0.7041,-0.1197,-0.3497,0.224,0.2224,-0.6243,0.6596,0.1718,-0.1764,0.2301,0.1365,-0.6627,0.6197,0.3175,0.0951,-0.2347,0.0022,-0.3069,0.308,-0.1089,-0.1243,-0.0625,0.0607,-0.3113,0.3037,0.0736,0.0817,-0.1227,0.0189,-0.2829,0.3097,0.0112,0.2466,-0.1572,-0.0,-0.0053,-0.0082,-0.0079,0.0308,-0.0382,-0.1377,-0.18,-0.219,0.2042,-0.618,0.37,-0.3669,-0.1348,0.2917,0.3181,-0.631,0.2162,-0.3004,-0.2186,0.5128,0.5967,-0.9315,0.0,0.0,0.0,0.0,0.0,0.0,0.0,0.0,0.0,
1.32,run,-0.02,3.12,0.6,0.58,-0.01,0.0,0.0,0.0,0.045,-0.88,-26.81,43.33,-7.56,-18.9,12.3,12.83,-38.32,41.04,10.11,-8.35,11.69,7.47,-39.9,38.41,17.67,7.29,-13.97,-0.92,-33.34,50.36,-8.12,-11.0,11.71,13.32,-44.21,47.57,10.5,-5.45,9.27,7.49,-42.84,43.79,17.6,8.47,-14.64,-0.0262,-0.1516,-0.1613,-0.232,0.2545,-0.6269,0.3806,-0.4286,-0.0814,0.3001,0.3555,-0.6556,0.214,-0.3243,-0.1805,0.503,0.6086,-0.937,0.006,0.019,0.013,0.006,0.006,0.006,0.006,0.026,0.026,0.006,0.006,0.013,0.0,0.045,0.019,0.006,0.006,0.0,-0.0245,-0.451,0.7286,-0.1243,-0.3451,0.2194,0.224,-0.6489,0.6842,0.1733,-0.1611,0.2178,0.1335,-0.6811,0.6443,0.316,0.1104,-0.2393,0.0303,-0.3068,0.3076,-0.0935,-0.0698,-0.061,0.0482,-0.3099,0.3045,0.0573,0.1147,-0.1319,0.0017,-0.267,0.3087,0.0021,0.2301,-0.1273,-0.0044,-0.007,-0.0168,-0.0075,-0.0022,-0.0327,-0.1474,-0.1701,-0.2247,0.2306,-0.6235,0.3775,-0.3982,-0.111,0.2934,0.3369,-0.6431,0.2125,-0.3099,-0.2005,0.5084,0.604,-0.9336,0.0,0.0,0.0,0.0,0.0,0.0,0.0,0.0,0.0,
1.36,run,0.21,3.28,1.16,0.74,-1.48,0.0,0.0,0.0,0.045,-0.44,-32.7,50.1,-8.26,-12.13,11.6,13.27,-44.56,47.55,10.81,-4.57,8.53,7.47,-42.98,44.82,17.23,8.7,-14.77,-0.72,-33.69,51.86,-8.36,-9.5,11.41,13.42,-45.71,49.07,10.86,-4.4,8.36,7.51,-43.76,45.29,17.32,8.75,-14.96,-0.0207,-0.1579,-0.1509,-0.2389,0.2818,-0.6305,0.3835,-0.4591,-0.0547,0.3103,0.3745,-0.6664,0.2146,-0.3411,-0.1577,0.4949,0.6136,-0.9407,0.0,0.019,0.0,0.0,0.0,0.006,0.006,0.019,0.013,0.006,0.0,0.0,0.0,0.045,0.0,0.0,0.0,0.006,-0.0153,-0.4771,0.7532,-0.1289,-0.3283,0.2117,0.227,-0.6719,0.7087,0.1779,-0.1442,0.2025,0.1319,-0.698,0.6673,0.3083,0.1227,-0.2485,0.0559,-0.313,0.3077,-0.0828,0.0147,-0.0716,0.0453,-0.3036,0.3056,0.0574,0.1438,-0.1501,-0.0046,-0.2505,0.3028,-0.0274,0.2073,-0.1238,-0.0003,-0.0036,0.0104,0.0101,-0.0001,-0.0262,-0.1516,-0.1613,-0.232,0.2545,-0.6269,0.3806,-0.4286,-0.0814,0.3001,0.3555,-0.6556,0.214,-0.3243,-0.1805,0.503,0.6086,-0.937,0.0,0.0,0.0,0.0,0.0,0.0,0.0,0.0,0.0,
1.4,run,0.19,3.31,-0.78,-0.36,1.2,0.0,0.0,0.0,0.045,-0.79,-32.96,50.71,-8.26,-11.34,11.51,13.27,-45.0,48.08,10.81,-4.48,8.44,7.47,-42.98,44.82,17.23,8.7,-14.77,0.38,-32.84,51.97,-7.89,-8.0,9.91,13.97,-47.21,50.57,11.25,-2.9,6.86,7.95,-45.26,46.79,16.99,9.32,-15.37,0.0108,-0.1425,-0.1532,-0.2255,0.3763,-0.6746,0.3991,-0.5562,0.0479,0.3214,0.4512,-0.7291,0.2272,-0.4106,-0.0628,0.4854,0.624,-0.9455,0.0,0.019,0.0,0.0,0.0,0.006,0.006,0.019,0.013,0.006,0.0,0.0,0.0,0.045,0.0,0.0,0.0,0.006,-0.0077,-0.5798,0.8713,-0.1411,-0.2102,0.1994,0.2347,-0.7808,0.8222,0.1902,-0.0782,0.1473,0.1319,-0.7517,0.7793,0.3007,0.1473,-0.2623,0.0448,-0.2953,0.303,-0.067,0.0979,-0.0592,0.0374,-0.2933,0.2981,0.0493,0.1496,-0.146,-0.0032,-0.2152,0.295,-0.0249,0.1633,-0.0969,0.0192,0.01,0.0203,0.013,-0.0258,-0.0207,-0.1579,-0.1509,-0.2389,0.2818,-0.6305,0.3835,-0.4591,-0.0547,0.3103,0.3745,-0.6664,0.2146,-0.3411,-0.1577,0.4949,0.6136,-0.9407,0.0,0.0,0.0,0.0,0.0,0.0,0.0,0.0,0.0,
1.44,run,0.13,3.29,-0.92,-0.55,0.51,0.0,0.0,0.0,0.045,-0.79,-33.13,51.33,-8.26,-10.46,11.34,13.27,-45.35,48.52,10.81,-4.39,8.44,7.47,-42.98,45.09,17.23,8.7,-14.77,0.66,-34.34,53.47,-9.31,-6.5,9.53,14.08,-48.71,52.07,12.44,-1.4,5.36,8.49,-46.76,48.29,16.34,10.0,-16.58,0.0189,-0.1854,-0.1148,-0.2661,0.3797,-0.6526,0.4023,-0.5835,0.0685,0.3555,0.456,-0.7191,0.2426,-0.4206,-0.0436,0.4668,0.6364,-0.9598,0.0,0.019,0.0,0.0,0.0,0.006,0.006,0.019,0.013,0.006,0.0,0.0,0.0,0.045,0.0,0.0,0.0,0.006,-0.0138,-0.5844,0.882,-0.1411,-0.1963,0.1979,0.2347,-0.7885,0.8314,0.1902,-0.0767,0.1457,0.1319,-0.7517,0.7793,0.3007,0.1473,-0.2623,0.0019,-0.2288,0.2637,-0.0469,0.1348,-0.0488,0.0262,-0.2421,0.2529,0.0345,0.1121,-0.1096,-0.0022,-0.1506,0.2065,-0.0174,0.1143,-0.0678,0.0174,0.0126,-0.0136,-0.0063,0.021,0.0108,-0.1425,-0.1532,-0.2255,0.3763,-0.6746,0.3991,-0.5562,0.0479,0.3214,0.4512,-0.7291,0.2272,-0.4106,-0.0628,0.4854,0.624,-0.9455,0.0,0.0,0.0,0.0,0.0,0.0,0.0,0.0,0.0,
1.48,run,0.18,3.32,0.95,0.73,-0.94,0.0,0.0,0.0,0.091,0.09,-33.31,51.86,-8.26,-9.49,10.9,13.54,-45.88,49.04,11.34,-4.13,7.82,7.82,-43.51,45.97,16.79,8.96,-15.21,0.99,-35.09,54.97,-9.44,-5.0,8.95,14.0,-50.21,53.57,12.65,0.1,3.86,8.84,-48.26,49.79,16.16,9.9,-16.96,0.0283,-0.1835,-0.1122,-0.2698,0.3946,-0.6594,0.4,-0.6018,0.0888,0.3614,0.4675,-0.7303,0.2525,-0.4416,-0.0178,0.4618,0.6345,-0.9642,0.0,0.013,0.013,0.006,0.013,0.019,0.006,0.052,0.019,0.006,0.006,0.006,0.0,0.091,0.006,0.0,0.006,0.013,-0.0138,-0.5875,0.8928,-0.1411,-0.181,0.1948,0.2347,-0.7946,0.8391,0.1902,-0.0752,0.1457,0.1319,-0.7517,0.7839,0.3007,0.1473,-0.2623,0.0013,-0.1716,0.2245,-0.0329,0.1514,-0.0456,0.0183,-0.1923,0.2055,0.0242,0.0842,-0.0767,-0.0016,-0.1054,0.1617,-0.0122,0.08,-0.0475,0.0122,0.0111,-0.016,-0.0097,0.0088,0.0189,-0.1854,-0.1148,-0.2661,0.3797,-0.6526,0.4023,-0.5835,0.0685,0.3555,0.456,-0.7191,0.2426,-0.4206,-0.0436,0.4668,0.6364,-0.9598,0.0,0.0,0.0,0.0,0.0,0.0,0.0,0.0,0.0,
1.52,run,0.16,3.33,-0.85,-0.59,0.44,0.0,0.0,0.0,0.091,0.26,-33.49,52.56,-8.35,-8.26,10.11,13.71,-46.85,49.83,12.04,-3.43,7.03,8.53,-44.3,46.67,16.26,9.58,-15.91,1.16,-34.95,55.52,-9.38,-3.5,8.55,14.01,-51.71,55.07,12.9,1.16,2.36,9.09,-49.76,51.29,16.07,9.94,-17.08,0.0333,-0.1809,-0.1116,-0.2679,0.4077,-0.6641,0.4003,-0.6174,0.1044,0.3685,0.4757,-0.7374,0.2596,-0.4591,0.0014,0.459,0.6352,-0.9656,0.0,0.013,0.013,0.006,0.013,0.019,0.006,0.052,0.019,0.006,0.006,0.006,0.0,0.091,0.006,0.0,0.006,0.013,0.0015,-0.5906,0.902,-0.1411,-0.1641,0.1871,0.2393,-0.8038,0.8483,0.1994,-0.0706,0.135,0.1381,-0.7609,0.7992,0.293,0.1519,-0.27,0.0583,-0.1316,0.1915,-0.023,0.169,-0.0606,0.03,-0.169,0.1783,0.0513,0.0761,-0.0938,0.0218,-0.1082,0.1705,-0.0372,0.0732,-0.0619,0.0169,0.0136,0.0167,0.0127,-0.0163,0.0283,-0.1835,-0.1122,-0.2698,0.3946,-0.6594,0.4,-0.6018,0.0888,0.3614,0.4675,-0.7303,0.2525,-0.4416,-0.0178,0.4618,0.6345,-0.9642,0.0,0.0,0.0,0.0,0.0,0.0,0.0,0.0,0.0,
1.56,run,0.15,3.34,0.34,0.45,0.11,0.0,0.0,0.0,0.091,0.88,-34.1,53.53,-8.88,-6.94,9.32,13.71,-48.08,50.98,12.48,-2.46,5.98,8.61,-45.18,47.99,16.26,9.76,-16.44,1.43,-34.83,55.51,-9.2,-2.0,7.83,14.18,-53.21,56.57,12.93,1.82,1.41,9.26,-51.06,52.79,16.05,10.02,-16.81,0.0408,-0.1787,-0.1116,-0.2628,0.4229,-0.6726,0.4052,-0.6303,0.1233,0.3694,0.4876,-0.7482,0.2646,-0.4738,0.0262,0.4586,0.6367,-0.9625,0.0,0.013,0.013,0.006,0.013,0.019,0.006,0.052,0.019,0.006,0.006,0.006,0.0,0.091,0.006,0.0,0.006,0.013,0.0046,-0.5937,0.9143,-0.1427,-0.1427,0.1733,0.2424,-0.8207,0.8621,0.2117,-0.0583,0.1212,0.1503,-0.7747,0.8115,0.2838,0.1626,-0.2823,0.0524,-0.1037,0.1803,-0.0219,0.1993,-0.0944,0.0326,-0.1819,0.1768,0.0822,0.0995,-0.1177,0.0615,-0.1278,0.1656,-0.0607,0.0917,-0.0896,0.0154,0.0143,-0.0148,-0.0103,0.0076,0.0333,-0.1809,-0.1116,-0.2679,0.4077,-0.6641,0.4003,-0.6174,0.1044,0.3685,0.4757,-0.7374,0.2596,-0.4591,0.0014,0.459,0.6352,-0.9656,0.0,0.0,0.0,0.0,0.0,0.0,0.0,0.0,0.0,
1.6,run,0.16,3.37,0.6,0.1,-0.57,0.0,0.0,0.0,0.163,1.49,-34.45,54.32,-9.14,-5.71,8.61,13.8,-49.48,52.29,12.83,-1.32,4.66,9.05,-46.49,49.22,16.08,9.84,-16.79,1.67,-34.5,55.23,-9.05,-0.73,7.01,14.33,-54.71,58.07,13.13,2.56,0.41,9.54,-51.99,54.29,15.98,10.07,-16.71,0.0476,-0.1727,-0.1149,-0.2586,0.4413,-0.6822,0.4094,-0.6451,0.1449,0.3752,0.501,-0.7599,0.2727,-0.4907,0.0542,0.4567,0.6377,-0.9612,0.006,0.0,0.006,0.006,0.006,0.013,0.006,0.026,0.026,0.006,0.0,0.019,0.006,0.163,0.006,0.0,0.0,0.006,0.0153,-0.6044,0.9311,-0.1519,-0.1197,0.1595,0.2424,-0.8422,0.882,0.2194,-0.0414,0.1028,0.1519,-0.79,0.8345,0.2838,0.1657,-0.2915,0.0769,-0.1128,0.1894,-0.0498,0.2257,-0.1178,0.0228,-0.2078,0.1985,0.0863,0.1329,-0.1514,0.0488,-0.1469,0.2021,-0.0425,0.0757,-0.0972,0.0144,0.0153,0.006,0.0079,0.0019,0.0408,-0.1787,-0.1116,-0.2628,0.4229,-0.6726,0.4052,-0.6303,0.1233,0.3694,0.4876,-0.7482,0.2646,-0.4738,0.0262,0.4586,0.6367,-0.9625,0.0,0.0,0.0,0.0,0.0,0.0,0.0,0.0,0.0,
1.64,run,0.08,3.33,-1.38,-1.29,0.64,0.0,0.0,0.0,0.163,1.23,-34.45,55.02,-9.14,-4.31,7.91,14.06,-50.89,53.7,12.83,0.0,3.34,9.23,-47.9,50.98,16.08,9.93,-16.79,1.97,-34.08,54.84,-8.83,0.25,5.89,14.5,-56.21,59.57,13.2,3.37,-0.83,9.85,-52.95,55.79,16.03,10.19,-16.46,0.0562,-0.1651,-0.1196,-0.2522,0.4591,-0.6954,0.4143,-0.6609,0.1688,0.3771,0.5158,-0.7744,0.2813,-0.5082,0.0842,0.458,0.6399,-0.9583,0.006,0.0,0.006,0.006,0.006,0.013,0.006,0.026,0.026,0.006,0.0,0.019,0.006,0.163,0.006,0.0,0.0,0.006,0.0261,-0.6105,0.9449,-0.1565,-0.0982,0.1473,0.2439,-0.8667,0.905,0.2255,-0.0215,0.0798,0.1595,-0.813,0.856,0.2807,0.1672,-0.2976,0.0938,-0.1018,0.184,-0.052,0.2379,-0.1282,0.0217,-0.2368,0.2246,0.0832,0.1673,-0.1916,0.0627,-0.1885,0.2214,-0.0412,0.0587,-0.0909,0.0154,0.0178,0.0105,0.0018,-0.0099,0.0476,-0.1727,-0.1149,-0.2586,0.4413,-0.6822,0.4094,-0.6451,0.1449,0.3752,0.501,-0.7599,0.2727,-0.4907,0.0542,0.4567,0.6377,-0.9612,0.0,0.0,0.0,0.0,0.0,0.0,0.0,0.0,0.0,
1.68,run,0.12,3.35,1.02,0.54,-0.28,0.0,0.0,0.0,0.163,1.93,-34.45,55.2,-9.14,-2.99,7.21,14.06,-52.29,55.02,13.01,1.05,2.02,9.58,-49.22,52.03,16.08,10.02,-16.79,2.36,-33.56,54.15,-8.44,1.32,4.53,14.75,-57.71,61.07,13.01,4.27,-2.33,10.18,-53.91,57.29,16.1,10.23,-16.0,0.0675,-0.1556,-0.1276,-0.2411,0.4785,-0.7114,0.4213,-0.6753,0.1936,0.3717,0.5322,-0.7923,0.2909,-0.5256,0.1129,0.4599,0.6406,-0.9529,0.006,0.0,0.006,0.006,0.006,0.013,0.006,0.026,0.026,0.006,0.0,0.019,0.006,0.163,0.006,0.0,0.0,0.006,0.0215,-0.6105,0.9572,-0.1565,-0.0736,0.135,0.2485,-0.8912,0.9296,0.2255,0.0015,0.0568,0.1626,-0.8376,0.8866,0.2807,0.1687,-0.2976,0.0483,-0.0713,0.1751,-0.0364,0.2592,-0.136,0.0325,-0.2584,0.2499,0.0583,0.2039,-0.221,0.0555,-0.2246,0.2708,-0.0288,0.0469,-0.0636,0.0081,0.0143,-0.0241,-0.0224,0.0111,0.0562,-0.1651,-0.1196,-0.2522,0.4591,-0.6954,0.4143,-0.6609,0.1688,0.3771,0.5158,-0.7744,0.2813,-0.5082,0.0842,0.458,0.6399,-0.9583,0.0,0.0,0.0,0.0,0.0,0.0,0.0,0.0,0.0,
1.72,run,0.13,3.35,0.05,-0.05,0.6,0.0,0.0,0.0,0.163,2.2,-34.28,55.2,-9.05,-1.76,6.24,14.41,-53.79,56.43,12.92,2.11,0.7,9.93,-50.54,53.53,16.08,10.02,-16.52,2.61,-33.02,53.63,-8.14,2.28,3.57,14.85,-59.21,62.57,13.0,5.01,-3.38,10.53,-54.87,58.79,16.18,10.38,-15.9,0.0747,-0.1459,-0.1337,-0.2326,0.496,-0.7227,0.4242,-0.689,0.2126,0.3714,0.5457,-0.8045,0.3008,-0.543,0.1379,0.4624,0.6432,-0.9518,0.013,0.006,0.013,0.006,0.006,0.019,0.006,0.033,0.019,0.006,0.006,0.013,0.006,0.123,0.013,0.0,0.006,0.0,0.0337,-0.6105,0.9603,-0.1565,-0.0506,0.1227,0.2485,-0.9158,0.9526,0.2286,0.0199,0.0337,0.1687,-0.8606,0.905,0.2807,0.1703,-0.2976,0.0799,-0.0499,0.1341,-0.0255,0.2678,-0.1413,0.0228,-0.273,0.2613,0.0523,0.2119,-0.2411,0.0619,-0.2436,0.2587,-0.0202,0.0386,-0.0445,0.0116,0.0157,0.0177,0.0094,-0.0049,0.0675,-0.1556,-0.1276,-0.2411,0.4785,-0.7114,0.4213,-0.6753,0.1936,0.3717,0.5322,-0.7923,0.2909,-0.5256,0.1129,0.4599,0.6406,-0.9529,0.0,0.0,0.0,0.0,0.0,0.0,0.0,0.0,0.0,
1.76,run,0.09,3.32,-0.23,-0.03,1.37,0.0,0.0,0.0,0.163,1.93,-33.66,54.84,-8.88,-0.44,5.19,14.5,-55.2,57.92,12.92,3.16,-0.7,10.28,-51.86,55.11,16.08,10.2,-16.17,2.96,-32.28,52.75,-7.68,3.24,2.32,15.03,-60.71,64.07,12.72,5.85,-4.75,10.89,-55.62,60.29,16.31,10.43,-15.47,0.0847,-0.1323,-0.1442,-0.2193,0.5134,-0.7374,0.4295,-0.6992,0.2337,0.3635,0.5609,-0.8206,0.3111,-0.5567,0.1659,0.466,0.6441,-0.9467,0.013,0.006,0.013,0.006,0.006,0.019,0.006,0.033,0.019,0.006,0.006,0.013,0.006,0.123,0.013,0.0,0.006,0.0,0.0383,-0.6075,0.9603,-0.1549,-0.0291,0.1058,0.2546,-0.9419,0.9771,0.227,0.0383,0.0107,0.1749,-0.8836,0.9311,0.2807,0.1703,-0.293,0.0732,-0.0234,0.0939,-0.0121,0.2681,-0.1623,0.039,-0.289,0.275,0.0308,0.2174,-0.2551,0.0664,-0.2569,0.279,-0.0141,0.027,-0.0139,0.0122,0.0163,0.0009,-0.0009,0.0104,0.0747,-0.1459,-0.1337,-0.2326,0.496,-0.7227,0.4242,-0.689,0.2126,0.3714,0.5457,-0.8045,0.3008,-0.543,0.1379,0.4624,0.6432,-0.9518,0.0,0.0,0.0,0.0,0.0,0.0,0.0,0.0,0.0,
1.8,run,0.1,3.33,0.25,0.1,-1.28,0.0,0.0,0.0,0.163,3.16,-33.31,54.14,-8.35,0.7,4.22,14.77,-56.69,59.24,12.92,4.13,-2.02,10.46,-53.0,56.43,16.08,10.2,-16.08,3.3,-31.44,51.88,-7.12,4.24,1.07,15.23,-62.21,65.57,12.35,6.63,-6.02,11.27,-56.53,61.79,16.44,10.5,-15.05,0.0943,-0.1172,-0.1544,-0.2033,0.5317,-0.7521,0.435,-0.709,0.2535,0.353,0.5751,-0.8356,0.3219,-0.5733,0.1905,0.4698,0.6455,-0.9417,0.013,0.006,0.013,0.006,0.006,0.019,0.006,0.033,0.019,0.006,0.006,0.013,0.006,0.123,0.013,0.0,0.006,0.0,0.0337,-0.5967,0.9541,-0.1519,-0.0061,0.0874,0.2562,-0.9664,1.0032,0.227,0.0568,-0.0138,0.181,-0.9066,0.9587,0.2807,0.1733,-0.2869,0.034,0.0239,0.0427,0.0031,0.274,-0.1827,0.033,-0.2944,0.2904,0.0216,0.2213,-0.2707,0.0695,-0.2662,0.2989,-0.0099,0.0304,0.0133,0.0091,0.0137,-0.004,-0.0006,0.0239,0.0847,-0.1323,-0.1442,-0.2193,0.5134,-0.7374,0.4295,-0.6992,0.2337,0.3635,0.5609,-0.8206,0.3111,-0.5567,0.1659,0.466,0.6441,-0.9467,0.0,0.0,0.0,0.0,0.0,0.0,0.0,0.0,0.0,
1.84,run,0.06,3.31,-1.26,-0.88,0.85,0.0,0.0,0.0,0.163,2.9,-32.61,53.35,-7.82,1.85,3.16,14.85,-58.1,60.73,12.57,5.01,-3.25,10.99,-54.14,57.74,16.35,10.28,-15.56,3.57,-30.52,50.68,-6.58,5.09,-0.19,15.31,-63.71,67.07,12.08,7.33,-7.2,11.71,-57.17,63.29,16.62,10.38,-14.57,0.102,-0.1004,-0.1685,-0.1881,0.5471,-0.767,0.4375,-0.7162,0.2751,0.3451,0.5878,-0.8494,0.3346,-0.5849,0.2183,0.4749,0.6433,-0.9361,0.039,0.0,0.013,0.006,0.006,0.019,0.006,0.026,0.019,0.0,0.006,0.019,0.0,0.065,0.0,0.006,0.006,0.006,0.0552,-0.5906,0.9419,-0.1427,0.0138,0.0706,0.2608,-0.9925,1.0262,0.227,0.0736,-0.0368,0.1841,-0.9265,0.9817,0.2807,0.1733,-0.2853,0.1042,0.0397,-0.0161,0.0366,0.2665,-0.1911,0.0404,-0.3038,0.2895,0.0151,0.2181,-0.2757,0.0601,-0.261,0.2954,-0.0069,0.0213,0.0151,0.0094,0.0142,0.0044,0.0017,-0.0223,0.0943,-0.1172,-0.1544,-0.2033,0.5317,-0.7521,0.435,-0.709,0.2535,0.353,0.5751,-0.8356,0.3219,-0.5733,0.1905,0.4698,0.6455,-0.9417,0.0,0.0,0.0,0.0,0.0,0.0,0.0,0.0,0.0,
1.88,run,0.05,3.31,-0.34,-0.1,1.0,0.0,0.0,0.0,0.163,3.43,-31.9,52.47,-7.47,2.9,1.93,15.03,-59.59,62.14,12.04,5.89,-4.66,11.34,-55.11,59.33,16.52,10.28,-15.21,3.89,-29.65,49.69,-6.01,5.9,-1.37,15.49,-64.67,68.57,11.56,8.1,-8.34,12.06,-57.65,64.79,16.8,10.5,-14.05,0.1111,-0.0845,-0.1801,-0.1717,0.5619,-0.7808,0.4424,-0.7213,0.292,0.3302,0.6018,-0.8629,0.3447,-0.5937,0.241,0.4801,0.6454,-0.93,0.039,0.0,0.013,0.006,0.006,0.019,0.006,0.026,0.019,0.0,0.006,0.019,0.0,0.065,0.0,0.006,0.006,0.006,0.0506,-0.5783,0.9281,-0.1335,0.0337,0.0522,0.2623,-1.017,1.0523,0.2209,0.089,-0.0583,0.1933,-0.9465,1.0048,0.2853,0.1749,-0.2761,0.0557,0.0738,-0.063,0.0601,0.2613,-0.2027,0.034,-0.3046,0.3003,-0.0124,0.2101,-0.2734,0.0766,-0.2574,0.293,0.0124,0.0206,0.045,0.006,0.013,-0.022,-0.0154,0.0148,0.102,-0.1004,-0.1685,-0.1881,0.5471,-0.767,0.4375,-0.7162,0.2751,0.3451,0.5878,-0.8494,0.3346,-0.5849,0.2183,0.4749,0.6433,-0.9361,0.0,0.0,0.0,0.0,0.0,0.0,0.0,0.0,0.0,
1.92,run,0.07,3.31,0.34,0.19,-1.21,0.0,0.0,0.0,0.163,3.96,-31.11,51.59,-6.94,3.87,0.88,15.12,-61.0,63.54,11.95,6.68,-5.8,11.69,-55.9,60.64,16.61,10.28,-14.77,4.13,-28.61,48.35,-5.38,6.79,-2.63,15.6,-64.9,70.07,11.11,8.82,-9.48,12.47,-58.18,66.29,17.0,10.51,-13.55,0.1179,-0.0656,-0.1959,-0.1537,0.5779,-0.7957,0.4457,-0.7255,0.3086,0.3175,0.6148,-0.8763,0.3562,-0.6033,0.2649,0.4857,0.6456,-0.9241,0.039,0.0,0.013,0.006,0.006,0.019,0.006,0.026,0.019,0.0,0.006,0.019,0.0,0.065,0.0,0.006,0.006,0.006,0.0598,-0.566,0.9127,-0.1273,0.0522,0.0307,0.2654,-1.0431,1.0769,0.2117,0.1043,-0.0828,0.1994,-0.9633,1.0324,0.2884,0.1749,-0.27,0.0738,0.098,-0.102,0.0653,0.2524,-0.223,0.0354,-0.3117,0.3029,-0.0434,0.205,-0.2841,0.0768,-0.2439,0.3094,0.0203,0.0145,0.0547,0.005,0.0126,-0.006,-0.0018,0.0175,0.1111,-0.0845,-0.1801,-0.1717,0.5619,-0.7808,0.4424,-0.7213,0.292,0.3302,0.6018,-0.8629,0.3447,-0.5937,0.241,0.4801,0.6454,-0.93,0.0,0.0,0.0,0.0,0.0,0.0,0.0,0.0,0.0,
1.96,run,0.05,3.29,-0.21,-0.06,0.51,0.0,0.0,0.0,0.163,3.43,-30.23,50.62,-6.33,4.92,-0.35,15.21,-62.31,64.95,11.34,7.47,-7.12,12.13,-56.78,62.05,16.96,10.28,-14.24,4.34,-27.65,47.18,-4.77,7.47,-3.85,15.66,-65.14,71.57,10.67,9.35,-10.39,12.87,-58.77,67.79,17.18,10.5,-13.15,0.1239,-0.0481,-0.2096,-0.1362,0.5903,-0.81,0.4475,-0.7299,0.3237,0.3049,0.6246,-0.8869,0.3676,-0.6141,0.2839,0.4909,0.6454,-0.9195,0.019,0.006,0.013,0.006,0.006,0.013,0.006,0.026,0.019,0.0,0.0,0.013,0.006,0.039,0.006,0.0,0.0,0.006,0.069,-0.5522,0.8974,-0.1181,0.069,0.0123,0.2669,-1.0677,1.1014,0.2102,0.1181,-0.1028,0.2056,-0.9771,1.0554,0.2899,0.1749,-0.2623,0.0858,0.1198,-0.1283,0.0798,0.2392,-0.2243,0.0305,-0.3092,0.303,-0.0361,0.1947,-0.2728,0.0765,-0.2219,0.3019,0.0199,0.0101,0.0667,0.0069,0.0127,0.0059,0.0033,-0.0211,0.1179,-0.0656,-0.1959,-0.1537,0.5779,-0.7957,0.4457,-0.7255,0.3086,0.3175,0.6148,-0.8763,0.3562,-0.6033,0.2649,0.4857,0.6456,-0.9241,0.0,0.0,0.0,0.0,0.0,0.0,0.0,0.0,0.0,
2.0,run,0.05,3.28,0.24,0.19,-0.6,0.0,0.0,0.0,0.163,4.39,-29.36,49.57,-5.8,5.8,-1.58,15.47,-63.46,66.36,10.9,8.26,-8.35,12.48,-57.57,63.72,16.96,10.28,-13.8,4.57,-26.63,46.02,-4.14,8.26,-5.01,15.78,-65.25,73.07,10.06,10.05,-11.27,13.18,-59.15,69.29,17.37,10.63,-12.58,0.1306,-0.0297,-0.2233,-0.1182,0.6047,-0.8237,0.451,-0.7318,0.3365,0.2875,0.6372,-0.8973,0.3767,-0.6209,0.3021,0.4962,0.6479,-0.9127,0.019,0.006,0.013,0.006,0.006,0.013,0.006,0.026,0.019,0.0,0.0,0.013,0.006,0.039,0.006,0.0,0.0,0.006,0.0598,-0.5369,0.8805,-0.1074,0.0874,-0.0092,0.2684,-1.0907,1.1259,0.1994,0.1319,-0.1258,0.2132,-0.9925,1.0799,0.2961,0.1749,-0.2531,0.0253,0.1417,-0.1534,0.0963,0.2368,-0.238,0.0271,-0.3031,0.3046,-0.0657,0.1883,-0.2777,0.0824,-0.2132,0.3038,0.037,0.0071,0.0814,0.0051,0.0109,-0.0036,-0.001,0.009,0.1239,-0.0481,-0.2096,-0.1362,0.5903,-0.81,0.4475,-0.7299,0.3237,0.3049,0.6246,-0.8869,0.3676,-0.6141,0.2839,0.4909,0.6454,-0.9195,0.0,0.0,0.0,0.0,0.0,0.0,0.0,0.0,0.0,
2.04,run,0.08,3.29,0.15,-0.12,-0.35,0.0,0.0,0.0,0.163,4.48,-28.48,48.52,-5.1,6.68,-2.72,15.47,-64.25,67.76,10.46,8.96,-9.4,12.92,-58.1,64.78,17.23,10.28,-13.45,4.74,-25.5,44.52,-3.42,8.93,-6.15,15.8,-65.22,74.57,9.55,10.58,-12.16,13.52,-59.46,70.79,17.56,10.53,-11.92,0.1355,-0.0091,-0.2417,-0.0977,0.6169,-0.8371,0.4514,-0.7312,0.3497,0.2729,0.6469,-0.9078,0.3864,-0.6265,0.3213,0.5018,0.6461,-0.9049,0.019,0.006,0.013,0.006,0.006,0.013,0.006,0.026,0.019,0.0,0.0,0.013,0.006,0.039,0.006,0.0,0.0,0.006,0.0767,-0.5216,0.8621,-0.0982,0.1028,-0.0307,0.273,-1.1106,1.1505,0.1917,0.1457,-0.1473,0.2194,-1.0063,1.1091,0.2961,0.1749,-0.2454,0.081,0.1567,-0.1764,0.102,0.2233,-0.2472,0.0362,-0.287,0.3053,-0.0748,0.1836,-0.2749,0.0807,-0.201,0.322,0.0259,0.005,0.0857,0.0059,0.0099,0.0041,0.0033,-0.0105,0.1306,-0.0297,-0.2233,-0.1182,0.6047,-0.8237,0.451,-0.7318,0.3365,0.2875,0.6372,-0.8973,0.3767,-0.6209,0.3021,0.4962,0.6479,-0.9127,0.0,0.0,0.0,0.0,0.0,0.0,0.0,0.0,0.0,
2.08,run,0.04,3.28,-0.87,-0.55,2.2,0.0,0.0,0.0,0.163,4.22,-27.51,47.37,-4.57,7.56,-3.96,15.47,-64.86,69.17,9.93,9.67,-10.46,13.27,-58.71,66.45,17.4,10.28,-12.83,4.92,-24.49,43.22,-2.79,9.54,-7.17,15.81,-65.22,76.07,8.95,11.11,-12.8,13.82,-59.73,72.29,17.74,10.65,-11.41,0.1404,0.0092,-0.2562,-0.0796,0.6281,-0.8491,0.4517,-0.7312,0.3596,0.2557,0.6565,-0.9153,0.3949,-0.6314,0.3356,0.5068,0.6481,-0.8989,0.0,0.006,0.006,0.013,0.0,0.006,0.006,0.013,0.013,0.006,0.006,0.006,0.006,0.026,0.013,0.013,0.006,0.006,0.0782,-0.5062,0.8437,-0.0859,0.1181,-0.0506,0.273,-1.1244,1.175,0.1841,0.158,-0.1657,0.227,-1.0155,1.1275,0.3007,0.1749,-0.2393,0.0625,0.1669,-0.1921,0.1171,0.2135,-0.2474,0.0254,-0.2524,0.3052,-0.0809,0.1743,-0.2611,0.0851,-0.175,0.294,0.0353,0.0035,0.0829,0.0081,0.011,0.0027,-0.0021,-0.0061,0.1355,-0.0091,-0.2417,-0.0977,0.6169,-0.8371,0.4514,-0.7312,0.3497,0.2729,0.6469,-0.9078,0.3864,-0.6265,0.3213,0.5018,0.6461,-0.9049,0.0,0.0,0.0,0.0,0.0,0.0,0.0,0.0,0.0,
2.12,run,0.07,3.27,-0.05,-0.19,-1.14,0.0,0.0,0.0,0.163,5.19,-26.54,46.14,-3.87,8.35,-5.1,15.47,-65.04,70.58,9.4,10.37,-11.43,13.54,-59.24,67.85,17.58,10.28,-12.22,5.09,-23.32,41.79,-2.06,10.21,-8.05,15.85,-64.98,77.57,8.25,11.62,-13.39,14.05,-59.83,73.79,17.86,10.68,-10.6,0.1455,0.0305,-0.273,-0.0589,0.6402,-0.8595,0.4529,-0.7269,0.3686,0.2358,0.6659,-0.9223,0.4014,-0.6332,0.3496,0.5102,0.6486,-0.8894,0.0,0.006,0.006,0.013,0.0,0.006,0.006,0.013,0.013,0.006,0.006,0.006,0.006,0.026,0.013,0.013,0.006,0.006,0.0736,-0.4893,0.8237,-0.0767,0.1335,-0.0721,0.273,-1.1351,1.1996,0.1749,0.1703,-0.1841,0.2332,-1.0262,1.1566,0.3037,0.1749,-0.2286,0.0263,0.1808,-0.2101,0.1169,0.2076,-0.2546,0.0178,-0.2174,0.3067,-0.0916,0.1685,-0.2526,0.0828,-0.1632,0.3163,0.0363,0.0024,0.0987,0.0042,0.0098,-0.0152,-0.0095,0.0384,0.1404,0.0092,-0.2562,-0.0796,0.6281,-0.8491,0.4517,-0.7312,0.3596,0.2557,0.6565,-0.9153,0.3949,-0.6314,0.3356,0.5068,0.6481,-0.8989,0.0,0.0,0.0,0.0,0.0,0.0,0.0,0.0,0.0,
2.16,run,0.07,3.25,-0.34,-0.27,0.19,0.0,0.0,0.0,0.163,5.1,-25.58,45.0,-3.25,9.05,-6.15,15.47,-64.86,71.98,8.88,10.9,-12.3,13.8,-59.41,69.26,17.75,10.46,-11.78,5.22,-22.05,40.29,-1.3,10.69,-9.02,15.72,-64.86,79.07,7.67,12.0,-13.96,14.33,-60.09,75.29,18.05,10.62,-9.97,0.1491,0.0537,-0.2925,-0.037,0.6489,-0.8708,0.4491,-0.7247,0.3777,0.219,0.6727,-0.9289,0.4095,-0.6379,0.3619,0.5158,0.6477,-0.882,0.0,0.006,0.006,0.013,0.0,0.006,0.006,0.013,0.013,0.006,0.006,0.006,0.006,0.026,0.013,0.013,0.006,0.006,0.0905,-0.4725,0.8023,-0.0644,0.1473,-0.092,0.273,-1.1382,1.2241,0.1657,0.1825,-0.201,0.2378,-1.0354,1.1812,0.3068,0.1749,-0.2178,0.081,0.1892,-0.2268,0.1274,0.1966,-0.2522,0.0124,-0.1636,0.3058,-0.0983,0.1635,-0.2394,0.0751,-0.1484,0.3125,0.0368,0.0017,0.109,0.0073,0.0088,-0.0009,-0.0033,-0.0199,0.1455,0.0305,-0.273,-0.0589,0.6402,-0.8595,0.4529,-0.7269,0.3686,0.2358,0.6659,-0.9223,0.4014,-0.6332,0.3496,0.5102,0.6486,-0.8894,0.0,0.0,0.0,0.0,0.0,0.0,0.0,0.0,0.0,
2.2,run,0.02,3.24,-0.73,-0.29,1.58,0.0,0.0,0.0,0.163,4.92,-24.52,43.77,-2.64,9.76,-7.29,15.47,-64.86,73.39,8.17,11.43,-13.1,14.06,-59.5,70.66,17.84,10.55,-11.07,5.37,-20.83,38.79,-0.55,11.18,-9.73,15.66,-64.53,80.57,6.93,12.41,-14.31,14.54,-60.15,76.79,18.16,10.69,-9.22,0.1535,0.0759,-0.3103,-0.0157,0.6579,-0.8792,0.4475,-0.7188,0.3835,0.1979,0.6801,-0.9331,0.4156,-0.639,0.3715,0.5188,0.6489,-0.8732,0.0,0.013,0.013,0.013,0.006,0.019,0.006,0.006,0.026,0.006,0.006,0.006,0.013,0.019,0.006,0.006,0.0,0.006,0.089,-0.4556,0.7823,-0.0537,0.1595,-0.1104,0.273,-1.1351,1.2487,0.1565,0.1917,-0.2163,0.2424,-1.0385,1.2057,0.3099,0.1779,-0.2102,0.0509,0.1961,-0.234,0.1297,0.1839,-0.246,0.0087,-0.1029,0.3066,-0.1035,0.1492,-0.2255,0.0699,-0.1155,0.3113,0.0374,0.0128,0.1052,0.0073,0.0076,-0.006,-0.0047,0.0032,0.1491,0.0537,-0.2925,-0.037,0.6489,-0.8708,0.4491,-0.7247,0.3777,0.219,0.6727,-0.9289,0.4095,-0.6379,0.3619,0.5158,0.6477,-0.882,0.0,0.0,0.0,0.0,0.0,0.0,0.0,0.0,0.0,
2.24,run,0.08,3.24,0.39,-0.03,-2.02,0.0,0.0,0.0,0.163,5.45,-23.38,42.36,-1.93,10.46,-8.35,15.47,-64.6,74.79,7.56,11.95,-13.8,14.41,-59.68,72.07,18.11,10.55,-10.37,5.5,-19.59,37.29,0.19,11.68,-10.36,15.61,-64.08,82.07,6.19,12.8,-14.68,14.73,-60.06,78.29,18.25,10.72,-8.38,0.1572,0.0983,-0.3288,0.0055,0.6669,-0.8866,0.446,-0.7105,0.3889,0.177,0.6874,-0.9374,0.4207,-0.6374,0.3804,0.5214,0.6495,-0.8633,0.0,0.013,0.013,0.013,0.006,0.019,0.006,0.006,0.026,0.006,0.006,0.006,0.013,0.019,0.006,0.006,0.0,0.006,0.0859,-0.4372,0.7609,-0.043,0.1718,-0.1304,0.273,-1.1351,1.2732,0.1442,0.201,-0.2301,0.247,-1.04,1.2303,0.3114,0.1795,-0.1979,0.0242,0.2061,-0.244,0.1309,0.1746,-0.2467,0.0061,-0.072,0.3064,-0.1183,0.1388,-0.2094,0.0661,-0.0866,0.3097,0.0319,0.0147,0.1195,0.0032,0.0062,-0.0128,-0.0051,0.0275,0.1535,0.0759,-0.3103,-0.0157,0.6579,-0.8792,0.4475,-0.7188,0.3835,0.1979,0.6801,-0.9331,0.4156,-0.639,0.3715,0.5188,0.6489,-0.8732,0.0,0.0,0.0,0.0,0.0,0.0,0.0,0.0,0.0,
2.28,run,0.05,3.23,-0.56,-0.23,1.47,0.0,0.0,0.0,0.163,5.54,-22.32,41.13,-1.14,10.9,-9.23,15.47,-64.42,76.2,6.94,12.3,-14.33,14.41,-59.68,73.48,18.11,10.55,-9.67,5.61,-18.21,35.79,0.99,12.08,-11.28,15.41,-63.78,83.57,5.55,13.11,-15.14,14.95,-60.22,79.79,18.4,10.7,-7.72,0.1602,0.1234,-0.3501,0.0282,0.6741,-0.8974,0.4404,-0.7051,0.3942,0.1586,0.693,-0.9428,0.4272,-0.6404,0.3885,0.5257,0.6492,-0.8555,0.0,0.013,0.013,0.013,0.006,0.019,0.006,0.006,0.026,0.006,0.006,0.006,0.013,0.019,0.006,0.006,0.0,0.006,0.0951,-0.4172,0.7363,-0.0307,0.1841,-0.1488,0.273,-1.1305,1.2977,0.1335,0.2102,-0.2424,0.2531,-1.0431,1.2548,0.316,0.1795,-0.1856,0.0515,0.2193,-0.2632,0.1378,0.1684,-0.242,0.0043,-0.0331,0.3068,-0.1232,0.1318,-0.1928,0.0694,-0.0721,0.3091,0.0396,0.0103,0.1298,0.0079,0.0064,0.0068,-0.0006,-0.0353,0.1572,0.0983,-0.3288,0.0055,0.6669,-0.8866,0.446,-0.7105,0.3889,0.177,0.6874,-0.9374,0.4207,-0.6374,0.3804,0.5214,0.6495,-0.8633,0.0,0.0,0.0,0.0,0.0,0.0,0.0,0.0,0.0,
2.32,run,0.03,3.23,0.0,0.15,-0.67,0.0,0.0,0.0,0.163,5.45,-21.18,39.64,-0.44,11.43,-10.11,15.47,-63.9,77.61,6.15,12.74,-14.85,14.77,-59.68,74.88,18.37,10.55,-8.96,5.71,-17.0,34.29,1.74,12.48,-11.76,15.34,-62.98,85.07,4.82,13.44,-15.4,15.06,-59.74,81.29,18.41,10.65,-6.62,0.1632,0.1454,-0.3716,0.0498,0.6814,-0.9031,0.4382,-0.6905,0.3971,0.1378,0.699,-0.9459,0.4301,-0.6316,0.3948,0.526,0.6482,-0.8425,0.013,0.006,0.013,0.013,0.0,0.013,0.006,0.006,0.026,0.006,0.006,0.006,0.0,0.013,0.006,0.0,0.0,0.006,0.0966,-0.3988,0.7148,-0.0169,0.1917,-0.1641,0.273,-1.1275,1.3223,0.1227,0.2163,-0.2516,0.2531,-1.0431,1.2793,0.316,0.1795,-0.1733,0.0418,0.2224,-0.2646,0.1481,0.1466,-0.2268,0.003,-0.0117,0.3066,-0.1264,0.1152,-0.1694,0.0486,-0.0505,0.3082,0.0277,0.0072,0.1368,0.0053,0.006,-0.0098,-0.0041,0.0256,0.1602,0.1234,-0.3501,0.0282,0.6741,-0.8974,0.4404,-0.7051,0.3942,0.1586,0.693,-0.9428,0.4272,-0.6404,0.3885,0.5257,0.6492,-0.8555,0.0,0.0,0.0,0.0,0.0,0.0,0.0,0.0,0.0,
2.36,run,0.01,3.24,-0.82,-0.57,0.15,0.0,0.0,0.0,0.163,5.89,-19.86,38.32,0.35,11.95,-10.9,15.47,-63.81,79.01,5.45,13.1,-15.21,14.85,-59.68,76.38,18.37,10.55,-8.17,5.84,-15.59,32.79,2.48,12.88,-12.47,15.15,-62.52,86.57,4.14,13.77,-15.75,15.22,-59.79,82.79,18.51,10.68,-5.91,0.1668,0.1711,-0.3916,0.071,0.6887,-0.9114,0.4328,-0.6821,0.4008,0.1182,0.705,-0.95,0.4348,-0.6325,0.4001,0.5289,0.6487,-0.8342,0.013,0.006,0.013,0.013,0.0,0.013,0.006,0.006,0.026,0.006,0.006,0.006,0.0,0.013,0.006,0.0,0.0,0.006,0.0951,-0.3789,0.6888,-0.0046,0.201,-0.1795,0.273,-1.1183,1.3468,0.1089,0.224,-0.2608,0.2592,-1.0431,1.3039,0.3206,0.1795,-0.1611,0.0235,0.2305,-0.2831,0.1497,0.1371,-0.2163,0.0021,0.0264,0.3068,-0.1403,0.1094,-0.1531,0.057,-0.0353,0.3079,0.0367,0.005,0.1418,0.0039,0.0055,0.0,0.0026,-0.0117,0.1632,0.1454,-0.3716,0.0498,0.6814,-0.9031,0.4382,-0.6905,0.3971,0.1378,0.699,-0.9459,0.4301,-0.6316,0.3948,0.526,0.6482,-0.8425,0.0,0.0,0.0,0.0,0.0,0.0,0.0,0.0,0.0,
2.4,run,0.0,3.26,-0.28,-0.0,0.16,0.0,0.0,0.0,0.163,5.71,-18.63,36.91,1.05,12.39,-11.6,15.47,-62.84,80.51,4.83,13.36,-15.56,15.03,-59.59,77.78,18.37,10.55,-7.38,5.93,-14.29,31.29,3.26,13.2,-12.99,14.98,-61.68,88.07,3.52,14.03,-16.09,15.32,-59.38,84.29,18.53,10.51,-4.73,0.1693,0.1948,-0.4145,0.093,0.6945,-0.9175,0.428,-0.6669,0.4042,0.1005,0.7096,-0.954,0.4376,-0.6252,0.4066,0.5295,0.6456,-0.8204,0.013,0.006,0.013,0.013,0.0,0.013,0.006,0.006,0.026,0.006,0.006,0.006,0.0,0.013,0.006,0.0,0.0,0.006,0.1028,-0.3559,0.6657,0.0092,0.2102,-0.1933,0.273,-1.1167,1.3714,0.0966,0.2301,-0.2669,0.2608,-1.0431,1.33,0.3206,0.1795,-0.1473,0.0452,0.2476,-0.2844,0.1566,0.1305,-0.2032,0.0015,0.0242,0.3068,-0.1442,0.0996,-0.1302,0.0457,-0.0247,0.3133,0.0257,0.0035,0.151,0.0017,0.0068,-0.0142,-0.0099,0.0026,0.1668,0.1711,-0.3916,0.071,0.6887,-0.9114,0.4328,-0.6821,0.4008,0.1182,0.705,-0.95,0.4348,-0.6325,0.4001,0.5289,0.6487,-0.8342,0.0,0.0,0.0,0.0,0.0,0.0,0.0,0.0,0.0,
2.44,run,0.01,3.3,0.21,0.04,0.78,0.0,0.0,0.0,0.163,5.62,-17.4,35.42,1.76,12.83,-12.3,15.38,-62.58,81.91,4.13,13.8,-15.91,15.21,-59.41,79.19,18.46,10.55,-6.5,6.07,-12.8,29.79,4.01,13.57,-13.43,14.72,-60.9,89.57,2.84,14.29,-16.25,15.39,-59.24,85.79,18.53,10.49,-3.83,0.1736,0.2218,-0.4365,0.1146,0.7013,-0.9227,0.4207,-0.6527,0.4055,0.081,0.7143,-0.9558,0.4396,-0.6225,0.4094,0.5295,0.6453,-0.8098,0.0,0.006,0.013,0.013,0.0,0.006,0.006,0.019,0.026,0.006,0.0,0.006,0.0,0.0,0.013,0.006,0.0,0.013,0.0997,-0.3344,0.6412,0.0215,0.2178,-0.2056,0.273,-1.0999,1.3975,0.0859,0.2347,-0.273,0.2638,-1.0416,1.3545,0.3206,0.1795,-0.1335,0.0202,0.2537,-0.2909,0.1555,0.12,-0.1881,0.001,0.0801,0.3123,-0.1411,0.0869,-0.1141,0.0434,-0.0116,0.3111,0.018,0.0025,0.1574,0.0012,0.0082,-0.0049,-0.0001,0.0027,0.1693,0.1948,-0.4145,0.093,0.6945,-0.9175,0.428,-0.6669,0.4042,0.1005,0.7096,-0.954,0.4376,-0.6252,0.4066,0.5295,0.6456,-0.8204,0.0,0.0,0.0,0.0,0.0,0.0,0.0,0.0,0.0,
2.48,run,0.0,3.3,-0.69,-0.48,-0.58,0.0,0.0,0.0,0.163,6.15,-16.08,34.01,2.55,13.1,-13.01,15.03,-61.61,83.32,3.43,14.06,-16.17,15.29,-59.33,80.68,18.54,10.55,-5.62,6.15,-11.52,28.29,4.72,13.94,-13.84,14.52,-60.1,91.07,2.25,14.55,-16.53,15.46,-58.93,87.29,18.53,10.39,-2.87,0.1758,0.2452,-0.4584,0.1347,0.708,-0.9275,0.4149,-0.6382,0.407,0.0643,0.7191,-0.9591,0.4416,-0.6169,0.4139,0.5296,0.6434,-0.7985,0.0,0.006,0.013,0.013,0.0,0.006,0.006,0.019,0.026,0.006,0.0,0.006,0.0,0.0,0.013,0.006,0.0,0.013,0.0982,-0.3129,0.6151,0.0337,0.2255,-0.2178,0.2715,-1.0953,1.422,0.0736,0.2424,-0.2792,0.2669,-1.0385,1.379,0.3221,0.1795,-0.1181,0.0084,0.2583,-0.3017,0.155,0.1129,-0.1778,-0.0051,0.0733,0.3109,-0.1449,0.0897,-0.1029,0.0419,0.0034,0.3101,0.0184,0.0017,0.1678,0.0016,0.0119,0.0037,0.0007,0.0136,0.1736,0.2218,-0.4365,0.1146,0.7013,-0.9227,0.4207,-0.6527,0.4055,0.081,0.7143,-0.9558,0.4396,-0.6225,0.4094,0.5295,0.6453,-0.8098,0.0,0.0,0.0,0.0,0.0,0.0,0.0,0.0,0.0,
2.52,run,-0.02,3.3,-0.16,0.0,0.23,0.0,0.0,0.0,0.163,6.24,-14.85,32.7,3.34,13.45,-13.45,14.85,-60.91,84.73,2.81,14.33,-16.26,15.21,-59.15,82.09,18.54,10.55,-4.83,6.28,-10.04,26.79,5.45,14.18,-14.11,14.22,-59.21,92.57,1.73,14.68,-16.73,15.5,-58.67,88.79,18.54,10.19,-1.72,0.1793,0.272,-0.481,0.1558,0.7123,-0.9307,0.4063,-0.6221,0.4102,0.0494,0.7214,-0.9616,0.443,-0.6122,0.4168,0.5298,0.6398,-0.785,0.0,0.006,0.013,0.013,0.0,0.006,0.006,0.019,0.026,0.006,0.0,0.006,0.0,0.0,0.013,0.006,0.0,0.013,0.1074,-0.2899,0.5906,0.0476,0.2301,-0.2301,0.2654,-1.0784,1.4465,0.0614,0.247,-0.2838,0.2684,-1.037,1.4051,0.3237,0.1795,-0.1028,0.0404,0.2671,-0.3032,0.1603,0.0963,-0.1705,-0.0265,0.1146,0.3096,-0.1475,0.08,-0.0893,0.0351,0.0082,0.3148,0.0186,0.0012,0.175,0.0015,0.0116,-0.0121,-0.0085,-0.0101,0.1758,0.2452,-0.4584,0.1347,0.708,-0.9275,0.4149,-0.6382,0.407,0.0643,0.7191,-0.9591,0.4416,-0.6169,0.4139,0.5296,0.6434,-0.7985,0.0,0.0,0.0,0.0,0.0,0.0,0.0,0.0,0.0,
2.56,run,-0.01,3.27,-0.59,-0.64,0.22,0.0,0.0,0.0,0.163,5.98,-13.54,31.29,4.04,13.8,-13.89,14.5,-60.21,86.04,2.2,14.5,-16.7,15.38,-58.71,83.5,18.54,10.55,-3.78,6.36,-8.75,25.29,6.12,14.44,-14.29,13.95,-58.22,94.07,1.24,14.83,-16.84,15.52,-58.29,90.29,18.47,9.97,-0.72,0.1818,0.2955,-0.503,0.1749,0.7171,-0.9328,0.3985,-0.6039,0.4103,0.0353,0.7242,-0.9628,0.4434,-0.6053,0.419,0.5277,0.6357,-0.7732,0.006,0.006,0.013,0.006,0.0,0.006,0.0,0.006,0.019,0.006,0.0,0.006,0.006,0.006,0.013,0.0,0.013,0.013,0.1089,-0.2684,0.5676,0.0614,0.2362,-0.2378,0.2623,-1.0661,1.4711,0.0506,0.2516,-0.2853,0.2669,-1.0339,1.4297,0.3237,0.1795,-0.089,0.034,0.2675,-0.2986,0.164,0.0904,-0.1481,-0.0301,0.1263,0.3088,-0.1435,0.0733,-0.0683,0.0188,0.0172,0.3124,0.013,0.0008,0.1743,-0.0004,0.0116,-0.0028,0.0001,0.004,0.1793,0.272,-0.481,0.1558,0.7123,-0.9307,0.4063,-0.6221,0.4102,0.0494,0.7214,-0.9616,0.443,-0.6122,0.4168,0.5298,0.6398,-0.785,0.0,0.0,0.0,0.0,0.0,0.0,0.0,0.0,0.0,
2.6,run,0.02,3.29,0.46,0.25,-0.09,0.0,0.0,0.0,0.163,6.42,-12.22,29.79,4.83,14.15,-14.24,14.24,-59.33,87.45,1.58,14.68,-16.7,15.47,-58.54,84.99,18.46,10.28,-2.81,6.47,-7.47,23.79,6.77,14.66,-14.37,13.72,-57.36,95.57,0.77,14.95,-16.92,15.57,-58.11,91.79,18.42,9.78,0.17,0.1849,0.3188,-0.5234,0.1933,0.7212,-0.9337,0.3919,-0.5883,0.4105,0.0219,0.7264,-0.9638,0.4447,-0.6019,0.4208,0.5262,0.6324,-0.7627,0.006,0.006,0.013,0.006,0.0,0.006,0.0,0.006,0.019,0.006,0.0,0.006,0.006,0.006,0.013,0.0,0.013,0.013,0.1043,-0.2454,0.543,0.0736,0.2424,-0.2454,0.2562,-1.0538,1.4941,0.0399,0.2546,-0.293,0.27,-1.0262,1.4542,0.3237,0.1795,-0.0706,0.0065,0.2736,-0.3011,0.1608,0.0863,-0.1325,-0.0441,0.1344,0.3025,-0.1407,0.0628,-0.0766,0.0247,0.0408,0.3108,0.0091,0.0006,0.191,0.0002,0.0092,-0.0102,-0.0111,0.0038,0.1818,0.2955,-0.503,0.1749,0.7171,-0.9328,0.3985,-0.6039,0.4103,0.0353,0.7242,-0.9628,0.4434,-0.6053,0.419,0.5277,0.6357,-0.7732,0.0,0.0,0.0,0.0,0.0,0.0,0.0,0.0,0.0,
2.64,run,0.01,3.28,-0.45,-0.14,-0.32,0.0,0.0,0.0,0.163,6.5,-10.9,28.39,5.54,14.41,-14.24,13.97,-58.54,88.95,1.05,14.77,-16.88,15.38,-58.18,86.31,18.46,10.11,-1.85,6.54,-6.2,22.29,7.39,14.86,-14.58,13.36,-56.34,97.07,0.41,14.98,-17.03,15.55,-57.77,93.29,18.35,9.48,1.07,0.1867,0.3419,-0.5458,0.211,0.7247,-0.9363,0.3817,-0.5698,0.4091,0.0116,0.7269,-0.965,0.4444,-0.5958,0.4218,0.5242,0.6269,-0.7522,0.006,0.006,0.013,0.006,0.0,0.006,0.0,0.006,0.019,0.006,0.0,0.006,0.006,0.006,0.013,0.0,0.013,0.013,0.112,-0.2224,0.517,0.0874,0.2485,-0.2516,0.2516,-1.0385,1.5186,0.0291,0.2577,-0.293,0.2715,-1.0232,1.4803,0.3221,0.1749,-0.0537,0.0335,0.2782,-0.309,0.1646,0.0835,-0.1158,-0.0482,0.1519,0.3042,-0.139,0.0555,-0.0536,0.0231,0.0401,0.3158,0.0006,-0.0169,0.1973,0.0032,0.0111,0.008,0.0043,-0.0016,0.1849,0.3188,-0.5234,0.1933,0.7212,-0.9337,0.3919,-0.5883,0.4105,0.0219,0.7264,-0.9638,0.4447,-0.6019,0.4208,0.5262,0.6324,-0.7627,0.0,0.0,0.0,0.0,0.0,0.0,0.0,0.0,0.0,
2.68,run,0.03,3.3,0.21,-0.01,1.07,0.0,0.0,0.0,0.163,6.42,-9.58,26.98,6.15,14.68,-14.5,13.71,-57.66,90.35,0.62,14.77,-16.96,15.38,-58.01,87.8,18.46,9.93,-0.88,6.59,-5.08,20.79,7.94,14.91,-14.62,13.09,-55.4,98.57,0.07,14.97,-16.98,15.57,-57.46,94.79,18.24,9.13,1.93,0.1884,0.3622,-0.5644,0.2269,0.7256,-0.9367,0.3741,-0.5527,0.4079,0.0019,0.7268,-0.9644,0.4448,-0.5902,0.4219,0.5213,0.6206,-0.742,0.0,0.006,0.013,0.013,0.0,0.006,0.006,0.006,0.026,0.006,0.0,0.0,0.006,0.013,0.006,0.006,0.013,0.013,0.1135,-0.1994,0.4924,0.0997,0.2531,-0.2516,0.247,-1.0247,1.5447,0.0199,0.2592,-0.2961,0.27,-1.017,1.5033,0.3221,0.1718,-0.0368,0.0292,0.2806,-0.3079,0.161,0.0756,-0.0811,-0.0509,0.1579,0.3103,-0.1316,0.0446,-0.049,0.0104,0.051,0.307,0.0004,-0.0233,0.2011,0.0023,0.0104,-0.0078,-0.0025,-0.0056,0.1867,0.3419,-0.5458,0.211,0.7247,-0.9363,0.3817,-0.5698,0.4091,0.0116,0.7269,-0.965,0.4444,-0.5958,0.4218,0.5242,0.6269,-0.7522,0.0,0.0,0.0,0.0,0.0,0.0,0.0,0.0,0.0,
2.72,run,0.06,3.29,0.24,0.09,-0.53,0.0,0.0,0.0,0.163,6.5,-8.0,25.22,6.94,14.85,-14.5,13.36,-56.51,92.02,0.18,14.77,-16.96,15.47,-57.57,89.47,18.28,9.76,0.26,6.65,-4.01,19.29,8.47,14.99,-14.54,12.81,-54.4,99.46,-0.23,14.93,-16.86,15.53,-57.15,96.29,18.09,8.78,2.65,0.19,0.3817,-0.5836,0.242,0.7272,-0.9357,0.3661,-0.5345,0.4054,-0.0066,0.7259,-0.963,0.4436,-0.5846,0.4217,0.5167,0.6142,-0.7335,0.0,0.006,0.013,0.013,0.0,0.006,0.006,0.006,0.026,0.006,0.0,0.0,0.006,0.013,0.006,0.006,0.013,0.013,0.112,-0.1764,0.4679,0.1104,0.2577,-0.2562,0.2424,-1.0094,1.5693,0.0123,0.2592,-0.2976,0.27,-1.014,1.5294,0.3221,0.1687,-0.0199,0.0147,0.2826,-0.3074,0.1529,0.0702,-0.074,-0.0529,0.1679,0.3091,-0.1209,0.0312,-0.04,0.0073,0.0472,0.3125,0.0003,-0.0278,0.2039,0.004,0.0115,0.0036,-0.0002,0.0187,0.1884,0.3622,-0.5644,0.2269,0.7256,-0.9367,0.3741,-0.5527,0.4079,0.0019,0.7268,-0.9644,0.4448,-0.5902,0.4219,0.5213,0.6206,-0.742,0.0,0.0,0.0,0.0,0.0,0.0,0.0,0.0,0.0,
2.76,run,0.07,3.27,-0.11,-0.08,0.32,0.0,0.0,0.0,0.163,6.5,-6.86,23.91,7.47,14.85,-14.5,13.18,-55.81,93.34,0.09,14.77,-16.96,15.38,-57.57,90.97,18.28,9.49,1.05,6.66,-2.92,17.79,9.0,14.92,-14.49,12.46,-53.48,99.2,-0.48,14.72,-16.66,15.53,-57.02,97.79,17.93,8.31,3.25,0.1902,0.4014,-0.6018,0.2571,0.7259,-0.9351,0.3561,-0.5178,0.4024,-0.0138,0.7221,-0.9608,0.4436,-0.5822,0.4199,0.5123,0.6057,-0.7265,0.0,0.006,0.013,0.013,0.0,0.006,0.006,0.006,0.026,0.006,0.0,0.0,0.006,0.013,0.006,0.006,0.013,0.013,0.1135,-0.1488,0.4372,0.1243,0.2608,-0.2562,0.2362,-0.9894,1.5984,0.0046,0.2592,-0.2976,0.2715,-1.0063,1.5585,0.3191,0.1657,0.0,0.0151,0.2854,-0.3125,0.1508,0.0589,-0.0518,-0.0565,0.1808,0.3088,-0.1089,0.0219,-0.028,0.01,0.0574,0.3112,-0.0095,-0.0292,0.206,0.0064,0.0113,0.0043,0.0015,-0.0093,0.19,0.3817,-0.5836,0.242,0.7272,-0.9357,0.3661,-0.5345,0.4054,-0.0066,0.7259,-0.963,0.4436,-0.5846,0.4217,0.5167,0.6142,-0.7335,0.0,0.0,0.0,0.0,0.0,0.0,0.0,0.0,0.0,
2.8,run,0.07,3.28,-0.14,-0.03,1.03,0.0,0.0,0.0,0.163,6.59,-5.71,22.5,8.0,14.85,-14.5,12.83,-54.84,94.83,-0.44,14.77,-16.79,15.47,-57.13,92.37,17.84,9.32,1.93,6.64,-2.13,16.29,9.42,14.83,-14.46,12.26,-52.6,98.97,-0.67,14.55,-16.43,15.5,-56.75,99.29,17.74,7.81,3.81,0.1898,0.4159,-0.6167,0.2691,0.7241,-0.9348,0.3501,-0.5019,0.3996,-0.0191,0.7191,-0.958,0.4428,-0.5773,0.4187,0.5069,0.5966,-0.7199,0.0,0.0,0.013,0.019,0.0,0.0,0.0,0.006,0.026,0.0,0.0,0.0,0.0,0.006,0.006,0.0,0.019,0.006,0.1135,-0.1289,0.4142,0.1335,0.2608,-0.2562,0.2332,-0.9771,1.6214,0.0031,0.2592,-0.2976,0.27,-1.0063,1.5846,0.3191,0.1611,0.0138,0.0106,0.2739,-0.3043,0.1398,0.0412,-0.0363,-0.0509,0.1722,0.3017,-0.082,0.0153,-0.0196,0.0013,0.0402,0.3148,-0.0067,-0.0375,0.1956,0.0072,0.009,-0.002,-0.0014,0.0056,0.1902,0.4014,-0.6018,0.2571,0.7259,-0.9351,0.3561,-0.5178,0.4024,-0.0138,0.7221,-0.9608,0.4436,-0.5822,0.4199,0.5123,0.6057,-0.7265,0.0,0.0,0.0,0.0,0.0,0.0,0.0,0.0,0.0,
2.84,run,0.09,3.29,0.28,0.32,-0.18,0.0,0.0,0.0,0.163,6.5,-4.48,21.01,8.53,14.85,-14.5,12.48,-53.88,96.15,-0.7,14.77,-16.61,15.38,-57.04,93.78,17.75,8.79,2.64,6.63,-1.35,14.79,9.81,14.7,-14.22,11.99,-51.73,98.74,-0.81,14.28,-16.12,15.46,-56.54,100.47,17.56,7.34,4.31,0.1894,0.4301,-0.6306,0.2802,0.7219,-0.932,0.3425,-0.486,0.397,-0.0232,0.7141,-0.9544,0.4417,-0.5734,0.4173,0.5018,0.5881,-0.714,0.0,0.0,0.013,0.019,0.0,0.0,0.0,0.006,0.026,0.0,0.0,0.0,0.0,0.006,0.006,0.0,0.019,0.006,0.115,-0.1089,0.3896,0.1427,0.2608,-0.2562,0.227,-0.9603,1.6475,-0.0061,0.2592,-0.2945,0.2715,-0.9986,1.6091,0.3114,0.158,0.0291,0.0132,0.2665,-0.305,0.1323,0.0288,-0.0254,-0.0586,0.1837,0.3089,-0.0918,0.0107,-0.0022,0.0066,0.0568,0.3123,-0.0334,-0.0378,0.1943,0.0072,0.0097,-0.0025,-0.0006,0.018,0.1898,0.4159,-0.6167,0.2691,0.7241,-0.9348,0.3501,-0.5019,0.3996,-0.0191,0.7191,-0.958,0.4428,-0.5773,0.4187,0.5069,0.5966,-0.7199,0.0,0.0,0.0,0.0,0.0,0.0,0.0,0.0,0.0,
2.88,run,0.1,3.29,0.0,-0.05,-0.17,0.0,0.0,0.0,0.163,6.68,-3.43,19.6,8.96,14.85,-14.5,12.22,-53.0,97.21,-0.53,14.77,-16.26,15.38,-56.69,95.19,17.75,8.44,3.34,6.57,-0.73,13.29,10.1,14.53,-14.33,11.73,-51.13,98.37,-0.9,13.97,-15.88,15.46,-56.53,100.13,17.39,6.86,4.51,0.1878,0.4414,-0.6424,0.2885,0.7188,-0.9333,0.3352,-0.4751,0.3926,-0.0257,0.7086,-0.9515,0.4416,-0.5733,0.4133,0.4968,0.5793,-0.7117,0.0,0.0,0.013,0.019,0.0,0.0,0.0,0.006,0.026,0.0,0.0,0.0,0.0,0.006,0.006,0.0,0.019,0.006,0.1135,-0.0874,0.3636,0.1519,0.2608,-0.2562,0.2209,-0.9434,1.6705,-0.0107,0.2592,-0.2915,0.27,-0.9971,1.6337,0.3099,0.1488,0.0414,0.0034,0.2676,-0.3119,0.1274,0.0202,-0.0178,-0.0642,0.1923,0.3031,-0.0817,0.0075,0.01,-0.0011,0.0456,0.3112,-0.0292,-0.0612,0.1824,0.0089,0.0109,0.0049,0.0057,-0.0032,0.1894,0.4301,-0.6306,0.2802,0.7219,-0.932,0.3425,-0.486,0.397,-0.0232,0.7141,-0.9544,0.4417,-0.5734,0.4173,0.5018,0.5881,-0.714,0.0,0.0,0.0,0.0,0.0,0.0,0.0,0.0,0.0,
2.92,run,0.11,3.31,-0.33,-0.05,1.83,0.0,0.0,0.0,0.163,6.59,-2.46,18.19,9.49,14.85,-14.33,12.04,-52.21,98.0,-0.97,14.59,-16.0,15.38,-56.69,96.59,17.31,7.91,3.87,6.5,-0.25,11.79,10.39,14.24,-14.12,11.51,-50.48,97.97,-0.98,13.6,-15.53,15.46,-56.41,99.9,17.14,6.21,4.65,0.1856,0.45,-0.6536,0.2969,0.7134,-0.9308,0.3288,-0.4632,0.3879,-0.028,0.7019,-0.9474,0.4417,-0.5712,0.4106,0.4897,0.5674,-0.71,0.0,0.0,0.013,0.013,0.013,0.0,0.006,0.006,0.013,0.0,0.013,0.006,0.0,0.006,0.013,0.006,0.019,0.0,0.1166,-0.069,0.339,0.1595,0.2608,-0.2562,0.2163,-0.9281,1.6889,-0.0077,0.2592,-0.2853,0.27,-0.991,1.6582,0.3099,0.1427,0.0537,0.0138,0.2558,-0.3097,0.1177,0.0141,-0.0124,-0.0621,0.1917,0.2807,-0.0457,0.0052,0.0299,-0.0008,0.0547,0.3093,-0.0204,-0.0657,0.1733,0.0095,0.0111,0.0,-0.0009,-0.003,0.1878,0.4414,-0.6424,0.2885,0.7188,-0.9333,0.3352,-0.4751,0.3926,-0.0257,0.7086,-0.9515,0.4416,-0.5733,0.4133,0.4968,0.5793,-0.7117,0.0,0.0,0.0,0.0,0.0,0.0,0.0,0.0,0.0,
2.96,run,0.15,3.34,0.52,0.39,-0.48,0.0,0.0,0.0,0.163,6.59,-1.49,16.79,9.84,14.77,-14.33,11.69,-51.33,98.44,-1.05,14.24,-15.73,15.38,-56.51,97.91,17.14,7.38,4.31,6.41,0.25,10.29,10.64,14.0,-14.09,11.32,-49.69,97.51,-1.02,13.27,-15.09,15.44,-56.21,99.61,16.94,5.65,5.0,0.1832,0.4592,-0.6637,0.3041,0.7091,-0.9304,0.3234,-0.449,0.3825,-0.0291,0.6957,-0.9422,0.4411,-0.5675,0.4072,0.4839,0.5573,-0.7059,0.0,0.0,0.013,0.013,0.013,0.0,0.006,0.006,0.013,0.0,0.013,0.006,0.0,0.006,0.013,0.006,0.019,0.0,0.115,-0.0522,0.3145,0.1687,0.2608,-0.2531,0.2132,-0.9143,1.7027,-0.0153,0.2562,-0.2807,0.27,-0.991,1.6828,0.3022,0.1335,0.0629,0.0039,0.2425,-0.3091,0.117,0.0099,0.0028,-0.055,0.1861,0.2484,-0.0608,-0.0079,0.0382,-0.0006,0.0383,0.3087,-0.0431,-0.0806,0.1559,0.0107,0.0129,-0.0057,-0.0009,0.0319,0.1856,0.45,-0.6536,0.2969,0.7134,-0.9308,0.3288,-0.4632,0.3879,-0.028,0.7019,-0.9474,0.4417,-0.5712,0.4106,0.4897,0.5674,-0.71,0.0,0.0,0.0,0.0,0.0,0.0,0.0,0.0,0.0,
3.0,run,0.16,3.32,0.07,0.03,0.41,0.0,0.0,0.0,0.163,6.42,-0.62,15.03,10.2,14.77,-14.15,11.43,-50.54,98.61,-0.88,13.97,-15.38,15.38,-56.43,99.05,17.14,6.77,4.57,6.3,0.64,8.79,10.79,13.66,-14.18,11.13,-49.31,96.95,-0.99,12.84,-14.78,15.48,-56.33,99.21,16.77,5.11,4.87,0.18,0.4662,-0.6711,0.3084,0.703,-0.9315,0.318,-0.4419,0.3758,-0.0284,0.688,-0.9386,0.4424,-0.5696,0.4024,0.4792,0.5475,-0.7074,0.0,0.0,0.013,0.013,0.013,0.0,0.006,0.006,0.013,0.0,0.013,0.006,0.0,0.006,0.013,0.006,0.019,0.0,0.115,-0.0353,0.2899,0.1749,0.2592,-0.2531,0.2071,-0.8989,1.7104,-0.0169,0.25,-0.2761,0.27,-0.9879,1.7058,0.2991,0.1243,0.0706,0.0027,0.2333,-0.3087,0.105,0.0011,0.002,-0.0616,0.188,0.2027,-0.0484,-0.0286,0.0441,-0.0004,0.0384,0.3027,-0.0417,-0.091,0.138,0.0141,0.0151,0.0091,0.0069,-0.0083,0.1832,0.4592,-0.6637,0.3041,0.7091,-0.9304,0.3234,-0.449,0.3825,-0.0291,0.6957,-0.9422,0.4411,-0.5675,0.4072,0.4839,0.5573,-0.7059,0.0,0.0,0.0,0.0,0.0,0.0,0.0,0.0,0.0,
3.04,run,0.18,3.33,0.13,0.08,0.78,0.0,0.0,0.0,0.163,6.24,-0.09,13.97,10.37,14.41,-14.15,11.43,-49.92,98.61,-0.88,13.54,-15.03,15.38,-56.51,99.58,16.88,6.33,4.66,6.19,0.92,7.29,10.99,13.26,-14.07,10.99,-48.71,96.3,-1.04,12.46,-14.42,15.51,-56.23,98.84,16.52,4.39,4.96,0.1769,0.4712,-0.6794,0.314,0.6957,-0.9303,0.3139,-0.431,0.3683,-0.0297,0.6811,-0.9343,0.4431,-0.5678,0.3981,0.4719,0.5343,-0.7064,0.0,0.0,0.019,0.006,0.013,0.0,0.006,0.0,0.006,0.006,0.006,0.006,0.0,0.006,0.0,0.0,0.019,0.006,0.112,-0.0199,0.2592,0.181,0.2592,-0.25,0.2025,-0.8851,1.7135,-0.0138,0.2454,-0.27,0.27,-0.9863,1.7257,0.2991,0.1135,0.0752,-0.0074,0.21,-0.3095,0.0922,0.0008,0.0107,-0.0571,0.1737,0.1513,-0.0245,-0.034,0.0495,-0.0003,0.0315,0.2726,-0.0292,-0.0964,0.1106,0.0152,0.0135,0.0012,0.0005,0.0071,0.18,0.4662,-0.6711,0.3084,0.703,-0.9315,0.318,-0.4419,0.3758,-0.0284,0.688,-0.9386,0.4424,-0.5696,0.4024,0.4792,0.5475,-0.7074,0.0,0.0,0.0,0.0,0.0,0.0,0.0,0.0,0.0,
3.08,run,0.17,3.31,-0.05,-0.01,-0.24,0.0,0.0,0.0,0.163,6.24,0.35,12.48,10.55,14.06,-14.15,11.25,-49.39,98.0,-0.97,13.18,-14.77,15.38,-56.34,99.93,16.61,5.71,4.75,6.12,1.16,6.92,11.08,13.02,-14.15,10.89,-48.19,95.84,-1.03,12.22,-14.03,15.48,-56.13,98.4,16.35,4.0,5.18,0.1749,0.4756,-0.6833,0.3165,0.6912,-0.9311,0.3113,-0.4216,0.3629,-0.0295,0.6767,-0.9298,0.4424,-0.5659,0.393,0.4673,0.5272,-0.7038,0.0,0.0,0.019,0.006,0.013,0.0,0.006,0.0,0.006,0.006,0.006,0.006,0.0,0.006,0.0,0.0,0.019,0.006,0.1089,-0.0107,0.2408,0.1841,0.2531,-0.25,0.2025,-0.8744,1.7135,-0.0138,0.2378,-0.2638,0.27,-0.9879,1.7349,0.2945,0.1058,0.0767,-0.0202,0.1919,-0.3065,0.0795,-0.0294,0.0075,-0.04,0.1739,0.1059,-0.0172,-0.0612,0.0646,-0.0002,0.0146,0.2357,-0.0429,-0.1049,0.0849,0.0164,0.0139,0.0023,0.0014,0.0136,0.1769,0.4712,-0.6794,0.314,0.6957,-0.9303,0.3139,-0.431,0.3683,-0.0297,0.6811,-0.9343,0.4431,-0.5678,0.3981,0.4719,0.5343,-0.7064,0.0,0.0,0.0,0.0,0.0,0.0,0.0,0.0,0.0,
3.12,run,0.18,3.32,0.3,0.12,-0.04,0.0,0.0,0.0,0.163,6.24,0.79,11.07,10.63,13.71,-14.15,11.07,-48.78,97.47,-1.05,12.83,-14.24,15.38,-56.34,99.93,16.52,5.19,4.83,6.0,1.28,6.64,11.11,12.73,-14.25,10.85,-47.88,95.44,-0.98,11.99,-13.89,15.57,-56.07,98.15,16.28,3.58,5.24,0.1714,0.4778,-0.6865,0.3174,0.6861,-0.9323,0.3099,-0.4161,0.3581,-0.028,0.6725,-0.9281,0.4447,-0.5649,0.39,0.4652,0.5196,-0.703,0.0,0.0,0.019,0.006,0.013,0.0,0.006,0.0,0.006,0.006,0.006,0.006,0.0,0.006,0.0,0.0,0.019,0.006,0.1089,-0.0031,0.2148,0.1871,0.247,-0.25,0.1994,-0.8652,1.7027,-0.0153,0.2316,-0.2592,0.27,-0.9848,1.7411,0.2899,0.0951,0.0782,-0.0141,0.1631,-0.3123,0.0671,-0.0436,0.0053,-0.0395,0.1563,0.0339,-0.0178,-0.0659,0.0625,-0.0001,0.0217,0.188,-0.0473,-0.1137,0.0652,0.0157,0.013,-0.0009,-0.0002,-0.0042,0.1749,0.4756,-0.6833,0.3165,0.6912,-0.9311,0.3113,-0.4216,0.3629,-0.0295,0.6767,-0.9298,0.4424,-0.5659,0.393,0.4673,0.5272,-0.7038,0.0,0.0,0.0,0.0,0.0,0.0,0.0,0.0,0.0,
3.16,run,0.14,3.32,-0.37,-0.03,0.18,0.0,0.0,0.0,0.163,6.06,1.14,9.76,10.63,13.45,-14.15,11.07,-48.25,96.94,-0.97,12.48,-14.06,15.38,-56.16,99.58,16.17,4.57,5.01,5.92,1.3,6.39,11.13,12.41,-14.12,10.75,-47.55,94.88,-0.96,11.74,-13.7,15.59,-55.92,97.74,16.16,3.19,5.29,0.1693,0.4781,-0.6896,0.3181,0.6802,-0.9308,0.3073,-0.4099,0.3515,-0.0274,0.668,-0.9258,0.4453,-0.5622,0.3851,0.4617,0.5126,-0.7025,0.0,0.0,0.006,0.013,0.006,0.0,0.006,0.006,0.0,0.0,0.013,0.006,0.0,0.006,0.006,0.0,0.019,0.006,0.1089,0.0046,0.1902,0.1887,0.2408,-0.25,0.1963,-0.8544,1.6935,-0.0169,0.2255,-0.25,0.27,-0.9848,1.7411,0.2884,0.0859,0.0798,-0.0099,0.143,-0.3108,0.0528,-0.0535,0.0037,-0.0392,0.1497,-0.0109,-0.0182,-0.0691,0.0783,-0.0001,0.0152,0.1316,-0.0389,-0.1141,0.0514,0.017,0.0133,0.0052,0.0021,-0.0008,0.1714,0.4778,-0.6865,0.3174,0.6861,-0.9323,0.3099,-0.4161,0.3581,-0.028,0.6725,-0.9281,0.4447,-0.5649,0.39,0.4652,0.5196,-0.703,0.0,0.0,0.0,0.0,0.0,0.0,0.0,0.0,0.0,
3.2,run,0.18,3.33,0.43,0.22,-0.21,0.0,0.0,0.0,0.163,5.62,1.23,8.61,10.72,13.1,-14.15,10.99,-47.81,96.06,-0.97,12.3,-13.71,15.47,-56.16,98.61,16.17,4.13,5.19,5.87,1.31,6.28,11.11,12.19,-14.11,10.71,-47.24,94.45,-0.93,11.59,-13.48,15.6,-55.8,97.41,16.05,2.84,5.46,0.1678,0.4784,-0.6908,0.3174,0.6762,-0.9307,0.3059,-0.4043,0.3464,-0.0265,0.6652,-0.9233,0.4456,-0.5601,0.3813,0.4584,0.5062,-0.7005,0.0,0.0,0.006,0.013,0.006,0.0,0.006,0.006,0.0,0.0,0.013,0.006,0.0,0.006,0.006,0.0,0.019,0.006,0.1058,0.0107,0.1672,0.1887,0.2362,-0.25,0.1963,-0.8452,1.6843,-0.0153,0.2194,-0.247,0.27,-0.9817,1.7349,0.2823,0.0752,0.0828,-0.0184,0.123,-0.3034,0.0369,-0.0546,0.0026,-0.0274,0.1391,-0.0419,-0.007,-0.0713,0.0662,-0.0001,0.0221,0.0692,-0.0501,-0.12,0.0474,0.0133,0.0134,-0.0065,-0.0006,0.0031,0.1693,0.4781,-0.6896,0.3181,0.6802,-0.9308,0.3073,-0.4099,0.3515,-0.0274,0.668,-0.9258,0.4453,-0.5622,0.3851,0.4617,0.5126,-0.7025,0.0,0.0,0.0,0.0,0.0,0.0,0.0,0.0,0.0,
3.24,run,0.16,3.31,-0.26,-0.09,0.12,0.0,0.0,0.0,0.163,5.89,1.23,7.65,10.72,12.83,-14.15,10.9,-47.46,95.54,-0.97,12.04,-13.71,15.38,-55.99,97.91,16.17,3.69,5.19,5.82,1.14,6.33,11.04,11.98,-13.95,10.65,-47.16,93.78,-0.93,11.5,-13.38,15.61,-55.7,96.77,15.99,2.76,5.34,0.1663,0.4752,-0.6902,0.3155,0.6724,-0.9288,0.3043,-0.403,0.3385,-0.0267,0.6636,-0.9221,0.446,-0.5582,0.3737,0.4569,0.5047,-0.7019,0.0,0.0,0.006,0.013,0.006,0.0,0.006,0.006,0.0,0.0,0.013,0.006,0.0,0.006,0.006,0.0,0.019,0.006,0.0982,0.0123,0.1473,0.1902,0.2301,-0.25,0.1948,-0.8376,1.669,-0.0153,0.2163,-0.2408,0.2715,-0.9817,1.7181,0.2823,0.0675,0.0859,-0.0417,0.0918,-0.2874,0.0316,-0.0613,0.0018,-0.025,0.1262,-0.0871,-0.0049,-0.0615,0.0695,0.0057,0.0155,-0.015,-0.0351,-0.1128,0.0447,0.0166,0.0146,0.0075,0.0038,-0.0037,0.1678,0.4784,-0.6908,0.3174,0.6762,-0.9307,0.3059,-0.4043,0.3464,-0.0265,0.6652,-0.9233,0.4456,-0.5601,0.3813,0.4584,0.5062,-0.7005,0.0,0.0,0.0,0.0,0.0,0.0,0.0,0.0,0.0,
3.28,run,0.19,3.32,0.26,0.2,-0.85,0.0,0.0,0.0,0.163,6.06,1.23,6.94,10.72,12.57,-14.15,10.72,-47.29,95.01,-0.97,11.95,-13.36,15.47,-55.81,97.29,16.08,3.34,5.19,5.76,1.1,6.28,11.02,11.82,-13.93,10.65,-47.02,93.48,-0.9,11.48,-13.4,15.65,-55.52,96.56,15.98,2.58,5.46,0.1646,0.4745,-0.6908,0.3148,0.6695,-0.9286,0.3043,-0.4004,0.335,-0.0257,0.6632,-0.9223,0.4472,-0.5549,0.3712,0.4566,0.5014,-0.7005,0.0,0.006,0.006,0.006,0.006,0.0,0.0,0.0,0.013,0.0,0.006,0.0,0.006,0.006,0.0,0.006,0.019,0.0,0.1028,0.0123,0.1304,0.1902,0.2255,-0.25,0.1933,-0.8314,1.6598,-0.0153,0.2117,-0.2408,0.27,-0.9787,1.7058,0.2823,0.0598,0.0859,-0.0121,0.0643,-0.2639,0.0221,-0.06,0.0013,-0.0232,0.1112,-0.0952,-0.0034,-0.0601,0.0486,-0.0017,0.0222,-0.0561,-0.0245,-0.1075,0.0313,0.015,0.0128,-0.0045,-0.0015,0.0022,0.1663,0.4752,-0.6902,0.3155,0.6724,-0.9288,0.3043,-0.403,0.3385,-0.0267,0.6636,-0.9221,0.446,-0.5582,0.3737,0.4569,0.5047,-0.7019,0.0,0.0,0.0,0.0,0.0,0.0,0.0,0.0,0.0,
3.32,run,0.2,3.33,0.5,0.39,0.87,0.0,0.0,0.0,0.163,5.45,1.23,6.59,10.72,12.39,-14.06,10.72,-47.2,94.48,-0.97,11.95,-13.36,15.56,-55.63,96.77,16.08,3.25,5.19,5.71,0.94,6.33,10.95,11.64,-13.89,10.63,-47.06,93.1,-0.87,11.39,-13.47,15.69,-55.45,96.24,15.99,2.49,5.33,0.1632,0.4717,-0.6903,0.3128,0.6662,-0.9282,0.3037,-0.4011,0.3306,-0.0248,0.6616,-0.9232,0.4483,-0.5537,0.3676,0.4569,0.4998,-0.702,0.0,0.006,0.006,0.006,0.006,0.0,0.0,0.0,0.013,0.0,0.006,0.0,0.006,0.006,0.0,0.006,0.019,0.0,0.1058,0.0123,0.1181,0.1902,0.2209,-0.25,0.1902,-0.8283,1.6506,-0.0153,0.2102,-0.2347,0.2715,-0.9756,1.695,0.2807,0.0537,0.0859,0.0031,0.045,-0.231,0.0155,-0.0594,0.0009,-0.0278,0.0894,-0.1013,-0.0024,-0.0479,0.0572,0.0046,0.0271,-0.0798,-0.023,-0.0984,0.0219,0.0173,0.0133,0.0045,0.0035,-0.0149,0.1646,0.4745,-0.6908,0.3148,0.6695,-0.9286,0.3043,-0.4004,0.335,-0.0257,0.6632,-0.9223,0.4472,-0.5549,0.3712,0.4566,0.5014,-0.7005,0.0,0.0,0.0,0.0,0.0,0.0,0.0,0.0,0.0,
3.36,run,0.19,3.34,0.31,0.11,-0.26,0.0,0.0,0.0,0.163,5.62,1.23,6.5,10.72,12.3,-13.97,10.72,-47.2,94.04,-0.97,11.95,-13.36,15.56,-55.63,96.42,16.08,3.16,5.19,5.73,0.85,6.28,10.95,11.63,-13.66,10.63,-47.01,92.79,-0.93,11.41,-13.34,15.67,-55.39,95.89,15.91,2.5,5.29,0.1638,0.4699,-0.6908,0.3129,0.6661,-0.9254,0.3037,-0.4001,0.3269,-0.0265,0.662,-0.9217,0.4477,-0.5525,0.3634,0.4545,0.5,-0.7024,0.0,0.006,0.006,0.006,0.006,0.0,0.0,0.0,0.013,0.0,0.006,0.0,0.006,0.006,0.0,0.006,0.019,0.0,0.0951,0.0123,0.112,0.1902,0.2178,-0.2485,0.1902,-0.8268,1.6414,-0.0153,0.2102,-0.2347,0.273,-0.9725,1.6858,0.2807,0.0522,0.0859,-0.0379,0.0315,-0.1846,0.0108,-0.053,0.0063,-0.0195,0.0683,-0.1053,-0.0017,-0.0335,0.04,0.0089,0.0304,-0.0902,-0.0161,-0.0746,0.0153,0.0185,0.0144,0.0088,0.0069,0.0152,0.1632,0.4717,-0.6903,0.3128,0.6662,-0.9282,0.3037,-0.4011,0.3306,-0.0248,0.6616,-0.9232,0.4483,-0.5537,0.3676,0.4569,0.4998,-0.702,0.0,0.0,0.0,0.0,0.0,0.0,0.0,0.0,0.0,
3.4,run,0.19,3.36,0.11,0.21,-0.45,0.0,0.0,0.0,0.163,5.98,1.23,6.5,10.72,12.13,-13.8,10.72,-47.2,93.6,-0.97,11.95,-13.36,15.56,-55.46,96.06,16.0,2.99,5.19,5.69,0.84,6.28,10.94,11.53,-13.7,10.62,-47.1,92.59,-0.93,11.38,-13.39,15.7,-55.34,95.71,15.96,2.47,5.3,0.1627,0.4699,-0.6908,0.3125,0.6642,-0.9259,0.3033,-0.4019,0.3246,-0.0264,0.6614,-0.9223,0.4487,-0.5516,0.3613,0.4559,0.4994,-0.7024,0.0,0.006,0.0,0.0,0.013,0.0,0.0,0.0,0.013,0.0,0.013,0.0,0.006,0.0,0.0,0.006,0.013,0.0,0.0982,0.0123,0.1104,0.1902,0.2163,-0.247,0.1902,-0.8268,1.6337,-0.0153,0.2102,-0.2347,0.273,-0.9725,1.6797,0.2807,0.0506,0.0859,-0.015,0.0221,-0.135,0.0076,-0.0429,0.0102,-0.0136,0.0478,-0.1024,-0.0012,-0.0235,0.028,0.0063,0.0213,-0.0861,-0.0113,-0.058,0.0107,0.0174,0.0152,0.0055,0.0019,-0.0046,0.1638,0.4699,-0.6908,0.3129,0.6661,-0.9254,0.3037,-0.4001,0.3269,-0.0265,0.662,-0.9217,0.4477,-0.5525,0.3634,0.4545,0.5,-0.7024,0.0,0.0,0.0,0.0,0.0,0.0,0.0,0.0,0.0,
3.44,run,0.17,3.34,-0.35,-0.28,1.07,0.0,0.0,0.0,0.163,5.45,1.23,6.5,10.72,12.04,-13.89,10.72,-47.29,93.25,-0.97,11.95,-13.36,15.56,-55.55,95.8,15.91,2.99,5.19,5.66,0.75,6.31,10.89,11.44,-13.71,10.61,-47.12,92.47,-0.87,11.35,-13.43,15.74,-55.24,95.63,16.0,2.44,5.32,0.1618,0.4682,-0.6905,0.3111,0.6625,-0.926,0.3032,-0.4022,0.3232,-0.025,0.6609,-0.9227,0.4497,-0.5499,0.3603,0.4572,0.4988,-0.7021,0.0,0.006,0.0,0.0,0.013,0.0,0.0,0.0,0.013,0.0,0.013,0.0,0.006,0.0,0.0,0.006,0.013,0.0,0.1043,0.0123,0.1104,0.1902,0.2132,-0.2439,0.1902,-0.8268,1.626,-0.0153,0.2102,-0.2347,0.273,-0.9695,1.6736,0.2792,0.0476,0.0859,0.0122,0.0154,-0.0945,0.0053,-0.0414,0.0185,-0.0095,0.0335,-0.1001,-0.0008,-0.0164,0.0196,0.0044,0.0263,-0.083,-0.0136,-0.0519,0.0075,0.0179,0.0167,0.0019,0.0037,-0.0078,0.1627,0.4699,-0.6908,0.3125,0.6642,-0.9259,0.3033,-0.4019,0.3246,-0.0264,0.6614,-0.9223,0.4487,-0.5516,0.3613,0.4559,0.4994,-0.7024,0.0,0.0,0.0,0.0,0.0,0.0,0.0,0.0,0.0,
3.48,run,0.19,3.36,0.41,0.48,-0.38,0.0,0.0,0.0,0.163,5.71,1.23,6.5,10.72,11.95,-13.71,10.72,-47.2,92.99,-0.97,11.95,-13.36,15.56,-55.55,95.62,15.91,2.99,5.19,5.71,0.76,6.28,10.92,11.54,-13.6,10.65,-47.07,92.49,-0.94,11.43,-13.35,15.69,-55.21,95.44,15.94,2.5,5.46,0.1633,0.4683,-0.6908,0.312,0.6643,-0.9247,0.3042,-0.4012,0.3234,-0.0268,0.6624,-0.9217,0.4483,-0.5492,0.3581,0.4553,0.5,-0.7005,0.0,0.006,0.0,0.0,0.013,0.0,0.0,0.0,0.013,0.0,0.013,0.0,0.006,0.0,0.0,0.006,0.013,0.0,0.0951,0.0123,0.1104,0.1902,0.2117,-0.2454,0.1902,-0.8283,1.6199,-0.0153,0.2102,-0.2347,0.273,-0.971,1.669,0.2777,0.0476,0.0859,-0.0267,0.0108,-0.0661,0.0037,-0.0348,0.0071,-0.0067,0.0176,-0.0935,-0.0006,-0.0115,0.0137,0.0031,0.0125,-0.0757,-0.0154,-0.0363,0.0053,0.0162,0.0151,-0.0061,-0.0049,0.0187,0.1618,0.4682,-0.6905,0.3111,0.6625,-0.926,0.3032,-0.4022,0.3232,-0.025,0.6609,-0.9227,0.4497,-0.5499,0.3603,0.4572,0.4988,-0.7021,0.0,0.0,0.0,0.0,0.0,0.0,0.0,0.0,0.0,
3.52,run,0.2,3.36,0.1,0.0,-0.26,0.0,0.0,0.0,0.163,5.8,1.23,6.5,10.72,11.95,-13.71,10.72,-47.29,92.99,-0.97,11.95,-13.36,15.64,-55.28,95.54,15.91,2.99,5.19,5.68,0.68,6.35,10.86,11.44,-13.62,10.6,-47.18,92.27,-0.89,11.34,-13.37,15.7,-55.23,95.31,15.98,2.49,5.26,0.1624,0.467,-0.69,0.3104,0.6625,-0.925,0.3029,-0.4033,0.3208,-0.0254,0.6608,-0.9221,0.4485,-0.5496,0.3566,0.4566,0.4997,-0.7028,0.0,0.013,0.0,0.006,0.013,0.0,0.0,0.0,0.013,0.0,0.013,0.0,0.0,0.006,0.006,0.0,0.006,0.0,0.0997,0.0123,0.1104,0.1902,0.2102,-0.2424,0.1902,-0.8268,1.6153,-0.0153,0.2102,-0.2347,0.273,-0.971,1.6659,0.2777,0.0476,0.0859,-0.0014,0.0076,-0.0463,0.0026,-0.0301,0.0164,-0.0047,0.018,-0.0827,-0.0004,-0.008,0.0096,0.0021,0.0088,-0.0645,-0.0107,-0.0254,0.0037,0.0172,0.0167,0.0072,0.0083,-0.0066,0.1633,0.4683,-0.6908,0.312,0.6643,-0.9247,0.3042,-0.4012,0.3234,-0.0268,0.6624,-0.9217,0.4483,-0.5492,0.3581,0.4553,0.5,-0.7005,0.0,0.0,0.0,0.0,0.0,0.0,0.0,0.0,0.0,
3.56,run,0.19,3.35,-0.12,0.06,1.36,0.0,0.0,0.0,0.163,5.54,1.23,6.5,10.72,11.95,-13.71,10.72,-47.29,92.9,-0.97,11.95,-13.36,15.56,-55.37,95.54,15.91,2.99,5.19,5.7,0.68,6.28,10.89,11.44,-13.62,10.62,-47.23,92.29,-0.92,11.37,-13.46,15.71,-55.26,95.31,15.99,2.49,5.25,0.1627,0.4669,-0.6908,0.3112,0.6625,-0.9249,0.3033,-0.4041,0.3211,-0.0262,0.6612,-0.9231,0.4489,-0.5502,0.3566,0.4568,0.4998,-0.7029,0.0,0.013,0.0,0.006,0.013,0.0,0.0,0.0,0.013,0.0,0.013,0.0,0.0,0.006,0.006,0.0,0.006,0.0,0.1012,0.0123,0.1104,0.1902,0.2102,-0.2424,0.1902,-0.8283,1.6153,-0.0153,0.2102,-0.2347,0.2746,-0.9664,1.6644,0.2777,0.0476,0.0859,0.0047,0.0053,-0.0324,0.0018,-0.0211,0.0115,-0.0033,0.0069,-0.0579,-0.0003,-0.0056,0.0067,0.0072,0.0233,-0.0509,-0.0075,-0.0178,0.0026,0.0182,0.0168,0.0017,0.0001,-0.0046,0.1624,0.467,-0.69,0.3104,0.6625,-0.925,0.3029,-0.4033,0.3208,-0.0254,0.6608,-0.9221,0.4485,-0.5496,0.3566,0.4566,0.4997,-0.7028,0.0,0.0,0.0,0.0,0.0,0.0,0.0,0.0,0.0,
3.6,run,0.18,3.35,0.08,0.07,-1.45,0.0,0.0,0.0,0.163,5.98,1.23,6.5,10.72,11.95,-13.71,10.72,-47.29,92.9,-0.97,11.95,-13.36,15.64,-55.46,95.54,15.91,2.99,5.19,5.73,0.66,6.21,10.92,11.49,-13.51,10.62,-47.13,92.29,-0.93,11.37,-13.38,15.66,-55.2,95.24,15.92,2.47,5.31,0.1636,0.4666,-0.6916,0.3119,0.6634,-0.9236,0.3033,-0.4024,0.321,-0.0267,0.6612,-0.9221,0.4475,-0.5491,0.3557,0.4549,0.4994,-0.7022,0.0,0.013,0.0,0.006,0.013,0.0,0.0,0.0,0.013,0.0,0.013,0.0,0.0,0.006,0.006,0.0,0.006,0.0,0.0966,0.0123,0.1104,0.1902,0.2102,-0.2424,0.1902,-0.8283,1.6137,-0.0153,0.2102,-0.2347,0.273,-0.9679,1.6644,0.2777,0.0476,0.0859,-0.0112,0.0037,-0.0227,0.0013,-0.0148,0.0081,-0.0023,0.0048,-0.0454,-0.0002,-0.0039,0.0047,0.0002,0.0115,-0.0356,-0.0053,-0.0125,0.0018,0.0176,0.0163,-0.0021,0.001,0.0238,0.1627,0.4669,-0.6908,0.3112,0.6625,-0.9249,0.3033,-0.4041,0.3211,-0.0262,0.6612,-0.9231,0.4489,-0.5502,0.3566,0.4568,0.4998,-0.7029,0.0,0.0,0.0,0.0,0.0,0.0,0.0,0.0,0.0,
3.64,run,0.17,3.34,-0.43,-0.2,1.62,0.0,0.0,0.0,0.163,5.36,1.23,6.5,10.72,11.95,-13.62,10.72,-47.2,92.9,-0.97,11.95,-13.36,15.56,-55.28,95.54,15.91,2.99,5.19,5.69,0.72,6.29,10.89,11.4,-13.72,10.59,-47.31,92.21,-0.91,11.32,-13.49,15.69,-55.31,95.16,16.0,2.46,5.23,0.1626,0.4675,-0.6907,0.3112,0.6617,-0.9261,0.3025,-0.4057,0.3202,-0.0261,0.6604,-0.9234,0.4484,-0.5512,0.3549,0.4572,0.4992,-0.7032,0.019,0.013,0.0,0.006,0.013,0.0,0.006,0.0,0.019,0.0,0.013,0.0,0.006,0.0,0.006,0.0,0.013,0.0,0.1043,0.0123,0.1104,0.1902,0.2102,-0.2424,0.1902,-0.8283,1.6137,-0.0153,0.2102,-0.2347,0.2746,-0.9695,1.6644,0.2777,0.0476,0.0859,0.0205,0.0026,-0.0159,0.0009,-0.0103,0.0056,-0.0016,0.0034,-0.0318,-0.0001,-0.0028,0.0033,0.0058,0.0024,-0.0249,-0.0037,-0.0087,0.0013,0.0172,0.0164,0.0015,0.0011,-0.0253,0.1636,0.4666,-0.6916,0.3119,0.6634,-0.9236,0.3033,-0.4024,0.321,-0.0267,0.6612,-0.9221,0.4475,-0.5491,0.3557,0.4549,0.4994,-0.7022,0.0,0.0,0.0,0.0,0.0,0.0,0.0,0.0,0.0,
3.68,run,0.19,3.36,0.52,0.5,-0.76,0.0,0.0,0.0,0.163,5.62,1.23,6.5,10.72,11.95,-13.71,10.72,-47.2,92.9,-0.97,11.95,-13.36,15.56,-55.46,95.27,15.91,2.99,5.19,5.75,0.67,6.17,10.95,11.51,-13.49,10.61,-47.14,92.27,-0.97,11.37,-13.35,15.63,-55.26,95.13,15.88,2.44,5.34,0.1644,0.4668,-0.6921,0.3127,0.6639,-0.9234,0.3031,-0.4025,0.3209,-0.0278,0.6613,-0.9217,0.4467,-0.5501,0.3545,0.4536,0.4989,-0.7019,0.019,0.013,0.0,0.006,0.013,0.0,0.006,0.0,0.019,0.0,0.013,0.0,0.006,0.0,0.006,0.0,0.013,0.0,0.0936,0.0123,0.1104,0.1902,0.2102,-0.2408,0.1902,-0.8268,1.6137,-0.0153,0.2102,-0.2347,0.273,-0.9664,1.6644,0.2777,0.0476,0.0859,-0.026,0.0018,-0.0111,0.0006,-0.0072,0.0097,-0.0011,0.0081,-0.0222,-0.0001,-0.0019,0.0023,-0.0017,0.0132,-0.0174,-0.0026,-0.0061,0.0009,0.016,0.0152,-0.0076,-0.0035,0.0283,0.1626,0.4675,-0.6907,0.3112,0.6617,-0.9261,0.3025,-0.4057,0.3202,-0.0261,0.6604,-0.9234,0.4484,-0.5512,0.3549,0.4572,0.4992,-0.7032,0.0,0.0,0.0,0.0,0.0,0.0,0.0,0.0,0.0,
3.72,run,0.19,3.36,0.13,0.16,-0.2,0.0,0.0,0.0,0.163,5.98,1.23,6.5,10.72,11.95,-13.71,10.72,-47.2,92.9,-0.97,11.95,-13.36,15.56,-55.37,95.19,15.91,2.99,5.19,5.72,0.64,6.35,10.87,11.43,-13.63,10.58,-47.31,92.11,-0.93,11.32,-13.41,15.64,-55.32,94.99,15.96,2.5,5.18,0.1634,0.4662,-0.69,0.3106,0.6624,-0.925,0.3022,-0.4057,0.3189,-0.0265,0.6603,-0.9225,0.4469,-0.5512,0.3528,0.4559,0.5001,-0.7037,0.019,0.013,0.0,0.006,0.013,0.0,0.006,0.0,0.019,0.0,0.013,0.0,0.006,0.0,0.006,0.0,0.013,0.0,0.0982,0.0123,0.1104,0.1902,0.2102,-0.2424,0.1902,-0.8268,1.6137,-0.0153,0.2102,-0.2347,0.273,-0.9695,1.6598,0.2777,0.0476,0.0859,-0.0009,0.0013,-0.0078,0.0004,-0.0051,0.001,-0.0008,0.0057,-0.0156,-0.0001,-0.0014,0.0016,-0.0012,-0.0023,-0.0295,-0.0018,-0.0043,0.0006,0.0174,0.0169,0.0091,0.0087,-0.0133,0.1644,0.4668,-0.6921,0.3127,0.6639,-0.9234,0.3031,-0.4025,0.3209,-0.0278,0.6613,-0.9217,0.4467,-0.5501,0.3545,0.4536,0.4989,-0.7019,0.0,0.0,0.0,0.0,0.0,0.0,0.0,0.0,0.0,
3.76,run,0.2,3.35,-0.05,-0.04,1.44,0.0,0.0,0.0,0.163,5.27,1.23,6.5,10.72,11.87,-13.62,10.72,-47.2,92.9,-0.97,11.95,-13.36,15.56,-55.37,95.1,15.91,2.99,5.19,5.71,0.62,6.31,10.89,11.4,-13.57,10.58,-47.27,92.17,-0.91,11.31,-13.45,15.65,-55.24,95.08,15.96,2.46,5.25,0.1632,0.4659,-0.6904,0.311,0.6619,-0.9243,0.3023,-0.4049,0.3196,-0.0261,0.6602,-0.9229,0.4472,-0.5498,0.3539,0.4561,0.4993,-0.7029,0.019,0.013,0.0,0.0,0.006,0.0,0.0,0.0,0.013,0.0,0.013,0.0,0.006,0.0,0.0,0.0,0.006,0.0,0.1043,0.0123,0.1104,0.1902,0.2102,-0.2424,0.1902,-0.8268,1.6137,-0.0153,0.2102,-0.2347,0.273,-0.9679,1.6582,0.2777,0.0476,0.0859,0.0223,0.0009,-0.0054,0.0003,-0.0035,0.0007,-0.0005,0.004,-0.0109,-0.0,-0.0009,0.0011,-0.0008,0.0041,-0.0264,-0.0013,-0.003,0.0004,0.0178,0.0173,0.0023,0.0029,-0.0036,0.1634,0.4662,-0.69,0.3106,0.6624,-0.925,0.3022,-0.4057,0.3189,-0.0265,0.6603,-0.9225,0.4469,-0.5512,0.3528,0.4559,0.5001,-0.7037,0.0,0.0,0.0,0.0,0.0,0.0,0.0,0.0,0.0,
3.8,run,0.21,3.35,0.31,0.27,-0.97,0.0,0.0,0.0,0.163,5.8,1.23,6.5,10.72,11.87,-13.62,10.72,-47.2,92.9,-0.97,11.95,-13.36,15.56,-55.28,95.1,15.91,2.99,5.19,5.76,0.61,6.27,10.91,11.52,-13.5,10.61,-47.2,92.16,-0.98,11.4,-13.36,15.61,-55.24,94.96,15.9,2.54,5.31,0.1646,0.4657,-0.691,0.3117,0.664,-0.9235,0.3032,-0.4036,0.3195,-0.0279,0.6618,-0.9219,0.446,-0.5499,0.3525,0.4543,0.5008,-0.7022,0.019,0.013,0.0,0.0,0.006,0.0,0.0,0.0,0.013,0.0,0.013,0.0,0.006,0.0,0.0,0.0,0.006,0.0,0.092,0.0123,0.1104,0.1902,0.2086,-0.2408,0.1902,-0.8268,1.6137,-0.0153,0.2102,-0.2347,0.273,-0.9679,1.6567,0.2777,0.0476,0.0859,-0.0304,0.0006,-0.0038,0.0002,-0.0082,0.0063,-0.0004,0.0028,-0.0076,-0.0,-0.0007,0.0008,-0.0006,0.0029,-0.0242,-0.0009,-0.0021,0.0003,0.0183,0.0164,-0.0008,-0.0007,0.0251,0.1632,0.4659,-0.6904,0.311,0.6619,-0.9243,0.3023,-0.4049,0.3196,-0.0261,0.6602,-0.9229,0.4472,-0.5498,0.3539,0.4561,0.4993,-0.7029,0.0,0.0,0.0,0.0,0.0,0.0,0.0,0.0,0.0,
3.84,run,0.21,3.36,0.05,0.14,0.1,0.0,0.0,0.0,0.163,5.8,1.14,6.5,10.72,11.87,-13.54,10.72,-47.2,92.9,-0.97,11.95,-13.36,15.56,-55.46,95.1,15.91,2.99,5.19,5.71,0.6,6.33,10.87,11.41,-13.62,10.59,-47.34,92.12,-0.92,11.34,-13.5,15.66,-55.3,95.01,15.99,2.52,5.17,0.1632,0.4655,-0.6903,0.3106,0.6621,-0.9249,0.3025,-0.4063,0.3191,-0.0262,0.6607,-0.9235,0.4475,-0.5508,0.353,0.4568,0.5004,-0.7039,0.019,0.013,0.0,0.0,0.006,0.0,0.0,0.0,0.013,0.0,0.013,0.0,0.006,0.0,0.0,0.0,0.006,0.0,0.1012,0.0123,0.1104,0.1902,0.2086,-0.2408,0.1902,-0.8268,1.6137,-0.0153,0.2102,-0.2347,0.273,-0.9664,1.6567,0.2777,0.0476,0.0859,0.0134,0.0004,-0.0027,0.0002,-0.0058,0.0044,-0.0003,0.002,-0.0053,-0.0,-0.0005,0.0006,-0.0004,0.0078,-0.017,-0.0006,-0.0015,0.0002,0.0192,0.0164,0.0055,0.0047,-0.0169,0.1646,0.4657,-0.691,0.3117,0.664,-0.9235,0.3032,-0.4036,0.3195,-0.0279,0.6618,-0.9219,0.446,-0.5499,0.3525,0.4543,0.5008,-0.7022,0.0,0.0,0.0,0.0,0.0,0.0,0.0,0.0,0.0,
3.88,run,0.2,3.35,-0.25,-0.13,1.38,0.0,0.0,0.0,0.163,5.36,1.14,6.5,10.72,11.87,-13.54,10.72,-47.37,92.72,-0.97,11.95,-13.36,15.56,-55.37,95.01,15.91,2.99,5.19,5.72,0.6,6.32,10.89,11.41,-13.58,10.59,-47.26,92.09,-0.93,11.34,-13.42,15.64,-55.22,94.99,15.96,2.49,5.27,0.1634,0.4655,-0.6904,0.3111,0.662,-0.9245,0.3027,-0.4048,0.3187,-0.0264,0.6607,-0.9226,0.4467,-0.5495,0.3528,0.4559,0.4998,-0.7027,0.006,0.013,0.0,0.006,0.006,0.0,0.0,0.006,0.013,0.0,0.013,0.006,0.0,0.006,0.0,0.0,0.013,0.0,0.1012,0.0107,0.1104,0.1902,0.2086,-0.2393,0.1902,-0.8268,1.6137,-0.0153,0.2102,-0.2347,0.273,-0.9695,1.6567,0.2777,0.0476,0.0859,0.0094,-0.0054,-0.0019,0.0001,-0.004,0.0088,-0.0002,0.0014,-0.0037,-0.0,-0.0003,0.0004,-0.0003,-0.006,-0.0119,-0.0004,-0.001,0.0001,0.0197,0.0167,0.0008,0.0025,0.0018,0.1632,0.4655,-0.6903,0.3106,0.6621,-0.9249,0.3025,-0.4063,0.3191,-0.0262,0.6607,-0.9235,0.4475,-0.5508,0.353,0.4568,0.5004,-0.7039,0.0,0.0,0.0,0.0,0.0,0.0,0.0,0.0,0.0,
3.92,run,0.22,3.35,0.24,0.27,-0.74,0.0,0.0,0.0,0.163,5.98,1.14,6.5,10.72,11.87,-13.54,10.72,-47.37,92.72,-0.97,11.95,-13.36,15.56,-55.37,95.01,15.91,2.99,5.19,5.74,0.57,6.29,10.9,11.51,-13.52,10.64,-47.21,92.14,-0.96,11.42,-13.41,15.63,-55.19,94.97,15.93,2.55,5.3,0.1639,0.465,-0.6908,0.3114,0.6637,-0.9237,0.3039,-0.4039,0.3193,-0.0275,0.6621,-0.9225,0.4466,-0.549,0.3525,0.4551,0.501,-0.7024,0.006,0.013,0.0,0.006,0.006,0.0,0.0,0.006,0.013,0.0,0.013,0.006,0.0,0.006,0.0,0.0,0.013,0.0,0.0936,0.0107,0.1104,0.1902,0.2086,-0.2393,0.1902,-0.8299,1.6107,-0.0153,0.2102,-0.2347,0.273,-0.9679,1.6552,0.2777,0.0476,0.0859,-0.0222,-0.0038,-0.0013,0.0001,-0.0028,0.0062,-0.0001,-0.0105,-0.0141,-0.0,-0.0002,0.0003,-0.0002,0.0016,-0.0141,-0.0003,-0.0007,0.0001,0.0183,0.016,-0.0044,-0.0023,0.024,0.1634,0.4655,-0.6904,0.3111,0.662,-0.9245,0.3027,-0.4048,0.3187,-0.0264,0.6607,-0.9226,0.4467,-0.5495,0.3528,0.4559,0.4998,-0.7027,0.0,0.0,0.0,0.0,0.0,0.0,0.0,0.0,0.0,
3.96,run,0.21,3.34,-0.4,-0.34,0.99,0.0,0.0,0.0,0.163,5.62,1.14,6.5,10.72,11.87,-13.54,10.72,-47.37,92.72,-0.97,11.95,-13.45,15.56,-55.28,95.01,15.91,2.99,5.19,5.7,0.56,6.34,10.86,11.41,-13.62,10.61,-47.33,92.09,-0.9,11.36,-13.52,15.66,-55.23,95.0,16.01,2.54,5.17,0.1629,0.4648,-0.6901,0.3102,0.662,-0.9249,0.3031,-0.406,0.3187,-0.0258,0.6611,-0.9238,0.4476,-0.5496,0.3529,0.4574,0.5007,-0.7038,0.006,0.013,0.0,0.006,0.006,0.0,0.0,0.006,0.013,0.0,0.013,0.006,0.0,0.006,0.0,0.0,0.013,0.0,0.1043,0.0107,0.1104,0.1902,0.2086,-0.2393,0.1902,-0.8299,1.6107,-0.0153,0.2102,-0.2347,0.273,-0.9679,1.6552,0.2777,0.0476,0.0859,0.0183,-0.0027,-0.0009,0.0001,-0.002,0.0043,-0.0001,-0.0074,-0.0099,-0.0,-0.0002,0.0002,-0.0001,0.0011,-0.0098,-0.0002,-0.0005,0.0001,0.0204,0.0159,0.0043,0.0047,-0.0129,0.1639,0.465,-0.6908,0.3114,0.6637,-0.9237,0.3039,-0.4039,0.3193,-0.0275,0.6621,-0.9225,0.4466,-0.549,0.3525,0.4551,0.501,-0.7024,0.0,0.0,0.0,0.0,0.0,0.0,0.0,0.0,0.0,
4.0,run,0.21,3.34,-0.01,0.02,0.58,0.0,0.0,0.0,0.163,5.45,1.14,6.5,10.72,11.87,-13.54,10.72,-47.37,92.72,-0.97,11.95,-13.45,15.56,-55.37,95.01,15.91,2.99,5.19,5.74,0.59,6.26,10.9,11.51,-13.55,10.64,-47.24,92.21,-0.95,11.44,-13.47,15.64,-55.21,95.04,15.95,2.56,5.32,0.1641,0.4652,-0.6911,0.3114,0.6639,-0.9241,0.304,-0.4044,0.3201,-0.0272,0.6625,-0.9232,0.4469,-0.5493,0.3534,0.4558,0.501,-0.7021,0.0,0.013,0.006,0.0,0.0,0.0,0.0,0.0,0.006,0.0,0.013,0.0,0.0,0.006,0.0,0.0,0.006,0.0,0.0982,0.0107,0.1104,0.1902,0.2086,-0.2393,0.1902,-0.8299,1.6107,-0.0153,0.2102,-0.2362,0.273,-0.9664,1.6552,0.2777,0.0476,0.0859,-0.0101,-0.0019,-0.0006,0.0,-0.0014,0.003,-0.0001,-0.0052,-0.0069,-0.0,-0.0001,-0.0056,-0.0001,0.0065,-0.0069,-0.0001,-0.0004,0.0001,0.0196,0.015,-0.0069,-0.0059,0.0174,0.1629,0.4648,-0.6901,0.3102,0.662,-0.9249,0.3031,-0.406,0.3187,-0.0258,0.6611,-0.9238,0.4476,-0.5496,0.3529,0.4574,0.5007,-0.7038,0.0,0.0,0.0,0.0,0.0,0.0,0.0,0.0,0.0,
4.04,run,0.22,3.34,0.13,0.12,-1.3,0.0,0.0,0.0,0.163,6.06,1.14,6.5,10.72,11.87,-13.54,10.72,-47.37,92.72,-0.97,11.95,-13.45,15.56,-55.37,95.01,15.91,2.99,5.19,5.75,0.58,6.31,10.88,11.53,-13.59,10.63,-47.29,92.17,-0.95,11.43,-13.47,15.63,-55.26,94.98,15.96,2.6,5.25,0.1643,0.4651,-0.6905,0.3108,0.6642,-0.9246,0.3037,-0.4053,0.3196,-0.0272,0.6624,-0.9231,0.4466,-0.5502,0.3527,0.456,0.5017,-0.7029,0.0,0.013,0.006,0.0,0.0,0.0,0.0,0.0,0.006,0.0,0.013,0.0,0.0,0.006,0.0,0.0,0.006,0.0,0.0951,0.0107,0.1104,0.1902,0.2086,-0.2393,0.1902,-0.8299,1.6107,-0.0153,0.2102,-0.2362,0.273,-0.9679,1.6552,0.2777,0.0476,0.0859,-0.0182,-0.0013,-0.0004,0.0,-0.001,0.0021,-0.0,-0.0036,-0.0048,-0.0,-0.0001,-0.0039,-0.0001,-0.0011,-0.0048,-0.0001,-0.0002,0.0,0.0194,0.0156,-0.0003,0.0003,0.01,0.1641,0.4652,-0.6911,0.3114,0.6639,-0.9241,0.304,-0.4044,0.3201,-0.0272,0.6625,-0.9232,0.4469,-0.5493,0.3534,0.4558,0.501,-0.7021,0.0,0.0,0.0,0.0,0.0,0.0,0.0,0.0,0.0,
4.08,run,0.21,3.34,-0.07,0.06,1.25,0.0,0.0,0.0,0.163,5.45,1.14,6.5,10.72,11.87,-13.54,10.72,-47.37,92.72,-0.97,11.95,-13.45,15.56,-55.46,95.01,15.91,2.99,5.19,5.71,0.58,6.36,10.85,11.41,-13.67,10.61,-47.38,92.15,-0.9,11.37,-13.57,15.67,-55.26,95.04,16.03,2.54,5.2,0.163,0.465,-0.6899,0.3101,0.6621,-0.9256,0.3031,-0.4068,0.3194,-0.0256,0.6613,-0.9244,0.4477,-0.5502,0.3534,0.458,0.5008,-0.7036,0.0,0.013,0.006,0.0,0.0,0.0,0.0,0.0,0.006,0.0,0.013,0.0,0.0,0.006,0.0,0.0,0.006,0.0,0.1058,0.0107,0.1104,0.1902,0.2086,-0.2393,0.1902,-0.8299,1.6107,-0.0153,0.2102,-0.2362,0.273,-0.9679,1.6552,0.2777,0.0476,0.0859,0.0288,-0.0009,-0.0003,0.0,-0.0007,0.0015,-0.0,-0.0025,-0.0034,-0.0,-0.0001,-0.0027,-0.0,-0.0008,-0.0034,-0.0001,-0.0002,0.0,0.0202,0.0151,0.0023,0.0021,-0.0227,0.1643,0.4651,-0.6905,0.3108,0.6642,-0.9246,0.3037,-0.4053,0.3196,-0.0272,0.6624,-0.9231,0.4466,-0.5502,0.3527,0.456,0.5017,-0.7029,0.0,0.0,0.0,0.0,0.0,0.0,0.0,0.0,0.0,
4.12,run,0.19,3.36,0.0,0.07,0.14,0.0,0.0,0.0,0.163,5.62,1.14,6.5,10.72,11.87,-13.62,10.72,-47.37,92.72,-0.97,11.95,-13.45,15.56,-55.28,95.01,15.91,2.99,5.19,5.76,0.57,6.31,10.88,11.53,-13.55,10.63,-47.24,92.17,-0.95,11.43,-13.43,15.61,-55.22,94.96,15.93,2.57,5.3,0.1646,0.4648,-0.6905,0.311,0.6642,-0.9241,0.3037,-0.4044,0.3196,-0.0272,0.6623,-0.9227,0.4459,-0.5495,0.3524,0.4552,0.5013,-0.7024,0.0,0.013,0.0,0.0,0.006,0.0,0.0,0.0,0.006,0.0,0.006,0.0,0.0,0.0,0.0,0.0,0.013,0.0,0.0951,0.0107,0.1104,0.1902,0.2086,-0.2393,0.1902,-0.8299,1.6107,-0.0153,0.2102,-0.2362,0.273,-0.9695,1.6552,0.2777,0.0476,0.0859,-0.0199,-0.0006,-0.0002,0.0,-0.0005,0.001,-0.0,-0.0018,-0.0024,-0.0,-0.0,-0.0019,-0.0,-0.0062,-0.0024,-0.0001,-0.0001,0.0,0.0196,0.0153,-0.0012,0.001,0.0218,0.163,0.465,-0.6899,0.3101,0.6621,-0.9256,0.3031,-0.4068,0.3194,-0.0256,0.6613,-0.9244,0.4477,-0.5502,0.3534,0.458,0.5008,-0.7036,0.0,0.0,0.0,0.0,0.0,0.0,0.0,0.0,0.0,
4.16,run,0.22,3.35,0.27,0.11,-1.13,0.0,0.0,0.0,0.163,6.06,1.14,6.5,10.72,11.87,-13.62,10.72,-47.37,92.72,-0.97,11.95,-13.45,15.56,-55.28,95.01,15.91,2.99,5.19,5.74,0.58,6.34,10.87,11.53,-13.62,10.62,-47.34,92.26,-0.93,11.42,-13.52,15.64,-55.29,95.04,15.98,2.6,5.21,0.1641,0.4651,-0.6901,0.3105,0.6642,-0.925,0.3035,-0.4061,0.3207,-0.0267,0.6622,-0.9238,0.4469,-0.5507,0.3534,0.4565,0.5017,-0.7034,0.0,0.013,0.0,0.0,0.006,0.0,0.0,0.0,0.006,0.0,0.006,0.0,0.0,0.0,0.0,0.0,0.013,0.0,0.0982,0.0107,0.1104,0.1902,0.2086,-0.2408,0.1902,-0.8299,1.6107,-0.0153,0.2102,-0.2362,0.273,-0.9664,1.6552,0.2777,0.0476,0.0859,-0.0024,-0.0004,-0.0002,0.0,-0.0003,-0.005,-0.0,-0.0012,-0.0017,-0.0,-0.0,-0.0013,-0.0,0.0071,-0.0017,-0.0,-0.0001,0.0,0.0179,0.0166,0.0,0.0013,0.0024,0.1646,0.4648,-0.6905,0.311,0.6642,-0.9241,0.3037,-0.4044,0.3196,-0.0272,0.6623,-0.9227,0.4459,-0.5495,0.3524,0.4552,0.5013,-0.7024,0.0,0.0,0.0,0.0,0.0,0.0,0.0,0.0,0.0,
4.2,run,0.2,3.33,-0.48,-0.32,1.26,0.0,0.0,0.0,0.163,5.36,1.14,6.5,10.72,11.87,-13.62,10.72,-47.37,92.72,-0.97,11.95,-13.45,15.56,-55.28,95.01,15.91,2.99,5.19,5.72,0.56,6.36,10.85,11.45,-13.66,10.61,-47.39,92.21,-0.9,11.38,-13.58,15.67,-55.29,95.07,16.02,2.57,5.18,0.1634,0.4648,-0.6899,0.3099,0.6627,-0.9254,0.3031,-0.4071,0.3201,-0.0256,0.6614,-0.9245,0.4477,-0.5507,0.3538,0.4578,0.5012,-0.7038,0.0,0.013,0.0,0.0,0.006,0.0,0.0,0.0,0.006,0.0,0.006,0.0,0.0,0.0,0.0,0.0,0.013,0.0,0.1058,0.0107,0.1104,0.1902,0.2086,-0.2408,0.1902,-0.8299,1.6107,-0.0153,0.2102,-0.2362,0.273,-0.9664,1.6552,0.2777,0.0476,0.0859,0.0272,-0.0003,-0.0001,0.0,-0.0002,-0.0035,-0.0,-0.0009,-0.0012,-0.0,-0.0,-0.0009,-0.0,0.005,-0.0012,-0.0,-0.0001,0.0,0.0199,0.0163,0.0047,0.0019,-0.0198,0.1641,0.4651,-0.6901,0.3105,0.6642,-0.925,0.3035,-0.4061,0.3207,-0.0267,0.6622,-0.9238,0.4469,-0.5507,0.3534,0.4565,0.5017,-0.7034,0.0,0.0,0.0,0.0,0.0,0.0,0.0,0.0,0.0,
4.24,run,0.2,3.35,0.33,0.37,-0.17,0.0,0.0,0.0,0.163,5.71,1.14,6.5,10.72,11.87,-13.62,10.72,-47.37,92.72,-0.97,11.95,-13.54,15.56,-55.28,95.01,15.91,2.99,5.19,5.78,0.59,6.29,10.9,11.58,-13.55,10.65,-47.26,92.29,-0.98,11.48,-13.47,15.62,-55.26,95.02,15.93,2.6,5.34,0.1651,0.4653,-0.6908,0.3115,0.6651,-0.9241,0.3042,-0.4048,0.321,-0.0279,0.6632,-0.9232,0.4463,-0.5502,0.3532,0.4552,0.5019,-0.7019,0.006,0.013,0.0,0.0,0.006,0.0,0.0,0.0,0.006,0.0,0.006,0.0,0.0,0.0,0.0,0.0,0.006,0.0,0.0936,0.0107,0.1104,0.1902,0.2086,-0.2408,0.1902,-0.8299,1.6107,-0.0153,0.2102,-0.2362,0.273,-0.9664,1.6552,0.2777,0.0476,0.0859,-0.0267,-0.0002,-0.0001,0.0,-0.0002,-0.0025,-0.0,-0.0006,-0.0008,-0.0,-0.0,-0.0007,-0.0,0.0035,-0.0008,-0.0,-0.0,0.0,0.0183,0.0144,-0.0084,-0.0057,0.022,0.1634,0.4648,-0.6899,0.3099,0.6627,-0.9254,0.3031,-0.4071,0.3201,-0.0256,0.6614,-0.9245,0.4477,-0.5507,0.3538,0.4578,0.5012,-0.7038,0.0,0.0,0.0,0.0,0.0,0.0,0.0,0.0,0.0,
4.28,run,0.21,3.35,0.16,0.07,-0.75,0.0,0.0,0.0,0.163,5.98,1.14,6.5,10.72,11.87,-13.62,10.72,-47.37,92.72,-0.97,11.95,-13.45,15.56,-55.28,95.01,15.91,2.99,5.19,5.74,0.57,6.36,10.85,11.52,-13.64,10.61,-47.35,92.22,-0.91,11.41,-13.53,15.64,-55.29,95.05,15.99,2.6,5.18,0.164,0.4648,-0.6899,0.31,0.664,-0.9251,0.3033,-0.4064,0.3202,-0.0261,0.6621,-0.9239,0.447,-0.5508,0.3535,0.4568,0.5018,-0.7038,0.006,0.013,0.0,0.0,0.006,0.0,0.0,0.0,0.006,0.0,0.006,0.0,0.0,0.0,0.0,0.0,0.006,0.0,0.0997,0.0107,0.1104,0.1902,0.2086,-0.2408,0.1902,-0.8299,1.6107,-0.0153,0.2102,-0.2378,0.273,-0.9664,1.6552,0.2777,0.0476,0.0859,0.0043,-0.0002,-0.0001,0.0,-0.0001,-0.0017,-0.0,-0.0004,-0.0006,-0.0,-0.0,-0.0062,-0.0,0.0024,-0.0006,-0.0,-0.0,0.0,0.0182,0.016,0.0057,0.0065,-0.0029,0.1651,0.4653,-0.6908,0.3115,0.6651,-0.9241,0.3042,-0.4048,0.321,-0.0279,0.6632,-0.9232,0.4463,-0.5502,0.3532,0.4552,0.5019,-0.7019,0.0,0.0,0.0,0.0,0.0,0.0,0.0,0.0,0.0,
4.32,run,0.2,3.33,-0.24,-0.12,1.38,0.0,0.0,0.0,0.163,5.36,1.14,6.5,10.72,11.87,-13.62,10.72,-47.37,92.72,-0.97,11.95,-13.45,15.56,-55.28,95.01,15.91,2.99,5.19,5.73,0.57,6.35,10.86,11.46,-13.64,10.61,-47.37,92.21,-0.91,11.38,-13.56,15.66,-55.28,95.06,16.01,2.57,5.2,0.1636,0.4649,-0.69,0.3102,0.6629,-0.9252,0.3032,-0.4067,0.3201,-0.0259,0.6615,-0.9242,0.4474,-0.5505,0.3536,0.4574,0.5012,-0.7035,0.006,0.013,0.0,0.0,0.006,0.0,0.0,0.0,0.006,0.0,0.006,0.0,0.0,0.0,0.0,0.0,0.006,0.0,0.1043,0.0107,0.1104,0.1902,0.2086,-0.2408,0.1902,-0.8299,1.6107,-0.0153,0.2102,-0.2362,0.273,-0.9664,1.6552,0.2777,0.0476,0.0859,0.0204,-0.0001,-0.0,0.0,-0.0001,-0.0012,-0.0,-0.0003,-0.0004,-0.0,-0.0,0.0014,-0.0,0.0017,-0.0004,-0.0,-0.0,0.0,0.0195,0.0161,0.0028,0.0011,-0.013,0.164,0.4648,-0.6899,0.31,0.664,-0.9251,0.3033,-0.4064,0.3202,-0.0261,0.6621,-0.9239,0.447,-0.5508,0.3535,0.4568,0.5018,-0.7038,0.0,0.0,0.0,0.0,0.0,0.0,0.0,0.0,0.0,
4.36,run,0.21,3.33,0.29,0.27,-0.85,0.0,0.0,0.0,0.163,5.8,1.14,6.5,10.72,11.87,-13.62,10.72,-47.37,92.72,-0.97,11.95,-13.45,15.56,-55.28,95.01,15.91,2.99,5.19,5.78,0.58,6.29,10.9,11.58,-13.53,10.64,-47.25,92.25,-0.97,11.46,-13.46,15.61,-55.25,95.0,15.93,2.6,5.3,0.1651,0.465,-0.6907,0.3113,0.665,-0.9239,0.3039,-0.4046,0.3206,-0.0277,0.6629,-0.923,0.446,-0.55,0.3529,0.455,0.5017,-0.7023,0.006,0.013,0.0,0.0,0.006,0.0,0.0,0.0,0.006,0.0,0.006,0.0,0.0,0.0,0.0,0.0,0.006,0.0,0.0936,0.0107,0.1104,0.1902,0.2086,-0.2408,0.1902,-0.8299,1.6107,-0.0153,0.2102,-0.2362,0.273,-0.9664,1.6552,0.2777,0.0476,0.0859,-0.0258,-0.0001,-0.0,0.0,-0.0001,-0.0008,-0.0,-0.0002,-0.0003,-0.0,-0.0,0.001,-0.0,0.0012,-0.0003,-0.0,-0.0,0.0,0.0181,0.0144,-0.0043,-0.0021,0.024,0.1636,0.4649,-0.69,0.3102,0.6629,-0.9252,0.3032,-0.4067,0.3201,-0.0259,0.6615,-0.9242,0.4474,-0.5505,0.3536,0.4574,0.5012,-0.7035,0.0,0.0,0.0,0.0,0.0,0.0,0.0,0.0,0.0,
4.4,run,0.21,3.32,-0.2,-0.22,0.28,0.0,0.0,0.0,0.163,5.89,1.14,6.5,10.72,11.87,-13.62,10.72,-47.37,92.72,-0.97,11.95,-13.45,15.56,-55.28,95.01,15.91,2.99,5.19,5.73,0.57,6.35,10.86,11.48,-13.65,10.61,-47.38,92.17,-0.91,11.4,-13.56,15.65,-55.3,95.01,16.0,2.58,5.16,0.1637,0.4649,-0.69,0.3101,0.6632,-0.9252,0.3032,-0.4069,0.3197,-0.0261,0.6618,-0.9242,0.4472,-0.5509,0.353,0.4573,0.5015,-0.704,0.006,0.013,0.0,0.0,0.006,0.0,0.0,0.0,0.006,0.0,0.006,0.0,0.0,0.0,0.0,0.0,0.006,0.0,0.1012,0.0107,0.1104,0.1902,0.2086,-0.2408,0.1902,-0.8299,1.6107,-0.0153,0.2102,-0.2362,0.273,-0.9664,1.6552,0.2777,0.0476,0.0859,0.0107,-0.0001,-0.0,0.0,-0.0,-0.0006,-0.0,-0.0001,-0.0002,-0.0,-0.0,0.0007,-0.0,0.0008,-0.0002,-0.0,-0.0,0.0,0.0192,0.0148,0.0051,0.0047,-0.0149,0.1651,0.465,-0.6907,0.3113,0.665,-0.9239,0.3039,-0.4046,0.3206,-0.0277,0.6629,-0.923,0.446,-0.55,0.3529,0.455,0.5017,-0.7023,0.0,0.0,0.0,0.0,0.0,0.0,0.0,0.0,0.0,
4.44,run,0.2,3.3,-0.44,-0.32,0.82,0.0,0.0,0.0,0.163,5.36,1.14,6.5,10.72,11.87,-13.62,10.72,-47.37,92.72,-0.97,11.95,-13.45,15.56,-55.28,95.01,15.91,2.99,5.19,5.74,0.58,6.26,10.89,11.48,-13.56,10.62,-47.28,92.22,-0.93,11.42,-13.54,15.64,-55.21,95.07,15.98,2.54,5.29,0.1641,0.4651,-0.691,0.3112,0.6633,-0.9242,0.3035,-0.405,0.3202,-0.0265,0.6621,-0.924,0.4469,-0.5493,0.3538,0.4566,0.5008,-0.7025,0.006,0.013,0.0,0.0,0.006,0.0,0.0,0.0,0.006,0.0,0.006,0.0,0.0,0.0,0.0,0.0,0.006,0.0,0.1028,0.0107,0.1104,0.1902,0.2086,-0.2408,0.1902,-0.8299,1.6107,-0.0153,0.2102,-0.2362,0.273,-0.9664,1.6552,0.2777,0.0476,0.0859,0.0132,-0.0,-0.0,0.0,-0.0,-0.0004,-0.0,-0.0001,-0.0001,-0.0,-0.0,0.0005,-0.0,0.0006,-0.0001,-0.0,-0.0,0.0,0.0198,0.0134,-0.0035,-0.0038,0.0048,0.1637,0.4649,-0.69,0.3101,0.6632,-0.9252,0.3032,-0.4069,0.3197,-0.0261,0.6618,-0.9242,0.4472,-0.5509,0.353,0.4573,0.5015,-0.704,0.0,0.0,0.0,0.0,0.0,0.0,0.0,0.0,0.0,
4.48,run,0.22,3.31,0.24,0.21,-0.88,0.0,0.0,0.0,0.163,5.98,1.14,6.5,10.72,11.87,-13.62,10.72,-47.37,92.72,-0.97,11.95,-13.45,15.56,-55.28,95.01,15.91,2.99,5.19,5.77,0.61,6.25,10.91,11.57,-13.55,10.64,-47.26,92.24,-0.98,11.48,-13.49,15.62,-55.26,94.99,15.94,2.59,5.31,0.165,0.4656,-0.6912,0.3117,0.6648,-0.9241,0.3041,-0.4048,0.3204,-0.0279,0.6633,-0.9235,0.4464,-0.5502,0.3528,0.4554,0.5017,-0.7022,0.006,0.013,0.0,0.0,0.0,0.0,0.0,0.0,0.013,0.0,0.013,0.0,0.0,0.0,0.0,0.0,0.006,0.0,0.0936,0.0107,0.1104,0.1902,0.2086,-0.2408,0.1902,-0.8299,1.6107,-0.0153,0.2102,-0.2362,0.273,-0.9664,1.6552,0.2777,0.0476,0.0859,-0.0253,-0.0,-0.0,0.0,-0.0,-0.0003,-0.0,-0.0001,-0.0001,-0.0,-0.0,0.0003,-0.0,0.0004,-0.0001,-0.0,-0.0,0.0,0.0185,0.0118,-0.0077,-0.0055,0.0143,0.1641,0.4651,-0.691,0.3112,0.6633,-0.9242,0.3035,-0.405,0.3202,-0.0265,0.6621,-0.924,0.4469,-0.5493,0.3538,0.4566,0.5008,-0.7025,0.0,0.0,0.0,0.0,0.0,0.0,0.0,0.0,0.0,
4.52,run,0.21,3.3,-0.43,-0.29,0.64,0.0,0.0,0.0,0.163,5.8,1.14,6.5,10.72,11.87,-13.62,10.72,-47.37,92.72,-0.97,11.95,-13.45,15.56,-55.28,95.01,15.91,2.99,5.19,5.73,0.57,6.3,10.86,11.45,-13.61,10.61,-47.34,92.16,-0.9,11.39,-13.58,15.66,-55.25,95.03,16.01,2.55,5.18,0.1636,0.4649,-0.6905,0.3104,0.6627,-0.9248,0.3031,-0.4063,0.3195,-0.0258,0.6617,-0.9245,0.4473,-0.5501,0.3533,0.4574,0.5009,-0.7038,0.006,0.013,0.0,0.0,0.0,0.0,0.0,0.0,0.013,0.0,0.013,0.0,0.0,0.0,0.0,0.0,0.006,0.0,0.1043,0.0107,0.1104,0.1902,0.2086,-0.2408,0.1902,-0.8299,1.6107,-0.0153,0.2102,-0.2362,0.273,-0.9664,1.6552,0.2777,0.0476,0.0859,0.0225,-0.0,-0.0,0.0,-0.0,-0.0002,-0.0,-0.0001,-0.0001,-0.0,-0.0,0.0002,-0.0,0.0003,-0.0001,-0.0,-0.0,0.0,0.02,0.0127,0.0041,0.0037,-0.0154,0.165,0.4656,-0.6912,0.3117,0.6648,-0.9241,0.3041,-0.4048,0.3204,-0.0279,0.6633,-0.9235,0.4464,-0.5502,0.3528,0.4554,0.5017,-0.7022,0.0,0.0,0.0,0.0,0.0,0.0,0.0,0.0,0.0,
4.56,run,0.2,3.29,-0.26,-0.13,0.56,0.0,0.0,0.0,0.163,5.54,1.14,6.5,10.72,11.87,-13.62,10.72,-47.37,92.72,-0.97,11.95,-13.54,15.56,-55.28,95.01,15.91,2.99,5.19,5.75,0.6,6.23,10.91,11.5,-13.53,10.63,-47.24,92.22,-0.94,11.44,-13.52,15.63,-55.2,95.05,15.96,2.54,5.33,0.1644,0.4654,-0.6914,0.3116,0.6636,-0.9239,0.3037,-0.4043,0.3203,-0.0269,0.6625,-0.9238,0.4467,-0.549,0.3536,0.4561,0.5007,-0.702,0.006,0.013,0.0,0.0,0.0,0.0,0.0,0.0,0.013,0.0,0.013,0.0,0.0,0.0,0.0,0.0,0.006,0.0,0.1012,0.0107,0.1104,0.1902,0.2086,-0.2408,0.1902,-0.8299,1.6107,-0.0153,0.2102,-0.2362,0.273,-0.9664,1.6552,0.2777,0.0476,0.0859,0.0042,-0.0,-0.0,0.0,-0.0,-0.0001,-0.0,-0.0,-0.0,-0.0,-0.0,0.0002,-0.0,0.0002,-0.0,-0.0,-0.0,0.0,0.0195,0.0116,-0.0076,-0.0051,0.0111,0.1636,0.4649,-0.6905,0.3104,0.6627,-0.9248,0.3031,-0.4063,0.3195,-0.0258,0.6617,-0.9245,0.4473,-0.5501,0.3533,0.4574,0.5009,-0.7038,0.0,0.0,0.0,0.0,0.0,0.0,0.0,0.0,0.0,
4.6,run,0.22,3.29,0.26,0.06,-1.08,0.0,0.0,0.0,0.163,6.06,1.14,6.5,10.72,11.87,-13.62,10.72,-47.37,92.72,-0.97,11.95,-13.54,15.56,-55.28,95.01,15.91,2.99,5.19,5.76,0.61,6.25,10.9,11.55,-13.56,10.63,-47.26,92.22,-0.95,11.47,-13.51,15.63,-55.25,95.01,15.95,2.58,5.29,0.1647,0.4656,-0.6912,0.3114,0.6646,-0.9243,0.3038,-0.4047,0.3202,-0.0273,0.6631,-0.9236,0.4465,-0.55,0.3531,0.4558,0.5014,-0.7024,0.006,0.006,0.006,0.006,0.006,0.0,0.0,0.0,0.013,0.0,0.006,0.0,0.0,0.0,0.0,0.0,0.013,0.0,0.0966,0.0107,0.1104,0.1902,0.2086,-0.2408,0.1902,-0.8299,1.6107,-0.0153,0.2102,-0.2378,0.273,-0.9664,1.6552,0.2777,0.0476,0.0859,-0.0143,-0.0,-0.0,0.0,-0.0,-0.0001,-0.0,-0.0,-0.0,-0.0,-0.0,-0.0056,-0.0,0.0001,-0.0,-0.0,-0.0,0.0,0.0185,0.0109,-0.0045,-0.0022,0.0098,0.1644,0.4654,-0.6914,0.3116,0.6636,-0.9239,0.3037,-0.4043,0.3203,-0.0269,0.6625,-0.9238,0.4467,-0.549,0.3536,0.4561,0.5007,-0.702,0.0,0.0,0.0,0.0,0.0,0.0,0.0,0.0,0.0,
4.64,run,0.21,3.29,-0.2,-0.04,1.19,0.0,0.0,0.0,0.163,5.54,1.14,6.5,10.72,11.87,-13.62,10.72,-47.37,92.72,-0.97,11.95,-13.54,15.56,-55.28,95.01,15.91,2.99,5.19,5.73,0.58,6.28,10.87,11.45,-13.62,10.61,-47.34,92.16,-0.9,11.41,-13.6,15.66,-55.25,95.04,16.02,2.55,5.2,0.1636,0.4652,-0.6908,0.3105,0.6627,-0.9249,0.3032,-0.4062,0.3195,-0.0257,0.6619,-0.9247,0.4474,-0.5501,0.3535,0.4576,0.5008,-0.7035,0.006,0.006,0.006,0.006,0.006,0.0,0.0,0.0,0.013,0.0,0.006,0.0,0.0,0.0,0.0,0.0,0.013,0.0,0.1058,0.0107,0.1104,0.1902,0.2086,-0.2408,0.1902,-0.8299,1.6107,-0.0153,0.2102,-0.2378,0.273,-0.9664,1.6552,0.2777,0.0476,0.0859,0.0245,-0.0,-0.0,0.0,-0.0,-0.0001,-0.0,-0.0,-0.0,-0.0,-0.0,-0.0039,-0.0,0.0001,-0.0,-0.0,-0.0,0.0,0.0201,0.0111,0.0045,0.001,-0.0189,0.1647,0.4656,-0.6912,0.3114,0.6646,-0.9243,0.3038,-0.4047,0.3202,-0.0273,0.6631,-0.9236,0.4465,-0.55,0.3531,0.4558,0.5014,-0.7024,0.0,0.0,0.0,0.0,0.0,0.0,0.0,0.0,0.0,
4.68,run,0.2,3.3,0.15,0.26,0.1,0.0,0.0,0.0,0.163,5.54,1.14,6.5,10.72,11.87,-13.62,10.72,-47.37,92.72,-0.97,11.95,-13.54,15.56,-55.28,95.01,15.91,2.99,5.19,5.77,0.58,6.23,10.9,11.55,-13.5,10.64,-47.22,92.21,-0.95,11.46,-13.48,15.61,-55.22,95.0,15.93,2.57,5.3,0.1649,0.4652,-0.6914,0.3115,0.6646,-0.9236,0.3039,-0.4039,0.3201,-0.0272,0.663,-0.9233,0.446,-0.5494,0.353,0.4551,0.5012,-0.7023,0.006,0.006,0.006,0.006,0.006,0.0,0.0,0.0,0.013,0.0,0.006,0.0,0.0,0.0,0.0,0.0,0.013,0.0,0.0966,0.0107,0.1104,0.1902,0.2086,-0.2408,0.1902,-0.8299,1.6107,-0.0153,0.2102,-0.2378,0.273,-0.9664,1.6552,0.2777,0.0476,0.0859,-0.0172,-0.0,-0.0,0.0,-0.0,-0.0,-0.0,-0.0,-0.0,-0.0,-0.0,-0.0028,-0.0,0.0001,-0.0,-0.0,-0.0,0.0,0.019,0.0108,-0.0035,-0.0007,0.0208,0.1636,0.4652,-0.6908,0.3105,0.6627,-0.9249,0.3032,-0.4062,0.3195,-0.0257,0.6619,-0.9247,0.4474,-0.5501,0.3535,0.4576,0.5008,-0.7035,0.0,0.0,0.0,0.0,0.0,0.0,0.0,0.0,0.0,
4.72,run,0.21,3.31,0.21,0.12,-0.84,0.0,0.0,0.0,0.163,6.15,1.14,6.5,10.72,11.87,-13.62,10.72,-47.37,92.72,-0.97,11.95,-13.54,15.56,-55.28,95.01,15.91,2.99,5.19,5.76,0.58,6.3,10.88,11.54,-13.59,10.63,-47.31,92.17,-0.94,11.44,-13.52,15.62,-55.28,94.97,15.96,2.59,5.2,0.1644,0.4651,-0.6906,0.3108,0.6643,-0.9245,0.3036,-0.4056,0.3197,-0.0268,0.6626,-0.9237,0.4464,-0.5505,0.3526,0.4561,0.5017,-0.7035,0.0,0.013,0.0,0.0,0.006,0.0,0.0,0.006,0.013,0.0,0.013,0.0,0.0,0.0,0.0,0.0,0.006,0.0,0.0966,0.0107,0.1104,0.1902,0.2086,-0.2408,0.1902,-0.8299,1.6107,-0.0153,0.2102,-0.2378,0.273,-0.9664,1.6552,0.2777,0.0476,0.0859,-0.0121,-0.0,-0.0,0.0,-0.0,-0.0,-0.0,-0.0,-0.0,-0.0,-0.0,-0.0019,-0.0,0.0,-0.0,-0.0,-0.0,0.0,0.0185,0.0118,0.0027,0.0045,0.0018,0.1649,0.4652,-0.6914,0.3115,0.6646,-0.9236,0.3039,-0.4039,0.3201,-0.0272,0.663,-0.9233,0.446,-0.5494,0.353,0.4551,0.5012,-0.7023,0.0,0.0,0.0,0.0,0.0,0.0,0.0,0.0,0.0,
4.76,run,0.2,3.3,-0.24,-0.0,1.22,0.0,0.0,0.0,0.163,5.27,1.14,6.5,10.72,11.87,-13.62,10.72,-47.37,92.72,-0.97,11.95,-13.54,15.56,-55.28,95.01,15.91,2.99,5.19,5.72,0.58,6.29,10.87,11.44,-13.61,10.61,-47.33,92.17,-0.89,11.39,-13.59,15.66,-55.23,95.07,16.01,2.53,5.21,0.1634,0.465,-0.6907,0.3104,0.6626,-0.9248,0.3031,-0.406,0.3197,-0.0254,0.6616,-0.9246,0.4473,-0.5497,0.3537,0.4576,0.5006,-0.7035,0.0,0.013,0.0,0.0,0.006,0.0,0.0,0.006,0.013,0.0,0.013,0.0,0.0,0.0,0.0,0.0,0.006,0.0,0.1074,0.0107,0.1104,0.1902,0.2086,-0.2408,0.1902,-0.8299,1.6107,-0.0153,0.2102,-0.2378,0.273,-0.9664,1.6552,0.2777,0.0476,0.0859,0.0316,-0.0,-0.0,0.0,-0.0,-0.0,-0.0,-0.0,-0.0,-0.0,-0.0,-0.0014,-0.0,0.0,-0.0,-0.0,-0.0,0.0,0.0197,0.0124,0.0036,0.0021,-0.0146,0.1644,0.4651,-0.6906,0.3108,0.6643,-0.9245,0.3036,-0.4056,0.3197,-0.0268,0.6626,-0.9237,0.4464,-0.5505,0.3526,0.4561,0.5017,-0.7035,0.0,0.0,0.0,0.0,0.0,0.0,0.0,0.0,0.0,
4.8,run,0.19,3.33,0.4,0.42,-0.01,0.0,0.0,0.0,0.163,5.71,1.14,6.5,10.72,11.87,-13.62,10.72,-47.37,92.72,-0.97,11.95,-13.54,15.56,-55.28,95.01,15.91,2.99,5.19,5.78,0.58,6.28,10.9,11.58,-13.53,10.64,-47.25,92.22,-0.97,11.47,-13.46,15.61,-55.26,94.96,15.92,2.6,5.29,0.1651,0.4652,-0.6909,0.3114,0.6652,-0.9239,0.304,-0.4045,0.3202,-0.0278,0.6632,-0.923,0.4459,-0.5503,0.3525,0.4548,0.5018,-0.7025,0.0,0.013,0.0,0.0,0.006,0.0,0.0,0.006,0.013,0.0,0.013,0.0,0.0,0.0,0.0,0.0,0.006,0.0,0.092,0.0107,0.1104,0.1902,0.2086,-0.2408,0.1902,-0.8299,1.6107,-0.0153,0.2102,-0.2378,0.273,-0.9664,1.6552,0.2777,0.0476,0.0859,-0.0326,-0.0,-0.0,0.0,-0.0,-0.0,-0.0,-0.0,-0.0,-0.0,-0.0,-0.0009,-0.0,0.0,-0.0,-0.0,-0.0,0.0,0.0182,0.0121,-0.0041,-0.0001,0.0212,0.1634,0.465,-0.6907,0.3104,0.6626,-0.9248,0.3031,-0.406,0.3197,-0.0254,0.6616,-0.9246,0.4473,-0.5497,0.3537,0.4576,0.5006,-0.7035,0.0,0.0,0.0,0.0,0.0,0.0,0.0,0.0,0.0,
4.84,run,0.21,3.35,0.43,0.29,-0.75,0.0,0.0,0.0,0.163,5.89,1.14,6.5,10.72,11.87,-13.62,10.72,-47.37,92.72,-0.97,11.95,-13.54,15.56,-55.28,95.01,15.91,2.99,5.19,5.74,0.56,6.33,10.86,11.51,-13.6,10.61,-47.32,92.18,-0.91,11.41,-13.53,15.63,-55.26,95.02,15.98,2.58,5.17,0.164,0.4647,-0.6903,0.3103,0.6638,-0.9247,0.3032,-0.4059,0.3197,-0.026,0.6619,-0.9239,0.4466,-0.5503,0.3531,0.4565,0.5014,-0.7039,0.006,0.013,0.0,0.0,0.006,0.0,0.0,0.0,0.013,0.0,0.006,0.0,0.0,0.0,0.0,0.0,0.006,0.0,0.0997,0.0107,0.1104,0.1902,0.2086,-0.2408,0.1902,-0.8299,1.6107,-0.0153,0.2102,-0.2378,0.273,-0.9664,1.6552,0.2777,0.0476,0.0859,0.0057,-0.0,-0.0,0.0,-0.0,-0.0,-0.0,-0.0,-0.0,-0.0,-0.0,-0.0007,-0.0,0.0,-0.0,-0.0,-0.0,0.0,0.018,0.0141,0.0069,0.0074,-0.0002,0.1651,0.4652,-0.6909,0.3114,0.6652,-0.9239,0.304,-0.4045,0.3202,-0.0278,0.6632,-0.923,0.4459,-0.5503,0.3525,0.4548,0.5018,-0.7025,0.0,0.0,0.0,0.0,0.0,0.0,0.0,0.0,0.0,
4.88,run,0.19,3.33,-0.41,-0.29,1.49,0.0,0.0,0.0,0.163,5.27,1.14,6.5,10.72,11.87,-13.62,10.72,-47.37,92.72,-0.97,11.95,-13.54,15.56,-55.28,95.01,15.91,2.99,5.19,5.73,0.56,6.36,10.85,11.47,-13.65,10.61,-47.38,92.17,-0.9,11.38,-13.55,15.65,-55.29,95.01,16.0,2.57,5.16,0.1636,0.4647,-0.6899,0.31,0.6631,-0.9252,0.3031,-0.4069,0.3196,-0.0257,0.6614,-0.9241,0.4471,-0.5508,0.3531,0.4572,0.5013,-0.704,0.006,0.013,0.0,0.0,0.006,0.0,0.0,0.0,0.013,0.0,0.006,0.0,0.0,0.0,0.0,0.0,0.006,0.0,0.1028,0.0107,0.1104,0.1902,0.2086,-0.2408,0.1902,-0.8299,1.6107,-0.0153,0.2102,-0.2378,0.273,-0.9664,1.6552,0.2777,0.0476,0.0859,0.0155,-0.0,-0.0,0.0,-0.0,-0.0,-0.0,-0.0,-0.0,-0.0,-0.0,-0.0005,-0.0,0.0,-0.0,-0.0,-0.0,0.0,0.0195,0.0158,0.0075,0.0051,-0.0131,0.164,0.4647,-0.6903,0.3103,0.6638,-0.9247,0.3032,-0.4059,0.3197,-0.026,0.6619,-0.9239,0.4466,-0.5503,0.3531,0.4565,0.5014,-0.7039,0.0,0.0,0.0,0.0,0.0,0.0,0.0,0.0,0.0,
4.92,run,0.2,3.34,0.3,0.36,-0.86,0.0,0.0,0.0,0.163,5.8,1.14,6.5,10.72,11.87,-13.62,10.72,-47.37,92.72,-0.97,11.95,-13.54,15.56,-55.28,95.01,15.91,2.99,5.19,5.78,0.59,6.28,10.9,11.59,-13.55,10.64,-47.25,92.27,-0.98,11.48,-13.46,15.61,-55.26,95.01,15.93,2.6,5.33,0.1652,0.4653,-0.6908,0.3115,0.6654,-0.9241,0.3041,-0.4046,0.3209,-0.0279,0.6632,-0.9231,0.446,-0.5502,0.3531,0.455,0.5019,-0.702,0.006,0.013,0.0,0.0,0.006,0.0,0.0,0.0,0.013,0.0,0.006,0.0,0.0,0.0,0.0,0.0,0.006,0.0,0.092,0.0107,0.1104,0.1902,0.2086,-0.2408,0.1902,-0.8299,1.6107,-0.0153,0.2102,-0.2378,0.273,-0.9664,1.6552,0.2777,0.0476,0.0859,-0.0295,-0.0,-0.0,0.0,-0.0,-0.0,-0.0,-0.0,-0.0,-0.0,-0.0,-0.0003,-0.0,0.0,-0.0,-0.0,-0.0,0.0,0.0177,0.0143,-0.0072,-0.005,0.026,0.1636,0.4647,-0.6899,0.31,0.6631,-0.9252,0.3031,-0.4069,0.3196,-0.0257,0.6614,-0.9241,0.4471,-0.5508,0.3531,0.4572,0.5013,-0.704,0.0,0.0,0.0,0.0,0.0,0.0,0.0,0.0,0.0,
4.96,run,0.2,3.32,-0.39,-0.29,0.22,0.0,0.0,0.0,0.163,5.8,1.14,6.5,10.72,11.87,-13.62,10.72,-47.37,92.72,-0.97,11.95,-13.54,15.56,-55.28,95.01,15.91,2.99,5.19,5.73,0.57,6.36,10.85,11.48,-13.66,10.61,-47.39,92.19,-0.91,11.4,-13.57,15.65,-55.3,95.03,16.01,2.59,5.15,0.1637,0.4649,-0.6899,0.31,0.6633,-0.9254,0.3032,-0.407,0.3199,-0.0259,0.6618,-0.9243,0.4473,-0.5509,0.3533,0.4575,0.5016,-0.7041,0.013,0.013,0.0,0.0,0.0,0.0,0.0,0.0,0.006,0.0,0.013,0.0,0.0,0.0,0.0,0.0,0.006,0.0,0.1012,0.0107,0.1104,0.1902,0.2086,-0.2408,0.1902,-0.8299,1.6107,-0.0153,0.2102,-0.2378,0.273,-0.9664,1.6552,0.2777,0.0476,0.0859,0.0138,-0.0,-0.0,0.0,-0.0,-0.0,-0.0,-0.0,-0.0,-0.0,-0.0,-0.0002,-0.0,0.0,-0.0,-0.0,-0.0,0.0,0.0188,0.015,0.0052,0.0062,-0.015,0.1652,0.4653,-0.6908,0.3115,0.6654,-0.9241,0.3041,-0.4046,0.3209,-0.0279,0.6632,-0.9231,0.446,-0.5502,0.3531,0.455,0.5019,-0.702,0.0,0.0,0.0,0.0,0.0,0.0,0.0,0.0,0.0,
