t_s,phase,roll_deg,pitch_deg,gyro_x_dps,gyro_y_dps,gyro_z_dps,height_ref_mm,vx_ref_mps,vy_ref_mps,max_cur_a,q0_deg,q1_deg,q2_deg,q3_deg,q4_deg,q5_deg,q6_deg,q7_deg,q8_deg,q9_deg,q10_deg,q11_deg,q12_deg,q13_deg,q14_deg,q15_deg,q16_deg,q17_deg,cmd0_deg,cmd1_deg,cmd2_deg,cmd3_deg,cmd4_deg,cmd5_deg,cmd6_deg,cmd7_deg,cmd8_deg,cmd9_deg,cmd10_deg,cmd11_deg,cmd12_deg,cmd13_deg,cmd14_deg,cmd15_deg,cmd16_deg,cmd17_deg,act0,act1,act2,act3,act4,act5,act6,act7,act8,act9,act10,act11,act12,act13,act14,act15,act16,act17,cur0_a,cur1_a,cur2_a,cur3_a,cur4_a,cur5_a,cur6_a,cur7_a,cur8_a,cur9_a,cur10_a,cur11_a,cur12_a,cur13_a,cur14_a,cur15_a,cur16_a,cur17_a,obs0,obs1,obs2,obs3,obs4,obs5,obs6,obs7,obs8,obs9,obs10,obs11,obs12,obs13,obs14,obs15,obs16,obs17,obs18,obs19,obs20,obs21,obs22,obs23,obs24,obs25,obs26,obs27,obs28,obs29,obs30,obs31,obs32,obs33,obs34,obs35,obs36,obs37,obs38,obs39,obs40,obs41,obs42,obs43,obs44,obs45,obs46,obs47,obs48,obs49,obs50,obs51,obs52,obs53,obs54,obs55,obs56,obs57,obs58,obs59,obs60,obs61,obs62,obs63,obs64,obs65,obs66,obs67,rot60_k
0.0,run,-0.16,3.32,0.12,0.11,0.12,0.0,0.0,0.0,0.019,0.09,0.7,0.18,-0.26,-0.09,0.26,-0.26,0.09,0.44,0.0,0.44,0.26,-0.09,0.44,0.18,0.0,0.35,0.26,-0.02,-0.88,1.68,1.24,-0.91,1.68,1.24,-1.41,1.94,-1.5,1.94,1.68,1.41,-1.24,1.68,1.5,-1.03,1.76,-0.0006,0.3347,-0.0872,0.1332,0.4381,-0.3185,0.1654,-0.0831,-0.2023,-0.2264,0.5725,-0.0853,0.07,-0.0315,-0.2547,0.4166,0.4357,-0.1809,0.0,0.006,0.006,0.0,0.006,0.0,0.0,0.006,0.0,0.006,0.0,0.0,0.006,0.019,0.013,0.006,0.006,0.0,0.0,0.0015,0.0,0.0,0.0,0.0031,0.0,0.0,0.0,0.0,0.0,0.0015,0.0,0.0031,0.0,0.0,0.0015,0.0,0.0,0.003,0.0,0.0,0.0,0.0064,0.0,0.0,0.0,0.0,0.0,0.0032,0.0,0.0062,0.0,0.0,0.0032,0.0,0.0,0.0,0.0,0.0017,0.0031,0.0,0.0,0.0,0.0,0.0,0.0,0.0,0.0,0.0,0.0,0.0,0.0,0.0,0.0,0.0,0.0,0.0,0.0,0.0,0.0,0.0,0.0,0.0,0.0,0.0,0.0,0.0,
0.04,run,-0.16,3.31,-0.22,-0.06,-0.13,0.0,0.0,0.0,0.019,0.09,0.7,0.18,-0.26,-0.09,0.35,-0.26,-0.09,0.44,-0.09,0.44,0.26,0.0,0.26,0.26,0.0,0.26,0.26,-0.43,0.62,3.18,2.74,0.59,3.18,2.74,-2.91,3.44,-2.18,3.44,3.18,2.91,-2.74,3.18,3.0,0.47,3.26,-0.0123,0.5474,-0.2907,0.1671,0.5615,-0.446,0.1802,0.1612,-0.1671,-0.0624,0.6172,-0.4055,0.1383,0.1315,-0.0255,0.336,0.5772,-0.5186,0.0,0.006,0.006,0.0,0.006,0.0,0.0,0.006,0.0,0.006,0.0,0.0,0.006,0.019,0.013,0.006,0.006,0.0,0.0,0.0015,0.0,0.0,0.0,0.0015,0.0,0.0,0.0,0.0,0.0,0.0015,0.0,0.0031,0.0,0.0,0.0015,0.0,0.0,0.0021,0.0,0.0,0.0,0.0019,0.0,0.0,0.0,0.0,0.0,0.0022,0.0,0.0043,0.0,0.0,0.0022,0.0,0.0,0.0005,0.0021,0.0019,0.002,-0.0006,0.3347,-0.0872,0.1332,0.4381,-0.3185,0.1654,-0.0831,-0.2023,-0.2264,0.5725,-0.0853,0.07,-0.0315,-0.2547,0.4166,0.4357,-0.1809,0.0,0.0,0.0,0.0,0.0,0.0,0.0,0.0,0.0,
0.08,run,-0.14,3.32,0.47,0.23,0.59,0.0,0.0,0.0,0.019,-0.26,0.53,0.62,0.18,-0.18,0.88,0.18,-0.7,0.88,-0.97,1.05,0.79,0.62,-0.53,0.97,0.88,-0.09,0.7,-0.25,2.12,4.68,4.24,2.09,4.68,4.24,-4.41,4.94,-0.69,4.94,4.68,4.41,-4.24,4.68,4.5,1.97,4.76,-0.0073,0.6152,-0.3738,0.1942,0.6384,-0.4851,0.2047,0.1729,-0.0791,-0.0197,0.6358,-0.459,0.1655,0.1701,-0.0663,0.2868,0.5572,-0.5062,0.0,0.006,0.006,0.0,0.006,0.0,0.0,0.006,0.0,0.006,0.0,0.0,0.006,0.019,0.013,0.006,0.006,0.0,0.0,0.0015,0.0,0.0,0.0,0.0031,0.0,-0.0031,0.0,-0.0015,0.0,0.0015,0.0015,0.0,0.0015,0.0,0.0,0.0,0.0,0.0015,0.0,0.0,0.0,0.0071,0.0,-0.0115,0.0,-0.0058,0.0,0.0016,0.0058,-0.0085,0.0058,0.0,-0.0042,0.0,-0.0,-0.0002,-0.0039,-0.001,-0.0022,-0.0123,0.5474,-0.2907,0.1671,0.5615,-0.446,0.1802,0.1612,-0.1671,-0.0624,0.6172,-0.4055,0.1383,0.1315,-0.0255,0.336,0.5772,-0.5186,0.0,0.0,0.0,0.0,0.0,0.0,0.0,0.0,0.0,
0.12,run,-0.17,3.29,-0.47,-0.34,0.3,0.0,0.0,0.0,0.026,-0.53,0.26,1.49,0.97,-0.26,1.93,0.97,-1.41,1.49,-1.76,1.85,2.02,1.49,-1.32,2.2,1.93,-0.18,1.58,-0.39,3.62,6.18,5.74,3.59,6.18,5.74,-5.91,6.44,0.1,6.44,6.18,5.25,-5.74,6.18,6.0,3.47,6.26,-0.011,0.5913,-0.379,0.1761,0.6333,-0.4935,0.1975,0.1711,-0.1038,0.0027,0.6304,-0.4741,0.1499,0.1823,-0.1235,0.2758,0.5777,-0.5364,0.0,0.0,0.013,0.013,0.0,0.013,0.013,0.026,0.019,0.0,0.006,0.006,0.019,0.026,0.006,0.026,0.0,0.013,-0.0061,-0.0015,0.0077,0.0077,-0.0015,0.0123,0.0077,-0.0138,0.0077,-0.0169,0.0107,0.0107,0.0123,-0.0138,0.0138,0.0153,-0.0061,0.0077,-0.0228,-0.0104,0.0285,0.0285,-0.0057,0.0392,0.0285,-0.048,0.0285,-0.0611,0.0399,0.0353,0.044,-0.0573,0.0497,0.0571,-0.0258,0.0285,0.0018,0.0004,0.0083,0.0039,0.0103,-0.0073,0.6152,-0.3738,0.1942,0.6384,-0.4851,0.2047,0.1729,-0.0791,-0.0197,0.6358,-0.459,0.1655,0.1701,-0.0663,0.2868,0.5572,-0.5062,0.0,0.0,0.0,0.0,0.0,0.0,0.0,0.0,0.0,
0.16,run,-0.2,3.29,-0.41,-0.07,1.32,0.0,0.0,0.0,0.026,-0.35,0.26,2.46,2.02,-0.18,3.08,1.93,-2.55,2.11,-1.49,2.9,3.08,2.64,-2.37,3.16,2.64,-0.18,2.64,-1.01,5.12,7.68,5.57,5.09,7.68,6.08,-7.41,7.94,0.37,7.36,7.68,3.99,-7.24,7.68,7.5,4.97,7.76,-0.0289,0.551,-0.4048,0.1591,0.5872,-0.5057,0.1737,0.1931,-0.1892,0.0104,0.5883,-0.4968,0.1141,0.2037,-0.2484,0.2713,0.5738,-0.5942,0.0,0.0,0.013,0.013,0.0,0.013,0.013,0.026,0.019,0.0,0.006,0.006,0.019,0.026,0.006,0.026,0.0,0.013,-0.0107,-0.0061,0.023,0.0215,-0.0031,0.0307,0.0215,-0.0261,0.0184,-0.0307,0.0245,0.0322,0.0276,-0.0276,0.0353,0.0337,-0.0077,0.023,-0.0334,-0.0247,0.0779,0.0721,-0.0098,0.097,0.0721,-0.08,0.0605,-0.0949,0.0801,0.1059,0.0887,-0.0923,0.1159,0.1095,-0.0238,0.0779,-0.001,-0.0021,-0.0081,-0.0059,0.0052,-0.011,0.5913,-0.379,0.1761,0.6333,-0.4935,0.1975,0.1711,-0.1038,0.0027,0.6304,-0.4741,0.1499,0.1823,-0.1235,0.2758,0.5777,-0.5364,0.0,0.0,0.0,0.0,0.0,0.0,0.0,0.0,0.0,
0.2,run,-0.17,3.29,0.43,-0.06,-2.52,0.0,0.0,0.0,0.026,-0.26,0.7,3.78,3.16,0.35,4.39,3.16,-3.96,3.69,-1.85,4.22,4.39,3.69,-3.69,4.57,4.57,0.26,3.87,-1.99,3.7,9.18,5.58,4.25,9.18,5.04,-8.91,9.44,0.07,5.86,9.18,2.49,-8.74,9.18,9.0,5.46,9.26,-0.0568,0.5218,-0.4243,0.1595,0.5319,-0.5132,0.1439,0.2435,-0.3065,0.002,0.5337,-0.5024,0.0601,0.248,-0.4173,0.2645,0.5539,-0.6491,0.0,0.0,0.013,0.013,0.0,0.013,0.013,0.026,0.019,0.0,0.006,0.006,0.019,0.026,0.006,0.026,0.0,0.013,-0.0077,-0.0061,0.0399,0.0399,-0.0015,0.0506,0.0383,-0.046,0.0291,-0.0261,0.043,0.0506,0.0476,-0.046,0.0522,0.046,-0.0077,0.0414,-0.0118,-0.0173,0.1178,0.1195,-0.0011,0.1427,0.1138,-0.1308,0.0827,-0.0492,0.1251,0.1432,0.1369,-0.1336,0.1444,0.1227,-0.0167,0.1236,-0.0037,-0.0015,-0.0072,-0.0013,0.0231,-0.0289,0.551,-0.4048,0.1591,0.5872,-0.5057,0.1737,0.1931,-0.1892,0.0104,0.5883,-0.4968,0.1141,0.2037,-0.2484,0.2713,0.5738,-0.5942,0.0,0.0,0.0,0.0,0.0,0.0,0.0,0.0,0.0,
0.24,run,-0.15,3.28,0.02,-0.15,-2.16,0.0,0.0,0.0,0.026,-2.11,3.6,8.61,5.36,4.04,8.96,5.62,-8.44,8.7,0.26,7.21,8.96,4.13,-8.35,8.96,9.23,4.83,8.7,-2.74,2.2,10.68,5.7,2.75,10.68,4.05,-8.89,10.94,-0.38,4.36,10.68,0.99,-9.24,10.68,9.51,4.33,7.76,-0.0784,0.4918,-0.4622,0.1628,0.4567,-0.5204,0.1156,0.2928,-0.4271,-0.0109,0.4672,-0.5211,0.0118,0.2865,-0.5718,0.2716,0.5333,-0.7165,0.0,0.0,0.0,0.006,0.0,0.006,0.013,0.006,0.006,0.006,0.013,0.006,0.006,0.013,0.006,0.013,0.0,0.0,-0.0061,0.0015,0.0629,0.0598,0.0077,0.0736,0.0598,-0.0706,0.0568,-0.0322,0.066,0.0736,0.066,-0.069,0.0767,0.0798,0.0,0.0629,-0.0026,0.0166,0.1685,0.1582,0.0336,0.1859,0.1599,-0.1833,0.1611,-0.0574,0.1736,0.1862,0.1646,-0.1796,0.1928,0.212,0.017,0.1668,-0.0011,-0.0021,0.0075,-0.001,-0.0441,-0.0568,0.5218,-0.4243,0.1595,0.5319,-0.5132,0.1439,0.2435,-0.3065,0.002,0.5337,-0.5024,0.0601,0.248,-0.4173,0.2645,0.5539,-0.6491,0.0,0.0,0.0,0.0,0.0,0.0,0.0,0.0,0.0,
0.28,run,-0.15,3.26,0.04,0.18,0.57,0.0,0.0,0.0,0.026,-2.11,3.6,8.88,5.36,4.04,9.05,5.62,-8.61,8.96,-0.26,7.03,8.96,3.25,-8.53,9.14,9.05,5.27,8.88,-4.19,0.7,12.18,4.58,1.25,12.18,4.4,-10.39,12.44,0.86,2.86,12.18,-0.51,-10.74,9.5,11.01,2.83,6.26,-0.1198,0.3089,-0.5509,0.1307,0.2839,-0.5057,0.1258,0.26,-0.5183,0.0246,0.2996,-0.5466,-0.02,0.2417,-0.653,0.334,0.4403,-0.8244,0.0,0.0,0.0,0.006,0.0,0.006,0.013,0.006,0.006,0.006,0.013,0.006,0.006,0.013,0.006,0.013,0.0,0.0,-0.0383,0.0522,0.1473,0.0982,0.0721,0.1534,0.1028,-0.1488,0.1442,0.0046,0.1181,0.1534,0.0736,-0.1503,0.1534,0.1611,0.0798,0.1473,-0.0267,0.0508,0.1832,0.1404,0.0734,0.1918,0.1452,-0.1888,0.1804,-0.0117,0.1619,0.192,0.1212,-0.1886,0.1943,0.2113,0.0736,0.182,0.0003,-0.003,0.0003,-0.0026,-0.0377,-0.0784,0.4918,-0.4622,0.1628,0.4567,-0.5204,0.1156,0.2928,-0.4271,-0.0109,0.4672,-0.5211,0.0118,0.2865,-0.5718,0.2716,0.5333,-0.7165,0.0,0.0,0.0,0.0,0.0,0.0,0.0,0.0,0.0,
0.32,run,-0.17,3.25,-0.03,0.28,0.44,0.0,0.0,0.0,0.026,-2.64,3.52,9.4,5.36,4.04,9.67,4.92,-8.61,9.4,-0.26,6.33,9.67,2.2,-8.96,9.76,9.23,5.27,8.79,-3.96,-0.8,13.68,3.84,-0.25,13.68,5.02,-11.31,13.94,0.8,1.36,13.68,0.25,-12.24,11.0,12.51,1.33,4.76,-0.1133,0.2355,-0.5423,0.1096,0.1925,-0.5134,0.1434,0.249,-0.5336,0.0228,0.2229,-0.5349,0.0072,0.1878,-0.6196,0.367,0.3698,-0.8298,0.0,0.0,0.0,0.006,0.0,0.006,0.013,0.006,0.006,0.006,0.013,0.006,0.006,0.013,0.006,0.013,0.0,0.0,-0.0383,0.0522,0.1519,0.0982,0.0721,0.1549,0.1028,-0.1519,0.1488,-0.0046,0.115,0.1534,0.0583,-0.1534,0.1565,0.158,0.0874,0.1503,-0.0187,0.0355,0.1492,0.0983,0.0514,0.1413,0.1016,-0.1461,0.1472,-0.0501,0.0993,0.1344,0.015,-0.146,0.15,0.1339,0.0864,0.1414,0.0007,-0.0047,0.0007,0.0031,0.0099,-0.1198,0.3089,-0.5509,0.1307,0.2839,-0.5057,0.1258,0.26,-0.5183,0.0246,0.2996,-0.5466,-0.02,0.2417,-0.653,0.334,0.4403,-0.8244,0.0,0.0,0.0,0.0,0.0,0.0,0.0,0.0,0.0,
0.36,run,-0.17,3.27,-0.01,-0.16,-0.3,0.0,0.0,0.0,0.033,-3.43,2.99,9.93,5.36,3.6,10.37,4.31,-9.05,10.11,-0.26,5.27,10.37,1.05,-9.67,10.02,10.46,4.92,8.26,-3.74,-2.3,15.18,3.55,-1.75,15.18,5.51,-12.81,15.44,0.75,-0.14,15.18,0.91,-13.74,12.5,13.5,-0.17,3.26,-0.1068,0.1888,-0.5338,0.1014,0.1553,-0.5185,0.1575,0.22,-0.5279,0.0213,0.2019,-0.5256,0.026,0.1511,-0.5937,0.3856,0.3424,-0.8201,0.0,0.019,0.0,0.019,0.033,0.013,0.0,0.026,0.019,0.013,0.026,0.013,0.006,0.026,0.006,0.0,0.026,0.013,-0.0476,0.0506,0.1611,0.0982,0.0721,0.1657,0.0905,-0.1519,0.1565,-0.0046,0.1028,0.1657,0.0399,-0.1611,0.1672,0.1611,0.0874,0.1488,-0.0472,0.0192,0.1386,0.0688,0.036,0.1387,0.0256,-0.1023,0.1315,-0.0351,0.024,0.1396,-0.0578,-0.1306,0.1448,0.1051,0.0605,0.0933,-0.0012,-0.005,-0.0005,0.0049,0.0076,-0.1133,0.2355,-0.5423,0.1096,0.1925,-0.5134,0.1434,0.249,-0.5336,0.0228,0.2229,-0.5349,0.0072,0.1878,-0.6196,0.367,0.3698,-0.8298,0.0,0.0,0.0,0.0,0.0,0.0,0.0,0.0,0.0,
0.4,run,-0.19,3.25,-0.5,-0.45,-0.25,0.0,0.0,0.0,0.033,-4.04,2.11,10.99,5.27,2.72,11.43,4.31,-9.93,11.07,0.62,4.04,11.51,0.35,-10.63,10.63,10.63,4.22,7.29,-3.63,-3.8,16.68,3.21,-3.25,16.68,5.96,-14.31,16.94,0.83,-1.64,16.68,1.45,-15.24,14.0,14.03,-1.67,1.76,-0.1036,0.1548,-0.5166,0.0918,0.1332,-0.5221,0.1704,0.1929,-0.52,0.0238,0.1987,-0.5211,0.0415,0.1194,-0.5868,0.4009,0.3475,-0.8197,0.0,0.019,0.0,0.019,0.033,0.013,0.0,0.026,0.019,0.013,0.026,0.013,0.006,0.026,0.006,0.0,0.026,0.013,-0.0614,0.0414,0.1703,0.0982,0.0644,0.1779,0.0798,-0.1595,0.1687,-0.0046,0.0844,0.1779,0.0199,-0.1733,0.1718,0.1825,0.0813,0.1396,-0.085,-0.0212,0.1316,0.0482,-0.0037,0.1433,-0.0225,-0.1004,0.1382,-0.0245,-0.0524,0.1439,-0.1155,-0.1376,0.1187,0.1544,0.0193,0.0307,-0.0014,-0.004,-0.0001,-0.0027,-0.0053,-0.1068,0.1888,-0.5338,0.1014,0.1553,-0.5185,0.1575,0.22,-0.5279,0.0213,0.2019,-0.5256,0.026,0.1511,-0.5937,0.3856,0.3424,-0.8201,0.0,0.0,0.0,0.0,0.0,0.0,0.0,0.0,0.0,
0.44,run,-0.18,3.25,0.51,0.34,0.51,0.0,0.0,0.0,0.033,-3.96,0.88,12.13,4.22,1.49,12.74,4.31,-10.99,12.22,0.79,2.64,12.74,-0.18,-11.95,12.04,12.22,3.25,6.06,-3.64,-5.3,18.18,2.78,-4.75,18.18,6.51,-15.23,18.44,1.23,-3.14,18.18,2.09,-16.74,15.5,14.42,-3.17,0.26,-0.104,0.1236,-0.4961,0.0793,0.1161,-0.5265,0.1861,0.1776,-0.5094,0.0351,0.1952,-0.522,0.0597,0.1004,-0.5674,0.412,0.3535,-0.8243,0.0,0.019,0.0,0.019,0.033,0.013,0.0,0.026,0.019,0.013,0.026,0.013,0.006,0.026,0.006,0.0,0.026,0.013,-0.0721,0.0261,0.1887,0.0966,0.0491,0.1963,0.0798,-0.1749,0.1856,0.0107,0.0629,0.1979,0.0077,-0.1902,0.1825,0.1856,0.069,0.1227,-0.0998,-0.0724,0.1612,0.028,-0.0602,0.1694,-0.0157,-0.1279,0.1601,0.0404,-0.1173,0.1756,-0.1269,-0.1597,0.1234,0.1196,-0.0326,-0.0419,-0.0025,-0.0052,-0.0086,-0.0079,-0.0044,-0.1036,0.1548,-0.5166,0.0918,0.1332,-0.5221,0.1704,0.1929,-0.52,0.0238,0.1987,-0.5211,0.0415,0.1194,-0.5868,0.4009,0.3475,-0.8197,0.0,0.0,0.0,0.0,0.0,0.0,0.0,0.0,0.0,
0.48,run,-0.17,3.28,0.03,0.37,1.29,0.0,0.0,0.0,0.039,-3.34,-0.44,13.62,3.08,0.18,14.24,4.83,-12.22,13.62,0.79,1.23,14.24,-0.26,-13.36,13.01,13.18,1.93,4.75,-3.69,-6.8,19.68,2.34,-6.25,19.68,7.07,-16.53,19.94,1.79,-4.64,19.68,2.69,-18.24,17.0,14.88,-4.67,-1.24,-0.1054,0.0958,-0.4805,0.0667,0.0915,-0.5311,0.2019,0.1539,-0.5024,0.0512,0.196,-0.531,0.0769,0.0758,-0.5623,0.425,0.3671,-0.8368,0.006,0.019,0.006,0.0,0.033,0.006,0.0,0.039,0.019,0.006,0.026,0.006,0.006,0.026,0.013,0.019,0.039,0.019,-0.0706,0.0046,0.2086,0.0782,0.0276,0.2194,0.0798,-0.1933,0.2056,0.0138,0.0383,0.2194,-0.0015,-0.2132,0.2071,0.2132,0.0522,0.1012,-0.0641,-0.1311,0.1875,-0.0494,-0.1225,0.2047,-0.011,-0.1585,0.1867,0.0398,-0.174,0.2033,-0.1233,-0.1979,0.1783,0.1871,-0.086,-0.1097,-0.0019,-0.005,0.0089,0.0059,0.0088,-0.104,0.1236,-0.4961,0.0793,0.1161,-0.5265,0.1861,0.1776,-0.5094,0.0351,0.1952,-0.522,0.0597,0.1004,-0.5674,0.412,0.3535,-0.8243,0.0,0.0,0.0,0.0,0.0,0.0,0.0,0.0,0.0,
0.52,run,-0.25,3.24,-1.23,-1.12,-1.71,0.0,0.0,0.0,0.039,-3.69,-1.85,14.85,2.99,-1.32,15.64,5.8,-13.54,15.12,1.67,-0.18,15.64,-0.18,-14.77,14.33,13.71,0.44,3.34,-3.73,-8.3,21.18,1.66,-7.75,19.42,7.52,-17.48,21.44,2.43,-6.14,19.45,3.24,-19.74,17.91,15.35,-3.99,-2.74,-0.1064,0.0693,-0.4578,0.0473,0.0706,-0.5363,0.2147,0.1367,-0.4956,0.0695,0.1969,-0.5359,0.0924,0.0592,-0.554,0.4385,0.3819,-0.8408,0.006,0.019,0.006,0.0,0.033,0.006,0.0,0.039,0.019,0.006,0.026,0.006,0.006,0.026,0.013,0.019,0.039,0.019,-0.0598,-0.0184,0.2347,0.0583,0.0046,0.2454,0.089,-0.2148,0.2301,0.0138,0.0138,0.2454,-0.0031,-0.2378,0.224,0.2301,0.0291,0.0782,-0.0047,-0.1779,0.2289,-0.1092,-0.1719,0.241,0.0268,-0.1913,0.2226,0.0278,-0.2137,0.24,-0.092,-0.2304,0.188,0.1941,-0.1463,-0.163,-0.001,-0.0031,0.0005,0.0065,0.0226,-0.1054,0.0958,-0.4805,0.0667,0.0915,-0.5311,0.2019,0.1539,-0.5024,0.0512,0.196,-0.531,0.0769,0.0758,-0.5623,0.425,0.3671,-0.8368,0.0,0.0,0.0,0.0,0.0,0.0,0.0,0.0,0.0,
0.56,run,-0.18,3.25,1.33,0.68,-0.76,0.0,0.0,0.0,0.039,-3.78,-3.34,16.26,2.9,-2.72,17.05,6.42,-14.77,16.44,1.67,-1.58,17.05,0.88,-16.08,15.64,14.85,-0.88,1.93,-3.49,-9.8,22.68,0.87,-9.25,18.4,8.1,-18.7,22.94,3.1,-7.64,18.71,3.9,-21.24,18.84,15.68,-3.34,-4.24,-0.0998,0.0434,-0.4332,0.0249,0.0531,-0.5483,0.2315,0.1145,-0.4813,0.0885,0.1937,-0.5446,0.1115,0.0346,-0.5431,0.4479,0.3938,-0.8481,0.006,0.019,0.006,0.0,0.033,0.006,0.0,0.039,0.019,0.006,0.026,0.006,0.006,0.026,0.013,0.019,0.039,0.019,-0.066,-0.043,0.2562,0.0568,-0.0215,0.27,0.1058,-0.2378,0.2562,0.0291,-0.0107,0.27,-0.0015,-0.2623,0.247,0.2393,0.0031,0.0537,-0.0263,-0.2168,0.2409,-0.0822,-0.2183,0.2609,0.0821,-0.2204,0.2538,0.0771,-0.2418,0.2602,-0.0587,-0.2535,0.218,0.1705,-0.2004,-0.2063,-0.008,-0.0062,-0.0214,-0.0195,-0.0299,-0.1064,0.0693,-0.4578,0.0473,0.0706,-0.5363,0.2147,0.1367,-0.4956,0.0695,0.1969,-0.5359,0.0924,0.0592,-0.554,0.4385,0.3819,-0.8408,0.0,0.0,0.0,0.0,0.0,0.0,0.0,0.0,0.0,
0.6,run,-0.21,3.22,-0.63,0.1,1.97,0.0,0.0,0.0,0.039,-3.87,-4.66,17.75,2.11,-4.04,18.11,7.12,-16.0,17.84,2.37,-2.99,18.11,1.67,-17.49,16.79,15.03,-2.02,0.53,-3.32,-11.3,24.18,0.22,-10.75,17.41,8.48,-20.13,24.44,3.59,-9.14,17.91,4.34,-22.74,18.86,16.07,-2.37,-5.74,-0.095,0.0195,-0.414,0.0063,0.039,-0.5599,0.2424,0.0885,-0.4764,0.1024,0.2009,-0.5539,0.124,0.0113,-0.5429,0.459,0.4115,-0.8537,0.0,0.026,0.013,0.006,0.033,0.006,0.006,0.039,0.019,0.0,0.019,0.0,0.013,0.026,0.006,0.013,0.019,0.013,-0.0675,-0.069,0.2807,0.0552,-0.046,0.2945,0.1166,-0.2592,0.2792,0.0291,-0.0353,0.2945,0.0169,-0.2853,0.27,0.2592,-0.0199,0.0291,-0.0242,-0.2496,0.2608,-0.0633,-0.2449,0.2747,0.0978,-0.2349,0.264,0.054,-0.2614,0.2742,0.028,-0.2638,0.239,0.1942,-0.2266,-0.2365,-0.0016,-0.0049,0.0232,0.0118,-0.0133,-0.0998,0.0434,-0.4332,0.0249,0.0531,-0.5483,0.2315,0.1145,-0.4813,0.0885,0.1937,-0.5446,0.1115,0.0346,-0.5431,0.4479,0.3938,-0.8481,0.0,0.0,0.0,0.0,0.0,0.0,0.0,0.0,0.0,
0.64,run,-0.22,3.22,0.18,-0.02,-1.99,0.0,0.0,0.0,0.039,-3.16,-6.15,19.16,0.88,-5.54,18.9,7.65,-17.31,19.25,3.16,-4.39,18.81,2.81,-18.9,17.75,15.73,-2.9,-0.88,-3.23,-12.8,25.68,-0.34,-12.25,16.86,8.99,-21.18,25.66,4.14,-10.64,17.82,4.83,-24.24,20.36,16.38,-1.79,-7.24,-0.0922,0.0015,-0.3912,-0.0097,0.0365,-0.5663,0.257,0.0694,-0.4629,0.1184,0.205,-0.5551,0.1381,-0.0088,-0.5177,0.4681,0.422,-0.8524,0.0,0.026,0.013,0.006,0.033,0.006,0.006,0.039,0.019,0.0,0.019,0.0,0.013,0.026,0.006,0.013,0.019,0.013,-0.069,-0.092,0.3068,0.0414,-0.069,0.3129,0.1289,-0.2807,0.3037,0.0414,-0.0598,0.3129,0.0307,-0.3099,0.2899,0.2623,-0.0399,0.0046,-0.0227,-0.2609,0.2802,-0.096,-0.2577,0.2613,0.1144,-0.2449,0.2768,0.0838,-0.2749,0.2609,0.0713,-0.2766,0.242,0.1474,-0.2334,-0.2575,-0.0048,-0.0082,-0.0109,0.0017,0.0344,-0.095,0.0195,-0.414,0.0063,0.039,-0.5599,0.2424,0.0885,-0.4764,0.1024,0.2009,-0.5539,0.124,0.0113,-0.5429,0.459,0.4115,-0.8537,0.0,0.0,0.0,0.0,0.0,0.0,0.0,0.0,0.0,
0.68,run,-0.2,3.23,-0.21,-0.32,0.14,0.0,0.0,0.0,0.039,-3.08,-7.47,20.74,0.53,-6.94,19.42,8.17,-18.46,20.74,3.34,-5.89,19.34,3.6,-20.3,18.63,16.26,-3.6,-2.37,-3.23,-14.3,27.18,-1.18,-13.75,16.53,9.44,-22.68,27.16,5.01,-12.14,17.37,5.39,-25.74,21.86,16.77,-0.81,-8.57,-0.0923,-0.0158,-0.3678,-0.0337,0.0245,-0.5703,0.2697,0.0386,-0.4452,0.1431,0.2065,-0.5603,0.1541,-0.033,-0.4958,0.4793,0.4399,-0.8656,0.0,0.026,0.013,0.006,0.033,0.006,0.006,0.039,0.019,0.0,0.019,0.0,0.013,0.026,0.006,0.013,0.019,0.013,-0.0568,-0.1181,0.3313,0.0199,-0.0951,0.3267,0.1381,-0.3037,0.3283,0.0552,-0.0844,0.3252,0.0506,-0.3344,0.3068,0.2746,-0.0552,-0.0199,0.0304,-0.2809,0.2886,-0.1481,-0.2786,0.2349,0.1148,-0.2581,0.2862,0.1107,-0.2849,0.2289,0.1251,-0.2861,0.233,0.1494,-0.2212,-0.2727,-0.0055,-0.0078,0.0032,-0.0003,-0.0347,-0.0922,0.0015,-0.3912,-0.0097,0.0365,-0.5663,0.257,0.0694,-0.4629,0.1184,0.205,-0.5551,0.1381,-0.0088,-0.5177,0.4681,0.422,-0.8524,0.0,0.0,0.0,0.0,0.0,0.0,0.0,0.0,0.0,
0.72,run,-0.22,3.21,-0.53,-0.44,-0.91,0.0,0.0,0.0,0.039,-3.25,-8.96,21.97,0.62,-8.35,19.42,8.61,-19.78,22.15,4.31,-7.21,19.42,4.39,-21.71,19.6,16.08,-3.78,-3.78,-3.06,-15.8,28.68,-1.97,-15.25,15.93,9.81,-24.18,28.66,5.63,-13.22,17.37,5.85,-27.24,23.36,17.1,0.27,-8.49,-0.0875,-0.0364,-0.3437,-0.0564,0.0266,-0.5773,0.2802,0.0083,-0.4274,0.1609,0.2142,-0.5604,0.1671,-0.0588,-0.4782,0.4885,0.4595,-0.8646,0.0,0.026,0.013,0.013,0.026,0.006,0.006,0.019,0.019,0.006,0.026,0.013,0.013,0.033,0.013,0.019,0.006,0.013,-0.0552,-0.1411,0.359,0.0138,-0.1197,0.3359,0.1473,-0.3237,0.3543,0.0583,-0.1104,0.3344,0.0644,-0.359,0.3221,0.2838,-0.0675,-0.046,0.027,-0.2827,0.3053,-0.1266,-0.2868,0.1988,0.1148,-0.2552,0.2978,0.0889,-0.2969,0.1946,0.1392,-0.292,0.2204,0.139,-0.2007,-0.2884,-0.0036,-0.0068,-0.0036,-0.0055,0.0024,-0.0923,-0.0158,-0.3678,-0.0337,0.0245,-0.5703,0.2697,0.0386,-0.4452,0.1431,0.2065,-0.5603,0.1541,-0.033,-0.4958,0.4793,0.4399,-0.8656,0.0,0.0,0.0,0.0,0.0,0.0,0.0,0.0,0.0,
0.76,run,-0.2,3.22,0.24,0.24,-0.19,0.0,0.0,0.0,0.039,-3.34,-10.37,23.47,-1.05,-9.76,19.25,9.14,-21.09,23.55,4.92,-8.7,19.25,5.1,-23.12,20.92,17.05,-3.78,-5.1,-2.85,-17.3,30.18,-2.87,-16.75,15.39,10.28,-25.68,30.16,6.32,-13.13,17.35,6.32,-28.74,24.86,17.39,1.09,-8.75,-0.0815,-0.0553,-0.3171,-0.0819,0.0338,-0.5836,0.2938,-0.0254,-0.4006,0.1806,0.2159,-0.5606,0.1807,-0.0874,-0.4464,0.4968,0.4744,-0.8677,0.0,0.026,0.013,0.013,0.026,0.006,0.006,0.019,0.019,0.006,0.026,0.013,0.013,0.033,0.013,0.019,0.006,0.013,-0.0583,-0.1672,0.3804,0.0153,-0.1442,0.3359,0.1549,-0.3467,0.3789,0.0752,-0.1335,0.3359,0.0782,-0.3835,0.339,0.2807,-0.0706,-0.0706,0.0074,-0.2956,0.2942,-0.0829,-0.2927,0.1392,0.1091,-0.2649,0.3005,0.1255,-0.2941,0.142,0.1492,-0.2964,0.2175,0.0858,-0.152,-0.2939,-0.0052,-0.0088,-0.0093,-0.0077,-0.0158,-0.0875,-0.0364,-0.3437,-0.0564,0.0266,-0.5773,0.2802,0.0083,-0.4274,0.1609,0.2142,-0.5604,0.1671,-0.0588,-0.4782,0.4885,0.4595,-0.8646,0.0,0.0,0.0,0.0,0.0,0.0,0.0,0.0,0.0,
0.8,run,-0.19,3.26,-0.18,0.16,1.42,0.0,0.0,0.0,0.039,-2.99,-11.78,24.87,-1.58,-11.25,18.37,9.49,-22.41,24.96,5.45,-10.02,18.28,5.62,-24.61,22.15,17.14,-3.52,-6.33,-2.79,-18.8,31.68,-3.52,-18.25,15.06,10.71,-27.18,31.66,7.04,-12.71,16.9,6.76,-30.24,26.36,17.66,2.07,-10.02,-0.0796,-0.0721,-0.2997,-0.1007,0.035,-0.5875,0.3059,-0.0635,-0.3793,0.201,0.2234,-0.5659,0.1932,-0.1188,-0.4193,0.5046,0.4922,-0.8826,0.0,0.026,0.013,0.013,0.026,0.006,0.006,0.019,0.019,0.006,0.026,0.013,0.013,0.033,0.013,0.019,0.006,0.013,-0.0598,-0.1917,0.4065,-0.0138,-0.1687,0.3329,0.1641,-0.3697,0.4034,0.0859,-0.1595,0.3329,0.0905,-0.408,0.362,0.2976,-0.0706,-0.0936,-0.0006,-0.2988,0.3036,-0.1672,-0.2968,0.0859,0.1108,-0.2716,0.3022,0.128,-0.3035,0.0879,0.1504,-0.2994,0.2384,0.1232,-0.1064,-0.2919,-0.0034,-0.0082,0.0043,0.0042,-0.0033,-0.0815,-0.0553,-0.3171,-0.0819,0.0338,-0.5836,0.2938,-0.0254,-0.4006,0.1806,0.2159,-0.5606,0.1807,-0.0874,-0.4464,0.4968,0.4744,-0.8677,0.0,0.0,0.0,0.0,0.0,0.0,0.0,0.0,0.0,
0.84,run,-0.21,3.23,-0.45,-0.31,-0.7,0.0,0.0,0.0,0.039,-2.64,-13.18,26.28,-1.58,-12.66,17.4,9.93,-23.73,26.28,6.24,-11.16,17.49,6.24,-25.93,23.47,17.4,-2.81,-7.47,-2.59,-20.3,33.18,-4.37,-19.75,14.64,11.08,-28.68,33.16,7.67,-12.42,16.87,7.15,-31.74,27.86,17.92,2.99,-10.04,-0.0739,-0.0854,-0.2778,-0.1248,0.0497,-0.5925,0.3166,-0.1,-0.3504,0.2192,0.2287,-0.5662,0.2042,-0.1461,-0.3901,0.5119,0.5089,-0.8829,0.0,0.026,0.013,0.013,0.026,0.013,0.006,0.039,0.026,0.006,0.013,0.0,0.013,0.019,0.013,0.006,0.019,0.013,-0.0537,-0.2163,0.431,-0.023,-0.1948,0.3175,0.1703,-0.3927,0.428,0.0951,-0.1825,0.316,0.0997,-0.4341,0.3835,0.2991,-0.066,-0.115,0.0226,-0.3011,0.3044,-0.1515,-0.3055,0.0027,0.1006,-0.2763,0.3035,0.1241,-0.2987,-0.0017,0.1397,-0.3073,0.2474,0.092,-0.0572,-0.2848,-0.003,-0.0046,-0.0032,0.0029,0.0248,-0.0796,-0.0721,-0.2997,-0.1007,0.035,-0.5875,0.3059,-0.0635,-0.3793,0.201,0.2234,-0.5659,0.1932,-0.1188,-0.4193,0.5046,0.4922,-0.8826,0.0,0.0,0.0,0.0,0.0,0.0,0.0,0.0,0.0,
0.88,run,-0.15,3.24,1.0,0.45,-1.05,0.0,0.0,0.0,0.039,-2.72,-14.59,27.77,-3.34,-14.06,16.26,10.37,-25.14,27.77,6.86,-11.95,17.05,6.77,-27.42,24.87,17.93,-1.58,-8.53,-2.33,-21.8,34.68,-5.15,-21.25,13.99,11.41,-30.18,34.66,8.25,-12.18,16.37,7.52,-33.24,29.36,18.12,3.72,-10.76,-0.0666,-0.0954,-0.2615,-0.147,0.0613,-0.6001,0.3261,-0.137,-0.3184,0.2357,0.2331,-0.5722,0.2149,-0.174,-0.3622,0.5177,0.5222,-0.8913,0.0,0.026,0.013,0.013,0.026,0.013,0.006,0.039,0.026,0.006,0.013,0.0,0.013,0.019,0.013,0.006,0.019,0.013,-0.0476,-0.2408,0.4556,-0.023,-0.2194,0.3007,0.1779,-0.4157,0.451,0.1089,-0.2025,0.3022,0.1104,-0.4571,0.4065,0.3037,-0.0537,-0.135,0.0389,-0.3031,0.3054,-0.106,-0.3062,-0.0616,0.0992,-0.28,0.299,0.1388,-0.2841,-0.0531,0.1382,-0.3016,0.2597,0.0817,0.0061,-0.2744,-0.0046,-0.0071,-0.0078,-0.0054,-0.0122,-0.0739,-0.0854,-0.2778,-0.1248,0.0497,-0.5925,0.3166,-0.1,-0.3504,0.2192,0.2287,-0.5662,0.2042,-0.1461,-0.3901,0.5119,0.5089,-0.8829,0.0,0.0,0.0,0.0,0.0,0.0,0.0,0.0,0.0,
0.92,run,-0.22,3.25,-1.18,-0.31,4.35,0.0,0.0,0.0,0.039,-2.64,-16.0,29.09,-4.04,-15.47,15.29,10.81,-26.54,29.18,7.47,-12.57,16.7,7.12,-28.83,26.19,17.75,-0.18,-9.32,-2.3,-23.3,36.18,-5.59,-21.02,14.05,11.74,-31.68,36.16,8.71,-11.79,15.83,7.66,-34.74,30.86,18.23,4.54,-11.78,-0.0657,-0.1042,-0.2462,-0.1598,0.0724,-0.5994,0.3355,-0.1716,-0.2934,0.2488,0.2402,-0.5785,0.2188,-0.2005,-0.3343,0.5209,0.5371,-0.9033,0.0,0.026,0.013,0.013,0.026,0.013,0.006,0.039,0.026,0.006,0.013,0.0,0.013,0.019,0.013,0.006,0.019,0.013,-0.0491,-0.2654,0.4817,-0.0537,-0.2439,0.2807,0.1856,-0.4403,0.4771,0.1197,-0.2163,0.2945,0.1197,-0.4832,0.431,0.3129,-0.0322,-0.1534,0.0215,-0.3042,0.3116,-0.1893,-0.3063,-0.1179,0.0982,-0.288,0.3071,0.1374,-0.2506,-0.0659,0.1313,-0.3089,0.2738,0.0917,0.0848,-0.2611,0.0004,-0.0062,0.0175,0.0078,-0.0183,-0.0666,-0.0954,-0.2615,-0.147,0.0613,-0.6001,0.3261,-0.137,-0.3184,0.2357,0.2331,-0.5722,0.2149,-0.174,-0.3622,0.5177,0.5222,-0.8913,0.0,0.0,0.0,0.0,0.0,0.0,0.0,0.0,0.0,
0.96,run,-0.2,3.23,0.34,0.1,-3.36,0.0,0.0,0.0,0.039,-2.2,-17.49,30.59,-3.87,-16.88,14.59,11.16,-27.95,30.59,8.09,-12.66,16.17,7.38,-30.23,27.6,18.19,1.14,-10.2,-2.13,-24.8,37.68,-5.96,-19.78,13.92,12.08,-33.18,37.66,8.83,-11.4,15.67,7.66,-36.24,32.36,18.33,5.08,-11.65,-0.0608,-0.1112,-0.2335,-0.1703,0.0949,-0.601,0.3452,-0.2002,-0.2682,0.2522,0.2472,-0.5804,0.219,-0.2163,-0.3061,0.5236,0.5469,-0.9017,0.0,0.019,0.013,0.019,0.026,0.0,0.013,0.039,0.026,0.006,0.0,0.0,0.013,0.033,0.013,0.0,0.006,0.006,-0.0476,-0.2899,0.5047,-0.066,-0.2684,0.2638,0.1933,-0.4648,0.5016,0.1304,-0.227,0.2884,0.1258,-0.5077,0.4541,0.3099,-0.0077,-0.1672,0.0208,-0.3049,0.3044,-0.1785,-0.3064,-0.1458,0.0975,-0.2936,0.307,0.1364,-0.2157,-0.0692,0.1149,-0.3082,0.2779,0.0527,0.1513,-0.2345,-0.0052,-0.0052,-0.0206,-0.0054,0.076,-0.0657,-0.1042,-0.2462,-0.1598,0.0724,-0.5994,0.3355,-0.1716,-0.2934,0.2488,0.2402,-0.5785,0.2188,-0.2005,-0.3343,0.5209,0.5371,-0.9033,0.0,0.0,0.0,0.0,0.0,0.0,0.0,0.0,0.0,
1.0,run,-0.21,3.27,0.36,0.58,0.79,0.0,0.0,0.0,0.039,-2.02,-18.9,31.99,-5.19,-18.11,14.06,11.51,-29.36,31.99,8.61,-12.66,15.82,7.38,-31.64,29.0,18.19,2.46,-10.99,-1.89,-26.3,39.18,-6.57,-19.01,13.29,12.25,-34.68,39.16,9.27,-10.86,14.5,7.86,-37.74,33.86,18.41,5.82,-12.69,-0.054,-0.1163,-0.2233,-0.1877,0.1089,-0.6084,0.3499,-0.2395,-0.2352,0.2648,0.2571,-0.5941,0.2245,-0.2401,-0.2904,0.5261,0.5603,-0.914,0.0,0.019,0.013,0.019,0.026,0.0,0.013,0.039,0.026,0.006,0.0,0.0,0.013,0.033,0.013,0.0,0.006,0.006,-0.0399,-0.316,0.5308,-0.0629,-0.293,0.2516,0.1994,-0.4893,0.5262,0.1411,-0.2286,0.2792,0.1304,-0.5323,0.4786,0.3175,0.0153,-0.1825,0.0433,-0.3112,0.3108,-0.1134,-0.3065,-0.148,0.0912,-0.2975,0.3068,0.1357,-0.1567,-0.0829,0.0977,-0.3077,0.2865,0.0656,0.1922,-0.2216,-0.0034,-0.0074,0.0059,0.0017,-0.0587,-0.0608,-0.1112,-0.2335,-0.1703,0.0949,-0.601,0.3452,-0.2002,-0.2682,0.2522,0.2472,-0.5804,0.219,-0.2163,-0.3061,0.5236,0.5469,-0.9017,0.0,0.0,0.0,0.0,0.0,0.0,0.0,0.0,0.0,
1.04,run,-0.25,3.29,-0.53,0.34,3.67,0.0,0.0,0.0,0.039,-1.93,-20.3,33.31,-6.15,-19.16,13.8,11.78,-30.76,33.49,8.61,-12.13,15.73,7.47,-33.05,30.41,18.37,3.6,-11.51,-1.89,-27.8,40.68,-6.82,-17.76,13.56,12.46,-36.18,40.66,9.46,-10.28,14.25,7.72,-38.84,35.36,18.32,6.26,-12.86,-0.054,-0.1226,-0.2091,-0.195,0.1316,-0.6051,0.3561,-0.2647,-0.2165,0.2703,0.2677,-0.5971,0.2205,-0.2516,-0.2704,0.5234,0.5683,-0.916,0.0,0.019,0.013,0.019,0.026,0.0,0.013,0.039,0.026,0.006,0.0,0.0,0.013,0.033,0.013,0.0,0.006,0.006,-0.0368,-0.3405,0.5553,-0.0859,-0.3145,0.2424,0.2056,-0.5139,0.5507,0.1503,-0.2286,0.273,0.1304,-0.5568,0.5031,0.3175,0.0383,-0.1963,0.0418,-0.3099,0.3096,-0.1658,-0.2951,-0.1382,0.0869,-0.3004,0.3069,0.1296,-0.1097,-0.0811,0.0684,-0.3075,0.2927,0.0459,0.2209,-0.207,-0.0044,-0.0038,0.0063,0.0101,0.0138,-0.054,-0.1163,-0.2233,-0.1877,0.1089,-0.6084,0.3499,-0.2395,-0.2352,0.2648,0.2571,-0.5941,0.2245,-0.2401,-0.2904,0.5261,0.5603,-0.914,0.0,0.0,0.0,0.0,0.0,0.0,0.0,0.0,0.0,
1.08,run,-0.26,3.26,-0.37,-0.48,-1.37,0.0,0.0,0.0,0.039,-2.11,-21.71,34.89,-5.89,-19.86,13.45,11.95,-32.17,34.8,9.23,-11.34,14.94,7.56,-34.45,31.9,18.28,4.57,-12.13,-1.79,-29.3,42.18,-7.06,-16.55,13.4,12.66,-37.68,42.16,9.57,-9.43,13.4,7.6,-39.37,36.86,18.3,6.84,-13.15,-0.0511,-0.1297,-0.1993,-0.2017,0.1537,-0.6071,0.3617,-0.2934,-0.1942,0.2734,0.2831,-0.6071,0.2172,-0.2612,-0.2512,0.5228,0.5789,-0.9195,0.013,0.019,0.013,0.019,0.013,0.006,0.013,0.026,0.013,0.0,0.006,0.006,0.0,0.026,0.013,0.0,0.006,0.0,-0.0353,-0.3651,0.5783,-0.1028,-0.3329,0.2378,0.2102,-0.5384,0.5768,0.1503,-0.2194,0.2715,0.1319,-0.5814,0.5277,0.3206,0.0583,-0.2056,0.035,-0.309,0.3031,-0.1793,-0.2756,-0.114,0.0781,-0.3023,0.3127,0.0907,-0.0423,-0.0625,0.0536,-0.3074,0.2969,0.0437,0.2294,-0.1794,-0.0084,-0.0019,-0.0093,0.0059,0.064,-0.054,-0.1226,-0.2091,-0.195,0.1316,-0.6051,0.3561,-0.2647,-0.2165,0.2703,0.2677,-0.5971,0.2205,-0.2516,-0.2704,0.5234,0.5683,-0.916,0.0,0.0,0.0,0.0,0.0,0.0,0.0,0.0,0.0,
1.12,run,-0.26,3.28,0.32,0.53,0.9,0.0,0.0,0.0,0.039,-1.85,-23.12,36.21,-6.5,-20.39,13.54,12.22,-33.66,36.3,9.49,-10.63,14.24,7.47,-35.86,33.31,18.28,5.45,-12.66,-1.54,-30.8,43.68,-7.41,-15.35,12.67,12.85,-39.18,43.66,9.79,-8.69,12.27,7.61,-40.42,38.36,18.24,7.31,-13.67,-0.044,-0.1338,-0.1894,-0.2119,0.1755,-0.6157,0.3672,-0.3291,-0.1634,0.2798,0.2966,-0.6203,0.2175,-0.2803,-0.2378,0.5213,0.5875,-0.9255,0.013,0.019,0.013,0.019,0.013,0.006,0.013,0.026,0.013,0.0,0.006,0.006,0.0,0.026,0.013,0.0,0.006,0.0,-0.0383,-0.3896,0.6059,-0.0982,-0.3451,0.2316,0.2132,-0.563,0.5998,0.1611,-0.2056,0.2577,0.1335,-0.6059,0.5538,0.3191,0.0752,-0.2163,0.013,-0.3083,0.3156,-0.1083,-0.2389,-0.1028,0.0662,-0.3036,0.3051,0.1037,0.0221,-0.0955,0.0433,-0.3071,0.3056,0.0248,0.2238,-0.1658,-0.0092,-0.0041,-0.0064,-0.0085,-0.0239,-0.0511,-0.1297,-0.1993,-0.2017,0.1537,-0.6071,0.3617,-0.2934,-0.1942,0.2734,0.2831,-0.6071,0.2172,-0.2612,-0.2512,0.5228,0.5789,-0.9195,0.0,0.0,0.0,0.0,0.0,0.0,0.0,0.0,0.0,
1.16,run,-0.26,3.29,0.11,0.38,1.43,0.0,0.0,0.0,0.039,-1.49,-24.52,37.71,-7.47,-20.39,13.27,12.39,-35.07,37.71,9.49,-9.84,13.54,7.47,-37.18,34.72,18.28,6.15,-13.1,-1.45,-32.3,45.18,-7.66,-14.04,12.45,13.04,-40.68,45.16,10.0,-7.77,11.59,7.53,-40.96,39.86,18.13,7.68,-13.99,-0.0414,-0.1404,-0.1792,-0.2189,0.1993,-0.6183,0.3725,-0.3574,-0.143,0.2858,0.3133,-0.6283,0.2152,-0.2903,-0.2217,0.5179,0.5942,-0.9292,0.013,0.019,0.013,0.019,0.013,0.006,0.013,0.026,0.013,0.0,0.006,0.006,0.0,0.026,0.013,0.0,0.006,0.0,-0.0337,-0.4142,0.6289,-0.1089,-0.3543,0.2332,0.2178,-0.589,0.6259,0.1657,-0.1933,0.2454,0.1319,-0.6305,0.5783,0.3191,0.0905,-0.2255,0.0264,-0.3079,0.3072,-0.1161,-0.2018,-0.0662,0.0636,-0.3103,0.3114,0.0899,0.0615,-0.1129,0.0245,-0.307,0.306,0.0174,0.2142,-0.1506,-0.0087,-0.003,0.0056,0.0093,0.0158,-0.044,-0.1338,-0.1894,-0.2119,0.1755,-0.6157,0.3672,-0.3291,-0.1634,0.2798,0.2966,-0.6203,0.2175,-0.2803,-0.2378,0.5213,0.5875,-0.9255,0.0,0.0,0.0,0.0,0.0,0.0,0.0,0.0,0.0,
1.2,run,-0.27,3.25,-0.32,-0.35,-1.82,0.0,0.0,0.0,0.045,-1.41,-25.93,39.02,-7.38,-20.3,12.74,12.66,-36.47,39.11,9.84,-9.14,12.57,7.47,-38.32,36.12,18.19,6.86,-13.54,-1.3,-33.01,46.68,-7.91,-12.82,12.26,13.17,-42.18,46.66,10.29,-6.78,10.7,7.52,-41.6,41.36,17.94,8.08,-14.35,-0.0371,-0.1457,-0.1696,-0.2261,0.2215,-0.6205,0.3764,-0.3858,-0.1181,0.2941,0.3312,-0.6389,0.2148,-0.3018,-0.2013,0.5126,0.6014,-0.9336,0.0,0.019,0.013,0.006,0.013,0.006,0.006,0.026,0.026,0.006,0.006,0.006,0.0,0.045,0.013,0.0,0.0,0.0,-0.0276,-0.4387,0.655,-0.1258,-0.3543,0.2286,0.2209,-0.6136,0.6504,0.1657,-0.1795,0.2332,0.1319,-0.6535,0.6029,0.3191,0.1028,-0.2332,0.0415,-0.3076,0.3129,-0.1446,-0.1412,-0.0636,0.056,-0.3093,0.31,0.0629,0.0949,-0.125,0.0172,-0.3012,0.3062,0.0122,0.196,-0.1342,-0.0089,-0.0016,0.0019,0.0066,0.025,-0.0414,-0.1404,-0.1792,-0.2189,0.1993,-0.6183,0.3725,-0.3574,-0.143,0.2858,0.3133,-0.6283,0.2152,-0.2903,-0.2217,0.5179,0.5942,-0.9292,0.0,0.0,0.0,0.0,0.0,0.0,0.0,0.0,0.0,
1.24,run,-0.28,3.28,-0.13,0.0,1.12,0.0,0.0,0.0,0.045,-1.49,-27.42,40.43,-7.29,-19.69,12.3,12.83,-37.88,40.52,10.11,-8.26,11.78,7.47,-39.29,37.53,17.84,7.38,-13.89,-0.96,-33.13,48.18,-8.15,-11.55,11.57,13.4,-43.68,48.16,10.45,-5.77,9.48,7.66,-42.57,42.86,17.84,8.43,-14.68,-0.0275,-0.1477,-0.1626,-0.2328,0.2446,-0.6286,0.3828,-0.4194,-0.0861,0.2987,0.3496,-0.6532,0.2188,-0.3194,-0.1806,0.5097,0.6078,-0.9374,0.0,0.019,0.013,0.006,0.013,0.006,0.006,0.026,0.026,0.006,0.006,0.006,0.0,0.045,0.013,0.0,0.0,0.0,-0.0261,-0.4633,0.678,-0.1243,-0.3528,0.2194,0.2255,-0.6381,0.675,0.1718,-0.1672,0.2163,0.1319,-0.6734,0.6274,0.3175,0.115,-0.2408,0.0348,-0.3073,0.3053,-0.0954,-0.0931,-0.079,0.0565,-0.3085,0.309,0.067,0.1124,-0.1508,0.012,-0.2856,0.3064,0.0028,0.1832,-0.1227,-0.0094,-0.005,-0.0056,-0.0062,-0.0318,-0.0371,-0.1457,-0.1696,-0.2261,0.2215,-0.6205,0.3764,-0.3858,-0.1181,0.2941,0.3312,-0.6389,0.2148,-0.3018,-0.2013,0.5126,0.6014,-0.9336,0.0,0.0,0.0,0.0,0.0,0.0,0.0,0.0,0.0,
1.28,run,-0.21,3.3,0.85,0.82,0.22,0.0,0.0,0.0,0.045,-1.23,-28.83,41.92,-7.73,-18.63,12.13,12.92,-39.29,41.92,10.28,-7.47,10.99,7.47,-40.17,38.94,17.75,7.91,-14.24,-0.71,-33.6,49.68,-8.4,-10.06,11.14,13.61,-45.18,49.66,10.65,-4.79,8.61,7.67,-43.32,44.36,17.63,8.74,-14.92,-0.0204,-0.1564,-0.1517,-0.24,0.2716,-0.6337,0.389,-0.4488,-0.061,0.3043,0.3675,-0.6635,0.2191,-0.3331,-0.1598,0.5037,0.6134,-0.9402,0.0,0.019,0.013,0.006,0.013,0.006,0.006,0.026,0.026,0.006,0.006,0.006,0.0,0.045,0.013,0.0,0.0,0.0,-0.0276,-0.4893,0.7026,-0.1227,-0.3421,0.2117,0.2286,-0.6627,0.6995,0.1764,-0.1519,0.2025,0.1319,-0.6903,0.6519,0.3114,0.1243,-0.247,0.0186,-0.3129,0.3057,-0.0611,-0.0249,-0.0841,0.051,-0.308,0.3084,0.0642,0.1362,-0.1573,0.0084,-0.2632,0.3065,-0.0211,0.1628,-0.1089,-0.0103,-0.0026,-0.0023,0.0001,0.0195,-0.0275,-0.1477,-0.1626,-0.2328,0.2446,-0.6286,0.3828,-0.4194,-0.0861,0.2987,0.3496,-0.6532,0.2188,-0.3194,-0.1806,0.5097,0.6078,-0.9374,0.0,0.0,0.0,0.0,0.0,0.0,0.0,0.0,0.0,
1.32,run,-0.24,3.27,-0.4,-0.16,-0.8,0.0,0.0,0.0,0.052,-0.7,-30.23,43.33,-8.35,-17.31,11.6,13.18,-40.61,43.33,10.46,-6.5,10.02,7.47,-41.13,40.34,17.75,8.26,-14.59,-0.51,-33.95,51.18,-8.66,-8.8,10.81,13.67,-46.68,51.16,11.1,-3.75,7.69,7.75,-44.29,45.86,17.31,9.01,-15.46,-0.0147,-0.1628,-0.1427,-0.2474,0.2945,-0.6375,0.3907,-0.4785,-0.0347,0.3171,0.3864,-0.6742,0.2216,-0.3507,-0.1394,0.4946,0.6183,-0.9466,0.0,0.019,0.013,0.006,0.006,0.006,0.006,0.039,0.019,0.006,0.013,0.013,0.013,0.052,0.013,0.013,0.006,0.006,-0.023,-0.5139,0.7286,-0.1304,-0.3237,0.2086,0.2301,-0.6872,0.724,0.1795,-0.1381,0.1887,0.1319,-0.7056,0.6765,0.3099,0.1335,-0.2531,0.0304,-0.3115,0.3123,-0.0716,0.0519,-0.0704,0.0415,-0.3081,0.3083,0.0565,0.1474,-0.1621,0.0059,-0.242,0.307,-0.0205,0.1486,-0.0993,-0.0044,-0.001,0.0148,0.0143,0.0039,-0.0204,-0.1564,-0.1517,-0.24,0.2716,-0.6337,0.389,-0.4488,-0.061,0.3043,0.3675,-0.6635,0.2191,-0.3331,-0.1598,0.5037,0.6134,-0.9402,0.0,0.0,0.0,0.0,0.0,0.0,0.0,0.0,0.0,
1.36,run,-0.18,3.27,0.48,0.61,-0.77,0.0,0.0,0.0,0.052,-0.62,-31.46,44.74,-8.35,-15.91,11.07,13.36,-42.19,44.74,10.81,-5.54,9.05,7.56,-42.1,41.92,17.4,8.61,-14.94,-0.22,-34.07,52.68,-8.78,-7.56,10.32,13.8,-48.18,52.66,11.44,-2.63,6.57,7.96,-45.22,47.36,17.05,9.15,-15.61,-0.0062,-0.1648,-0.1369,-0.251,0.3172,-0.6433,0.3943,-0.5063,-0.0045,0.3267,0.4067,-0.6874,0.2273,-0.3677,-0.1091,0.4872,0.6208,-0.9483,0.0,0.019,0.013,0.006,0.006,0.006,0.006,0.039,0.019,0.006,0.013,0.013,0.013,0.052,0.013,0.013,0.006,0.006,-0.0138,-0.5384,0.7532,-0.1411,-0.3007,0.1994,0.2347,-0.7102,0.7486,0.1825,-0.1212,0.1718,0.1319,-0.7225,0.701,0.3099,0.1396,-0.2592,0.0557,-0.31,0.3106,-0.0904,0.1226,-0.0838,0.0463,-0.3019,0.3078,0.051,0.1664,-0.1767,0.0041,-0.2327,0.3069,-0.0144,0.127,-0.0925,-0.0068,-0.0034,-0.0069,-0.0027,-0.0139,-0.0147,-0.1628,-0.1427,-0.2474,0.2945,-0.6375,0.3907,-0.4785,-0.0347,0.3171,0.3864,-0.6742,0.2216,-0.3507,-0.1394,0.4946,0.6183,-0.9466,0.0,0.0,0.0,0.0,0.0,0.0,0.0,0.0,0.0,
1.4,run,-0.18,3.27,-0.26,0.1,0.39,0.0,0.0,0.0,0.052,-0.7,-32.43,46.23,-8.35,-14.41,10.81,13.45,-43.59,46.23,11.07,-4.66,8.17,7.73,-43.07,43.33,17.05,8.88,-15.38,0.12,-34.37,53.89,-8.94,-6.08,9.54,14.0,-49.68,54.16,11.79,-1.57,5.31,8.17,-46.52,48.86,16.84,9.43,-15.95,0.0034,-0.1703,-0.1307,-0.2553,0.3441,-0.6525,0.3999,-0.5382,0.0259,0.3368,0.426,-0.7022,0.2335,-0.3912,-0.082,0.4812,0.6259,-0.9523,0.0,0.019,0.013,0.006,0.006,0.006,0.006,0.039,0.019,0.006,0.013,0.013,0.013,0.052,0.013,0.013,0.006,0.006,-0.0123,-0.5599,0.7777,-0.1411,-0.2761,0.1902,0.2378,-0.7378,0.7731,0.1887,-0.1043,0.1549,0.1335,-0.7394,0.7286,0.3037,0.1457,-0.2654,0.0446,-0.2945,0.3059,-0.0633,0.1743,-0.0919,0.0435,-0.3109,0.304,0.0579,0.1773,-0.1846,0.0084,-0.2237,0.3144,-0.0322,0.111,-0.0869,-0.002,-0.0034,0.0084,0.0107,-0.0134,-0.0062,-0.1648,-0.1369,-0.251,0.3172,-0.6433,0.3943,-0.5063,-0.0045,0.3267,0.4067,-0.6874,0.2273,-0.3677,-0.1091,0.4872,0.6208,-0.9483,0.0,0.0,0.0,0.0,0.0,0.0,0.0,0.0,0.0,
1.44,run,-0.18,3.3,0.55,0.56,-0.2,0.0,0.0,0.0,0.091,-0.09,-33.13,47.64,-8.7,-13.01,10.28,13.62,-45.0,47.64,11.43,-3.69,7.21,8.0,-43.86,44.74,17.05,9.14,-15.56,0.46,-34.71,54.45,-9.09,-4.79,8.82,14.17,-51.18,55.66,12.14,-0.61,4.22,8.41,-47.68,50.36,16.63,9.66,-16.17,0.0133,-0.1765,-0.1241,-0.2598,0.3674,-0.661,0.405,-0.5658,0.0546,0.3468,0.4435,-0.7151,0.2403,-0.4124,-0.054,0.4753,0.6302,-0.955,0.006,0.013,0.019,0.0,0.013,0.013,0.006,0.039,0.019,0.013,0.0,0.006,0.0,0.091,0.0,0.006,0.006,0.006,-0.0138,-0.5768,0.8038,-0.1411,-0.25,0.1856,0.2393,-0.7624,0.7992,0.1933,-0.089,0.1396,0.1365,-0.7563,0.7532,0.2976,0.1503,-0.273,0.0255,-0.269,0.3112,-0.0443,0.2191,-0.0814,0.0361,-0.309,0.3099,0.0576,0.1812,-0.1863,0.0173,-0.2194,0.3115,-0.0454,0.0949,-0.0894,-0.0023,-0.0037,-0.0045,0.0017,0.0068,0.0034,-0.1703,-0.1307,-0.2553,0.3441,-0.6525,0.3999,-0.5382,0.0259,0.3368,0.426,-0.7022,0.2335,-0.3912,-0.082,0.4812,0.6259,-0.9523,0.0,0.0,0.0,0.0,0.0,0.0,0.0,0.0,0.0,
1.48,run,-0.19,3.27,-0.63,-0.66,0.25,0.0,0.0,0.0,0.091,0.35,-33.84,49.04,-8.96,-11.6,9.58,13.71,-46.32,49.04,11.87,-2.64,6.06,8.26,-44.91,46.14,16.61,9.32,-15.91,0.8,-34.62,54.54,-9.11,-3.6,8.09,14.25,-52.68,57.16,12.46,0.39,2.89,8.74,-48.94,51.86,16.46,9.73,-16.51,0.0229,-0.1749,-0.1231,-0.2604,0.3892,-0.6695,0.4072,-0.5917,0.082,0.3559,0.4616,-0.7307,0.2498,-0.4353,-0.0232,0.4702,0.6315,-0.959,0.006,0.013,0.019,0.0,0.013,0.013,0.006,0.039,0.019,0.013,0.0,0.006,0.0,0.091,0.0,0.006,0.006,0.006,-0.0031,-0.589,0.8283,-0.1473,-0.2255,0.1764,0.2424,-0.7869,0.8237,0.1994,-0.0721,0.1227,0.1411,-0.7701,0.7777,0.2976,0.1549,-0.2761,0.0581,-0.2343,0.3098,-0.054,0.2454,-0.0915,0.0368,-0.3083,0.3089,0.0633,0.1901,-0.1937,0.0294,-0.2053,0.31,-0.0318,0.0837,-0.0741,-0.0017,-0.0013,0.0096,0.0098,-0.0034,0.0133,-0.1765,-0.1241,-0.2598,0.3674,-0.661,0.405,-0.5658,0.0546,0.3468,0.4435,-0.7151,0.2403,-0.4124,-0.054,0.4753,0.6302,-0.955,0.0,0.0,0.0,0.0,0.0,0.0,0.0,0.0,0.0,
1.52,run,-0.2,3.28,-0.1,0.32,0.25,0.0,0.0,0.0,0.091,0.44,-34.19,50.45,-8.96,-10.2,8.88,13.89,-47.72,50.45,12.13,-1.67,5.01,8.44,-45.97,47.55,16.44,9.58,-16.08,1.18,-34.6,54.73,-9.09,-2.43,7.4,14.45,-54.18,58.66,12.69,1.29,1.69,9.09,-50.08,53.36,16.34,9.87,-16.43,0.0338,-0.1745,-0.1209,-0.2596,0.4104,-0.6776,0.4128,-0.6142,0.1108,0.3626,0.478,-0.7448,0.2596,-0.4561,0.0104,0.4669,0.6339,-0.958,0.006,0.013,0.019,0.0,0.013,0.013,0.006,0.039,0.019,0.013,0.0,0.006,0.0,0.091,0.0,0.006,0.006,0.006,0.0046,-0.6013,0.8529,-0.1519,-0.201,0.1641,0.2439,-0.8099,0.8483,0.2071,-0.0537,0.1028,0.1457,-0.7885,0.8023,0.2899,0.158,-0.2823,0.0684,-0.2084,0.3056,-0.0544,0.2605,-0.1084,0.0313,-0.299,0.305,0.0721,0.1996,-0.2077,0.0372,-0.2103,0.3058,-0.05,0.0697,-0.074,-0.0026,-0.0033,-0.0109,-0.0115,0.0044,0.0229,-0.1749,-0.1231,-0.2604,0.3892,-0.6695,0.4072,-0.5917,0.082,0.3559,0.4616,-0.7307,0.2498,-0.4353,-0.0232,0.4702,0.6315,-0.959,0.0,0.0,0.0,0.0,0.0,0.0,0.0,0.0,0.0,
1.56,run,-0.2,3.28,0.1,-0.07,0.38,0.0,0.0,0.0,0.156,0.88,-34.19,51.86,-8.88,-8.79,8.17,14.06,-49.22,51.86,12.48,-0.7,3.78,8.79,-47.02,49.04,16.44,9.67,-16.35,1.56,-34.48,54.65,-9.01,-1.21,6.42,14.61,-55.68,60.16,12.85,2.22,0.36,9.42,-51.42,54.86,16.28,10.07,-16.61,0.0446,-0.1723,-0.1217,-0.2575,0.4326,-0.6892,0.4175,-0.6385,0.1373,0.3672,0.4949,-0.7605,0.2692,-0.4803,0.0381,0.4653,0.6375,-0.9602,0.006,0.006,0.006,0.0,0.006,0.013,0.006,0.039,0.019,0.006,0.006,0.006,0.0,0.156,0.013,0.006,0.006,0.0,0.0061,-0.6075,0.8774,-0.1519,-0.1764,0.1519,0.247,-0.8345,0.8728,0.2117,-0.0368,0.0844,0.1488,-0.8069,0.8268,0.2869,0.1626,-0.2853,0.0538,-0.1697,0.3093,-0.0381,0.2777,-0.1236,0.0338,-0.3047,0.3088,0.0683,0.2053,-0.2169,0.038,-0.2187,0.3094,-0.0469,0.0666,-0.0637,-0.0034,-0.0031,-0.0017,0.0057,0.0043,0.0338,-0.1745,-0.1209,-0.2596,0.4104,-0.6776,0.4128,-0.6142,0.1108,0.3626,0.478,-0.7448,0.2596,-0.4561,0.0104,0.4669,0.6339,-0.958,0.0,0.0,0.0,0.0,0.0,0.0,0.0,0.0,0.0,
1.6,run,-0.15,3.3,0.57,-0.43,-1.0,0.0,0.0,0.0,0.156,1.32,-34.19,52.91,-8.88,-7.38,7.38,14.24,-50.62,53.26,12.66,0.26,2.64,9.14,-48.25,50.45,16.35,9.84,-16.35,1.96,-34.07,54.13,-8.78,-0.1,5.21,14.75,-57.18,61.66,12.94,3.12,-1.14,9.84,-52.63,56.36,16.26,10.09,-16.64,0.0559,-0.165,-0.1279,-0.251,0.4527,-0.7034,0.4214,-0.6581,0.1643,0.3697,0.5113,-0.7784,0.2811,-0.5024,0.0707,0.4645,0.6379,-0.9605,0.006,0.006,0.006,0.0,0.006,0.013,0.006,0.039,0.019,0.006,0.006,0.006,0.0,0.156,0.013,0.006,0.006,0.0,0.0138,-0.6075,0.902,-0.1503,-0.1519,0.1396,0.25,-0.8606,0.8974,0.2178,-0.0199,0.0629,0.1549,-0.8253,0.8529,0.2869,0.1641,-0.2899,0.0664,-0.1188,0.3084,-0.0209,0.2863,-0.1325,0.0352,-0.3109,0.3081,0.0708,0.2069,-0.2322,0.0495,-0.222,0.3142,-0.0328,0.0524,-0.0619,-0.0036,-0.0027,0.0017,-0.0013,0.0066,0.0446,-0.1723,-0.1217,-0.2575,0.4326,-0.6892,0.4175,-0.6385,0.1373,0.3672,0.4949,-0.7605,0.2692,-0.4803,0.0381,0.4653,0.6375,-0.9602,0.0,0.0,0.0,0.0,0.0,0.0,0.0,0.0,0.0,
1.64,run,-0.16,3.29,-0.43,-0.28,0.77,0.0,0.0,0.0,0.156,1.49,-34.19,53.7,-8.88,-5.98,6.68,14.33,-52.03,54.67,12.83,1.32,1.49,9.23,-49.39,51.86,16.35,10.02,-16.35,2.3,-33.61,53.71,-8.51,0.83,4.29,14.85,-58.68,63.16,12.95,3.92,-2.39,10.21,-53.71,57.86,16.26,10.18,-16.48,0.0658,-0.1565,-0.1328,-0.2432,0.4697,-0.7142,0.4242,-0.6747,0.1882,0.37,0.5259,-0.7928,0.2916,-0.522,0.0991,0.4646,0.6396,-0.9586,0.006,0.006,0.006,0.0,0.006,0.013,0.006,0.039,0.019,0.006,0.006,0.006,0.0,0.156,0.013,0.006,0.006,0.0,0.0215,-0.6075,0.9204,-0.1503,-0.1273,0.1258,0.2531,-0.8851,0.9219,0.2209,-0.0031,0.043,0.1611,-0.8468,0.8774,0.2853,0.1672,-0.2899,0.0755,-0.0831,0.2856,-0.0147,0.2933,-0.145,0.0362,-0.3105,0.3085,0.0612,0.2087,-0.238,0.0579,-0.2367,0.3128,-0.0288,0.0483,-0.0433,0.0005,-0.0014,0.01,-0.0075,-0.0174,0.0559,-0.165,-0.1279,-0.251,0.4527,-0.7034,0.4214,-0.6581,0.1643,0.3697,0.5113,-0.7784,0.2811,-0.5024,0.0707,0.4645,0.6379,-0.9605,0.0,0.0,0.0,0.0,0.0,0.0,0.0,0.0,0.0,
1.68,run,-0.17,3.29,-0.21,-0.65,0.29,0.0,0.0,0.0,0.156,1.93,-34.19,54.32,-8.88,-4.57,5.71,14.41,-53.53,56.07,12.83,2.29,0.26,9.84,-50.62,53.35,16.35,10.02,-16.35,2.64,-33.18,53.24,-8.22,1.89,3.35,15.02,-60.18,64.66,12.87,4.75,-3.57,10.55,-54.58,59.36,16.27,10.25,-16.2,0.0756,-0.1488,-0.1383,-0.2348,0.4888,-0.7253,0.4291,-0.6877,0.2096,0.3677,0.5409,-0.8067,0.3013,-0.5378,0.1273,0.4649,0.6408,-0.9553,0.013,0.006,0.0,0.0,0.006,0.013,0.006,0.033,0.019,0.0,0.0,0.013,0.0,0.117,0.013,0.0,0.0,0.006,0.0245,-0.6075,0.9342,-0.1503,-0.1028,0.1135,0.2546,-0.9097,0.9465,0.224,0.0153,0.023,0.1626,-0.8667,0.902,0.2853,0.1703,-0.2899,0.0643,-0.0582,0.2514,-0.0103,0.2969,-0.1473,0.0311,-0.309,0.3076,0.0543,0.2148,-0.2411,0.0463,-0.2401,0.3106,-0.0201,0.0452,-0.0303,-0.0006,-0.0022,-0.0076,-0.0049,0.0134,0.0658,-0.1565,-0.1328,-0.2432,0.4697,-0.7142,0.4242,-0.6747,0.1882,0.37,0.5259,-0.7928,0.2916,-0.522,0.0991,0.4646,0.6396,-0.9586,0.0,0.0,0.0,0.0,0.0,0.0,0.0,0.0,0.0,
1.72,run,-0.19,3.27,-0.34,-0.26,-0.51,0.0,0.0,0.0,0.156,2.37,-33.75,54.4,-8.79,-3.08,4.75,14.77,-54.93,57.57,12.74,3.16,-1.14,10.2,-51.86,54.76,16.35,10.02,-16.35,2.98,-32.49,52.57,-7.84,2.82,2.28,15.18,-61.68,66.16,12.74,5.56,-4.79,10.94,-55.48,60.86,16.38,10.33,-15.89,0.0851,-0.1361,-0.1463,-0.2239,0.5057,-0.7379,0.4336,-0.6995,0.2321,0.3641,0.5556,-0.8211,0.3127,-0.5542,0.158,0.4679,0.6424,-0.9516,0.013,0.006,0.0,0.0,0.006,0.013,0.006,0.033,0.019,0.0,0.0,0.013,0.0,0.117,0.013,0.0,0.0,0.006,0.0322,-0.6075,0.9449,-0.1503,-0.0782,0.0966,0.2562,-0.9357,0.971,0.224,0.0322,0.0015,0.1733,-0.8882,0.9281,0.2853,0.1703,-0.2899,0.0739,-0.0407,0.2165,-0.0072,0.3004,-0.1667,0.0275,-0.3146,0.3078,0.038,0.214,-0.2497,0.0729,-0.249,0.3157,-0.0141,0.0317,-0.0212,-0.0013,-0.0021,-0.0037,-0.0114,0.0051,0.0756,-0.1488,-0.1383,-0.2348,0.4888,-0.7253,0.4291,-0.6877,0.2096,0.3677,0.5409,-0.8067,0.3013,-0.5378,0.1273,0.4649,0.6408,-0.9553,0.0,0.0,0.0,0.0,0.0,0.0,0.0,0.0,0.0,
1.76,run,-0.17,3.27,-0.01,0.02,0.76,0.0,0.0,0.0,0.156,2.72,-33.31,54.4,-8.7,-1.76,3.78,14.77,-56.34,58.97,12.74,3.96,-2.29,10.46,-53.0,56.16,16.35,10.11,-16.35,3.31,-31.66,51.72,-7.36,3.78,1.09,15.33,-63.18,67.66,12.5,6.39,-5.95,11.37,-56.36,62.36,16.49,10.37,-15.47,0.0946,-0.1211,-0.1562,-0.2102,0.5233,-0.7519,0.4381,-0.7103,0.2535,0.3572,0.5707,-0.8347,0.3248,-0.5703,0.1864,0.4713,0.6431,-0.9467,0.013,0.006,0.0,0.0,0.006,0.013,0.006,0.033,0.019,0.0,0.0,0.013,0.0,0.117,0.013,0.0,0.0,0.006,0.0399,-0.5998,0.9465,-0.1488,-0.0522,0.0798,0.2623,-0.9603,0.9971,0.2224,0.0476,-0.023,0.1795,-0.9097,0.9526,0.2853,0.1703,-0.2899,0.0804,0.0001,0.1573,0.0007,0.3075,-0.1796,0.0422,-0.3118,0.3128,0.0209,0.207,-0.2663,0.0739,-0.2544,0.3126,-0.0099,0.0222,-0.0149,-0.0028,-0.0038,-0.006,-0.0046,-0.0089,0.0851,-0.1361,-0.1463,-0.2239,0.5057,-0.7379,0.4336,-0.6995,0.2321,0.3641,0.5556,-0.8211,0.3127,-0.5542,0.158,0.4679,0.6424,-0.9516,0.0,0.0,0.0,0.0,0.0,0.0,0.0,0.0,0.0,
1.8,run,-0.17,3.27,-0.46,-0.49,-0.84,0.0,0.0,0.0,0.156,3.16,-32.87,53.79,-8.09,-0.26,2.81,14.94,-57.83,60.29,12.66,4.92,-3.52,10.99,-54.05,57.57,16.35,10.2,-16.08,3.59,-30.96,50.94,-6.9,4.68,0.07,15.47,-64.46,69.16,12.26,7.08,-6.98,11.72,-57.08,63.86,16.58,10.45,-15.08,0.1025,-0.1083,-0.1655,-0.197,0.5397,-0.7638,0.442,-0.7175,0.2709,0.3503,0.5832,-0.8469,0.3349,-0.5833,0.2111,0.4736,0.6445,-0.9422,0.006,0.013,0.013,0.0,0.0,0.013,0.006,0.026,0.026,0.006,0.006,0.006,0.006,0.091,0.006,0.006,0.006,0.006,0.046,-0.5921,0.9465,-0.1473,-0.0291,0.0629,0.2623,-0.9848,1.0216,0.2224,0.0614,-0.043,0.1841,-0.9296,0.9771,0.2853,0.1718,-0.2899,0.0793,0.0288,0.1101,0.0062,0.3016,-0.189,0.0295,-0.3103,0.311,0.0146,0.1967,-0.2612,0.069,-0.2529,0.3108,-0.0069,0.0213,-0.0104,-0.001,-0.0033,-0.0003,0.0003,0.0132,0.0946,-0.1211,-0.1562,-0.2102,0.5233,-0.7519,0.4381,-0.7103,0.2535,0.3572,0.5707,-0.8347,0.3248,-0.5703,0.1864,0.4713,0.6431,-0.9467,0.0,0.0,0.0,0.0,0.0,0.0,0.0,0.0,0.0,
1.84,run,-0.18,3.28,0.13,0.22,0.81,0.0,0.0,0.0,0.156,3.43,-32.17,52.82,-7.47,1.14,1.67,15.12,-59.33,61.7,12.3,5.71,-4.83,11.34,-55.02,58.97,16.52,10.2,-15.64,3.87,-30.01,49.87,-6.31,5.56,-1.16,15.56,-64.83,70.66,11.86,7.81,-8.12,12.11,-57.77,65.36,16.76,10.4,-14.53,0.1105,-0.091,-0.1779,-0.1803,0.5557,-0.7784,0.4446,-0.7241,0.2903,0.3388,0.5965,-0.8602,0.346,-0.5959,0.2364,0.4789,0.6436,-0.9357,0.006,0.013,0.013,0.0,0.0,0.013,0.006,0.026,0.026,0.006,0.006,0.006,0.006,0.091,0.006,0.006,0.006,0.006,0.0537,-0.5844,0.9357,-0.1365,-0.0031,0.046,0.2654,-1.0109,1.0446,0.2209,0.0782,-0.0644,0.1933,-0.948,1.0017,0.2853,0.1733,-0.2853,0.0841,0.0488,0.037,0.0445,0.3084,-0.1953,0.0321,-0.3146,0.3036,0.0045,0.2007,-0.263,0.0826,-0.2457,0.3092,-0.0048,0.0206,0.0099,-0.0014,-0.0037,-0.008,-0.0086,-0.0147,0.1025,-0.1083,-0.1655,-0.197,0.5397,-0.7638,0.442,-0.7175,0.2709,0.3503,0.5832,-0.8469,0.3349,-0.5833,0.2111,0.4736,0.6445,-0.9422,0.0,0.0,0.0,0.0,0.0,0.0,0.0,0.0,0.0,
1.88,run,-0.16,3.3,0.12,0.07,-0.19,0.0,0.0,0.0,0.156,3.69,-31.38,51.94,-7.12,2.55,0.7,15.12,-60.82,63.28,12.3,6.59,-5.98,11.69,-55.9,60.56,16.61,10.2,-15.21,4.12,-29.0,48.63,-5.68,6.54,-2.41,15.67,-65.04,72.16,11.36,8.59,-9.21,12.47,-58.26,66.86,16.93,10.48,-13.99,0.1177,-0.0728,-0.1926,-0.1622,0.5735,-0.7931,0.4478,-0.7281,0.3055,0.3245,0.6107,-0.8731,0.3562,-0.6048,0.2595,0.4838,0.6451,-0.9293,0.006,0.013,0.013,0.0,0.0,0.013,0.006,0.026,0.026,0.006,0.006,0.006,0.006,0.091,0.006,0.006,0.006,0.006,0.0583,-0.5722,0.9189,-0.1258,0.0215,0.0261,0.2684,-1.037,1.0692,0.2148,0.092,-0.0874,0.1994,-0.9649,1.0262,0.2884,0.1733,-0.2777,0.0763,0.0806,-0.038,0.0718,0.3088,-0.2122,0.0341,-0.3189,0.3054,-0.0201,0.1927,-0.2712,0.0811,-0.2359,0.3093,0.0082,0.0144,0.036,-0.0018,-0.003,0.0023,0.0038,0.0142,0.1105,-0.091,-0.1779,-0.1803,0.5557,-0.7784,0.4446,-0.7241,0.2903,0.3388,0.5965,-0.8602,0.346,-0.5959,0.2364,0.4789,0.6436,-0.9357,0.0,0.0,0.0,0.0,0.0,0.0,0.0,0.0,0.0,
1.92,run,-0.17,3.34,0.24,0.26,1.06,0.0,0.0,0.0,0.156,3.96,-30.67,50.89,-6.68,3.69,-0.35,15.38,-62.14,64.6,11.6,7.29,-7.12,12.13,-56.69,61.88,16.88,10.2,-14.77,4.34,-27.96,47.44,-5.0,7.32,-3.66,15.75,-65.22,73.66,10.88,9.19,-10.16,12.85,-58.87,68.36,17.09,10.45,-13.45,0.1241,-0.0538,-0.2066,-0.1429,0.5876,-0.8077,0.45,-0.7313,0.3207,0.3108,0.6217,-0.8842,0.3672,-0.6158,0.2805,0.4882,0.6445,-0.923,0.0,0.006,0.013,0.006,0.006,0.013,0.006,0.019,0.019,0.006,0.006,0.013,0.006,0.039,0.0,0.006,0.0,0.006,0.0629,-0.5584,0.9035,-0.1197,0.046,0.0092,0.2684,-1.063,1.0968,0.2148,0.1074,-0.1074,0.2056,-0.9802,1.0538,0.2899,0.1733,-0.27,0.0695,0.1046,-0.0801,0.0717,0.3018,-0.2074,0.0239,-0.3143,0.3102,-0.0141,0.1885,-0.2595,0.0782,-0.2187,0.3129,0.0111,0.0101,0.0519,-0.0003,-0.001,0.0021,0.0013,-0.0033,0.1177,-0.0728,-0.1926,-0.1622,0.5735,-0.7931,0.4478,-0.7281,0.3055,0.3245,0.6107,-0.8731,0.3562,-0.6048,0.2595,0.4838,0.6451,-0.9293,0.0,0.0,0.0,0.0,0.0,0.0,0.0,0.0,0.0,
1.96,run,-0.17,3.34,0.17,0.04,0.19,0.0,0.0,0.0,0.156,4.22,-29.53,49.75,-5.71,5.01,-1.67,15.38,-63.46,66.27,11.16,8.26,-8.44,12.57,-57.66,63.46,16.96,10.28,-14.15,4.54,-26.94,46.18,-4.39,8.05,-4.71,15.82,-65.24,75.16,10.32,9.89,-11.02,13.15,-59.04,69.86,17.29,10.54,-12.82,0.1296,-0.0354,-0.2214,-0.1253,0.6009,-0.8201,0.452,-0.7317,0.3325,0.2949,0.6343,-0.8944,0.3758,-0.619,0.2998,0.4939,0.6461,-0.9155,0.0,0.006,0.013,0.006,0.006,0.013,0.006,0.019,0.019,0.006,0.006,0.013,0.006,0.039,0.0,0.006,0.0,0.006,0.0675,-0.5461,0.8851,-0.112,0.066,-0.0092,0.273,-1.0861,1.1198,0.2025,0.1197,-0.1273,0.2132,-0.994,1.0769,0.2945,0.1733,-0.2623,0.0672,0.1227,-0.1302,0.081,0.2916,-0.2194,0.0352,-0.3127,0.3098,-0.0593,0.1813,-0.2619,0.0856,-0.2087,0.3117,0.0263,0.0071,0.0673,-0.0007,0.0021,0.0043,0.0045,0.0186,0.1241,-0.0538,-0.2066,-0.1429,0.5876,-0.8077,0.45,-0.7313,0.3207,0.3108,0.6217,-0.8842,0.3672,-0.6158,0.2805,0.4882,0.6445,-0.923,0.0,0.0,0.0,0.0,0.0,0.0,0.0,0.0,0.0,
2.0,run,-0.17,3.33,-0.35,-0.26,-0.59,0.0,0.0,0.0,0.156,4.31,-28.83,48.78,-5.27,6.06,-2.72,15.38,-64.34,67.68,10.9,8.88,-9.32,12.66,-58.18,64.95,16.96,10.28,-13.71,4.75,-25.7,44.68,-3.6,8.88,-6.05,15.83,-65.32,76.66,9.68,10.52,-12.05,13.51,-59.55,71.36,17.51,10.52,-12.16,0.1357,-0.0127,-0.2392,-0.1028,0.6161,-0.8359,0.4524,-0.7331,0.3481,0.2766,0.6458,-0.9065,0.3859,-0.6281,0.3198,0.5004,0.6459,-0.9078,0.0,0.006,0.013,0.006,0.006,0.013,0.006,0.019,0.019,0.006,0.006,0.013,0.006,0.039,0.0,0.006,0.0,0.006,0.0721,-0.5262,0.8652,-0.0951,0.089,-0.0322,0.273,-1.1091,1.149,0.1948,0.1365,-0.1503,0.2209,-1.0109,1.1045,0.2961,0.1749,-0.2516,0.0617,0.1494,-0.1547,0.1105,0.2774,-0.2269,0.0247,-0.2922,0.3097,-0.0659,0.1807,-0.2567,0.0844,-0.1998,0.3062,0.0233,0.0098,0.0813,-0.0009,0.0023,0.0029,0.0007,0.0034,0.1296,-0.0354,-0.2214,-0.1253,0.6009,-0.8201,0.452,-0.7317,0.3325,0.2949,0.6343,-0.8944,0.3758,-0.619,0.2998,0.4939,0.6461,-0.9155,0.0,0.0,0.0,0.0,0.0,0.0,0.0,0.0,0.0,
2.04,run,-0.15,3.32,0.38,0.48,0.37,0.0,0.0,0.0,0.156,4.66,-27.86,47.64,-5.27,7.03,-3.87,15.47,-64.86,69.08,10.28,9.58,-10.37,13.18,-58.62,66.53,17.4,10.28,-13.18,4.93,-24.72,43.54,-2.96,9.42,-6.96,15.89,-65.29,78.16,9.12,10.94,-12.6,13.83,-59.88,72.86,17.64,10.54,-11.56,0.1409,0.005,-0.2524,-0.0845,0.6258,-0.8466,0.454,-0.7325,0.3594,0.2607,0.6534,-0.913,0.395,-0.6343,0.334,0.5041,0.6461,-0.9007,0.0,0.0,0.019,0.019,0.006,0.019,0.006,0.006,0.026,0.006,0.0,0.006,0.0,0.033,0.013,0.006,0.006,0.006,0.0736,-0.5139,0.8483,-0.0874,0.1074,-0.0506,0.273,-1.1244,1.1735,0.1902,0.1473,-0.1657,0.2224,-1.0201,1.1305,0.2961,0.1749,-0.2439,0.0489,0.1503,-0.1711,0.1059,0.2628,-0.2274,0.0173,-0.2617,0.3082,-0.0633,0.1665,-0.2368,0.0648,-0.1742,0.3115,0.0163,0.0069,0.0855,-0.0012,0.0014,-0.0061,-0.0045,-0.0103,0.1357,-0.0127,-0.2392,-0.1028,0.6161,-0.8359,0.4524,-0.7331,0.3481,0.2766,0.6458,-0.9065,0.3859,-0.6281,0.3198,0.5004,0.6459,-0.9078,0.0,0.0,0.0,0.0,0.0,0.0,0.0,0.0,0.0,
2.08,run,-0.14,3.33,0.02,-0.1,-1.27,0.0,0.0,0.0,0.156,4.83,-26.81,46.41,-4.31,8.0,-5.1,15.47,-65.13,70.49,9.67,10.2,-11.43,13.54,-59.24,67.76,17.58,10.28,-12.57,5.08,-23.43,42.04,-2.19,10.03,-7.87,15.87,-65.1,79.66,8.46,11.52,-13.22,14.09,-60.01,74.36,17.8,10.58,-10.87,0.1451,0.0286,-0.2711,-0.0626,0.6369,-0.8573,0.4535,-0.7291,0.3662,0.2417,0.6639,-0.9203,0.4027,-0.6365,0.3493,0.5086,0.6469,-0.8926,0.0,0.0,0.019,0.019,0.006,0.019,0.006,0.006,0.026,0.006,0.0,0.006,0.0,0.033,0.013,0.006,0.006,0.006,0.0798,-0.497,0.8283,-0.0874,0.1243,-0.0706,0.2746,-1.1336,1.198,0.1795,0.1595,-0.1841,0.2316,-1.0278,1.1582,0.3037,0.1749,-0.2347,0.0572,0.1685,-0.1946,0.0741,0.2472,-0.234,0.0178,-0.2177,0.3078,-0.0846,0.1626,-0.2348,0.0799,-0.1507,0.3216,0.0402,0.0048,0.0944,0.0005,0.0005,0.0067,0.0083,0.0064,0.1409,0.005,-0.2524,-0.0845,0.6258,-0.8466,0.454,-0.7325,0.3594,0.2607,0.6534,-0.913,0.395,-0.6343,0.334,0.5041,0.6461,-0.9007,0.0,0.0,0.0,0.0,0.0,0.0,0.0,0.0,0.0,
2.12,run,-0.16,3.32,-0.55,-0.28,0.28,0.0,0.0,0.0,0.156,4.92,-25.84,45.26,-2.99,8.7,-6.06,15.47,-65.13,71.89,9.05,10.72,-12.22,13.8,-59.5,69.26,17.58,10.28,-11.95,5.24,-22.23,40.54,-1.48,10.59,-8.87,15.79,-65.03,81.16,7.8,11.96,-13.82,14.34,-60.25,75.86,18.01,10.63,-10.22,0.1498,0.0504,-0.2879,-0.0423,0.6471,-0.869,0.4512,-0.7277,0.3766,0.2228,0.672,-0.9272,0.4096,-0.6409,0.3609,0.5145,0.6479,-0.8849,0.0,0.0,0.019,0.019,0.006,0.019,0.006,0.006,0.026,0.006,0.0,0.006,0.0,0.033,0.013,0.006,0.006,0.006,0.0828,-0.4786,0.8069,-0.0706,0.1411,-0.092,0.2746,-1.1382,1.2226,0.1687,0.1703,-0.2025,0.2378,-1.0385,1.1796,0.3068,0.1749,-0.224,0.0516,0.1872,-0.217,0.1154,0.2366,-0.2446,0.0125,-0.1697,0.3078,-0.0996,0.1542,-0.2336,0.079,-0.1459,0.3059,0.0397,0.0034,0.1065,0.0014,0.0017,0.0003,-0.0018,-0.0222,0.1451,0.0286,-0.2711,-0.0626,0.6369,-0.8573,0.4535,-0.7291,0.3662,0.2417,0.6639,-0.9203,0.4027,-0.6365,0.3493,0.5086,0.6469,-0.8926,0.0,0.0,0.0,0.0,0.0,0.0,0.0,0.0,0.0,
2.16,run,-0.15,3.33,0.41,0.22,0.89,0.0,0.0,0.0,0.156,5.1,-24.79,43.95,-2.9,9.49,-7.21,15.47,-65.04,73.39,8.35,11.34,-13.01,14.06,-59.68,70.93,18.02,10.28,-11.25,5.38,-21.04,39.04,-0.71,11.17,-9.76,15.72,-64.67,82.66,7.03,12.38,-14.36,14.54,-60.22,77.36,18.14,10.67,-9.41,0.1538,0.072,-0.3073,-0.0203,0.6577,-0.8796,0.449,-0.7213,0.3838,0.201,0.6796,-0.9336,0.4154,-0.6403,0.3706,0.5184,0.6485,-0.8754,0.006,0.006,0.019,0.026,0.0,0.013,0.0,0.006,0.026,0.006,0.006,0.006,0.013,0.019,0.006,0.006,0.0,0.013,0.0844,-0.4617,0.7869,-0.0476,0.1534,-0.1089,0.2746,-1.1382,1.2471,0.158,0.1795,-0.2163,0.2424,-1.0431,1.2057,0.3068,0.1749,-0.2132,0.0419,0.194,-0.2263,0.1666,0.2114,-0.2341,0.0087,-0.1188,0.307,-0.1098,0.1423,-0.215,0.0725,-0.1193,0.3114,0.0278,0.0024,0.1146,0.0002,0.0005,-0.0096,-0.0049,0.0048,0.1498,0.0504,-0.2879,-0.0423,0.6471,-0.869,0.4512,-0.7277,0.3766,0.2228,0.672,-0.9272,0.4096,-0.6409,0.3609,0.5145,0.6479,-0.8849,0.0,0.0,0.0,0.0,0.0,0.0,0.0,0.0,0.0,
2.2,run,-0.16,3.31,-0.49,-0.19,1.27,0.0,0.0,0.0,0.156,5.45,-23.64,42.63,-2.46,10.28,-8.17,15.47,-64.86,74.79,7.73,11.78,-13.71,14.24,-59.68,71.89,18.11,10.46,-10.55,5.5,-19.61,37.54,0.13,11.66,-10.49,15.62,-64.19,84.16,6.29,12.81,-14.77,14.74,-60.15,78.86,18.23,10.68,-8.56,0.1572,0.098,-0.3294,0.0037,0.6666,-0.8881,0.4464,-0.7126,0.3877,0.1796,0.6875,-0.9384,0.4211,-0.6392,0.3809,0.5209,0.6487,-0.8654,0.006,0.006,0.019,0.026,0.0,0.013,0.0,0.006,0.026,0.006,0.006,0.006,0.013,0.019,0.006,0.006,0.0,0.013,0.0874,-0.4433,0.7639,-0.046,0.1672,-0.1289,0.2746,-1.1367,1.2732,0.1457,0.1902,-0.2301,0.247,-1.0462,1.2349,0.3145,0.1749,-0.201,0.0408,0.2046,-0.2444,0.1224,0.1995,-0.2384,0.0061,-0.0774,0.3123,-0.1227,0.1397,-0.2021,0.0679,-0.095,0.3269,0.0481,0.0017,0.126,0.0009,0.0018,0.0072,0.0038,0.0155,0.1538,0.072,-0.3073,-0.0203,0.6577,-0.8796,0.449,-0.7213,0.3838,0.201,0.6796,-0.9336,0.4154,-0.6403,0.3706,0.5184,0.6485,-0.8754,0.0,0.0,0.0,0.0,0.0,0.0,0.0,0.0,0.0,
2.24,run,-0.18,3.3,-0.54,-0.31,0.18,0.0,0.0,0.0,0.156,5.45,-22.5,41.31,-0.97,10.81,-9.14,15.47,-64.6,76.11,7.12,12.22,-14.33,14.5,-59.77,73.56,18.02,10.55,-9.93,5.62,-18.42,36.04,0.86,11.96,-10.9,15.51,-63.62,85.66,5.62,13.13,-15.02,14.9,-59.92,80.36,18.31,10.64,-7.64,0.1607,0.1196,-0.3482,0.0247,0.6721,-0.893,0.4432,-0.7021,0.3915,0.1605,0.6932,-0.9415,0.4256,-0.6349,0.3881,0.5233,0.648,-0.8546,0.006,0.006,0.019,0.026,0.0,0.013,0.0,0.006,0.026,0.006,0.006,0.006,0.013,0.019,0.006,0.006,0.0,0.013,0.0936,-0.4234,0.7409,-0.0383,0.181,-0.1457,0.2746,-1.1336,1.2977,0.135,0.1979,-0.2424,0.25,-1.0462,1.2517,0.316,0.1779,-0.1887,0.0518,0.2188,-0.2583,0.1147,0.192,-0.2308,0.0043,-0.0426,0.3117,-0.1266,0.1269,-0.188,0.0592,-0.0665,0.2928,0.0395,0.0128,0.1348,-0.0001,-0.0003,-0.0085,-0.0034,0.0222,0.1572,0.098,-0.3294,0.0037,0.6666,-0.8881,0.4464,-0.7126,0.3877,0.1796,0.6875,-0.9384,0.4211,-0.6392,0.3809,0.5209,0.6487,-0.8654,0.0,0.0,0.0,0.0,0.0,0.0,0.0,0.0,0.0,
2.28,run,-0.16,3.32,0.64,0.59,0.63,0.0,0.0,0.0,0.156,5.45,-21.36,39.99,-0.53,11.43,-10.02,15.47,-64.07,77.52,6.33,12.74,-14.77,14.77,-59.77,75.15,18.28,10.55,-9.14,5.74,-17.1,34.54,1.62,12.49,-11.84,15.36,-63.2,87.16,4.91,13.45,-15.52,15.06,-59.98,81.86,18.44,10.62,-6.87,0.1639,0.1437,-0.3684,0.0464,0.6817,-0.904,0.4388,-0.6946,0.3989,0.1404,0.699,-0.9473,0.4304,-0.636,0.395,0.5269,0.6476,-0.8455,0.0,0.006,0.013,0.026,0.0,0.013,0.0,0.006,0.026,0.006,0.006,0.006,0.0,0.006,0.006,0.0,0.0,0.006,0.0936,-0.4034,0.7179,-0.0123,0.1902,-0.1626,0.2746,-1.129,1.3208,0.1243,0.2056,-0.2531,0.2546,-1.0477,1.2809,0.3145,0.1795,-0.1779,0.0363,0.2275,-0.2666,0.1776,0.1687,-0.2245,0.003,-0.0126,0.304,-0.1287,0.1174,-0.1717,0.0586,-0.0523,0.3137,0.0219,0.0147,0.1344,-0.0019,-0.0009,-0.0094,-0.0054,0.0031,0.1607,0.1196,-0.3482,0.0247,0.6721,-0.893,0.4432,-0.7021,0.3915,0.1605,0.6932,-0.9415,0.4256,-0.6349,0.3881,0.5233,0.648,-0.8546,0.0,0.0,0.0,0.0,0.0,0.0,0.0,0.0,0.0,
2.32,run,-0.19,3.33,-0.41,0.16,0.8,0.0,0.0,0.0,0.156,5.71,-19.86,38.32,0.18,11.95,-10.9,15.47,-63.46,79.28,5.45,13.18,-15.29,14.77,-59.77,76.55,18.37,10.55,-8.09,5.84,-15.66,33.04,2.44,12.9,-12.4,15.16,-62.51,88.66,4.17,13.79,-15.81,15.19,-59.79,83.36,18.47,10.63,-5.95,0.167,0.1699,-0.3916,0.0698,0.6891,-0.9106,0.4332,-0.682,0.4001,0.1193,0.7052,-0.9507,0.4341,-0.6325,0.4008,0.5278,0.6478,-0.8347,0.0,0.006,0.013,0.026,0.0,0.013,0.0,0.006,0.026,0.006,0.006,0.006,0.0,0.006,0.006,0.0,0.0,0.006,0.0936,-0.3835,0.6949,-0.0046,0.201,-0.1779,0.2746,-1.1198,1.3453,0.1104,0.2148,-0.2608,0.2592,-1.0477,1.3085,0.3191,0.1795,-0.1641,0.0254,0.234,-0.2729,0.1531,0.1584,-0.2147,0.0021,0.0257,0.3048,-0.1418,0.1167,-0.1489,0.0583,-0.0366,0.3231,0.0326,0.0103,0.1458,-0.0005,0.0007,0.0112,0.0103,0.011,0.1639,0.1437,-0.3684,0.0464,0.6817,-0.904,0.4388,-0.6946,0.3989,0.1404,0.699,-0.9473,0.4304,-0.636,0.395,0.5269,0.6476,-0.8455,0.0,0.0,0.0,0.0,0.0,0.0,0.0,0.0,0.0,
2.36,run,-0.19,3.3,-0.27,-0.42,-1.36,0.0,0.0,0.0,0.156,5.71,-18.72,36.91,1.32,12.3,-11.6,15.47,-63.19,80.68,5.01,13.36,-15.64,15.03,-59.77,78.22,18.37,10.55,-7.47,5.97,-14.16,31.54,3.3,13.24,-12.86,14.96,-61.59,90.16,3.45,14.08,-16.03,15.29,-59.38,84.86,18.5,10.51,-4.68,0.1705,0.1979,-0.4159,0.0942,0.6952,-0.916,0.4273,-0.6654,0.4035,0.0986,0.7105,-0.9533,0.4369,-0.6251,0.4066,0.5285,0.6457,-0.8198,0.0,0.006,0.013,0.026,0.0,0.013,0.0,0.006,0.026,0.006,0.006,0.006,0.0,0.006,0.006,0.0,0.0,0.006,0.0982,-0.3574,0.6657,0.0077,0.2102,-0.1933,0.2746,-1.1091,1.376,0.0951,0.2224,-0.27,0.2592,-1.0477,1.333,0.3206,0.1795,-0.1457,0.0322,0.2454,-0.2822,0.1455,0.1396,-0.1983,0.0015,0.0516,0.3093,-0.1473,0.1057,-0.133,0.0408,-0.0256,0.3029,0.0276,0.0072,0.1597,-0.0026,0.0014,-0.0072,0.0027,0.014,0.167,0.1699,-0.3916,0.0698,0.6891,-0.9106,0.4332,-0.682,0.4001,0.1193,0.7052,-0.9507,0.4341,-0.6325,0.4008,0.5278,0.6478,-0.8347,0.0,0.0,0.0,0.0,0.0,0.0,0.0,0.0,0.0,
2.4,run,-0.18,3.32,0.11,0.08,1.28,0.0,0.0,0.0,0.156,5.89,-17.58,35.6,1.49,12.74,-12.3,15.38,-62.58,82.09,4.31,13.71,-16.0,15.12,-59.5,79.54,18.37,10.55,-6.68,6.09,-12.8,30.04,4.0,13.56,-13.63,14.79,-61.03,91.66,2.87,14.31,-16.46,15.43,-59.41,86.36,18.56,10.42,-3.94,0.1739,0.2219,-0.4362,0.1144,0.7012,-0.9251,0.4226,-0.6551,0.4077,0.082,0.7147,-0.9583,0.4409,-0.6256,0.4109,0.5304,0.6439,-0.8111,0.006,0.006,0.013,0.026,0.0,0.013,0.006,0.006,0.019,0.006,0.006,0.0,0.013,0.0,0.013,0.006,0.0,0.013,0.0982,-0.3375,0.6412,0.0276,0.2163,-0.2056,0.2746,-1.1045,1.4005,0.0874,0.2255,-0.2761,0.2638,-1.0477,1.3622,0.3206,0.1795,-0.135,0.0225,0.2456,-0.2884,0.1757,0.1205,-0.1842,0.001,0.0531,0.3074,-0.1315,0.0853,-0.1158,0.0456,-0.0179,0.32,0.0193,0.005,0.1515,-0.0029,-0.0007,-0.0048,-0.0074,-0.0237,0.1705,0.1979,-0.4159,0.0942,0.6952,-0.916,0.4273,-0.6654,0.4035,0.0986,0.7105,-0.9533,0.4369,-0.6251,0.4066,0.5285,0.6457,-0.8198,0.0,0.0,0.0,0.0,0.0,0.0,0.0,0.0,0.0,
2.44,run,-0.19,3.3,-0.66,-0.64,-0.78,0.0,0.0,0.0,0.156,6.06,-16.0,33.93,2.64,13.18,-13.01,15.21,-61.7,83.76,3.43,14.06,-16.35,15.21,-59.33,81.21,18.37,10.55,-5.54,6.2,-11.46,28.54,4.73,13.87,-13.73,14.58,-59.99,93.16,2.29,14.55,-16.57,15.46,-58.9,87.86,18.5,10.29,-2.78,0.1771,0.2463,-0.4593,0.1352,0.7067,-0.9262,0.4167,-0.6362,0.4076,0.0653,0.7192,-0.9597,0.4418,-0.6164,0.4157,0.5286,0.6417,-0.7974,0.006,0.006,0.013,0.026,0.0,0.013,0.006,0.006,0.019,0.006,0.006,0.0,0.013,0.0,0.013,0.006,0.0,0.013,0.1012,-0.3175,0.6182,0.0307,0.224,-0.2178,0.273,-1.0937,1.4251,0.0752,0.2316,-0.2823,0.2654,-1.0431,1.3852,0.3206,0.1795,-0.1212,0.0273,0.2466,-0.2881,0.1345,0.1131,-0.1749,-0.005,0.0774,0.3071,-0.138,0.0827,-0.1041,0.0377,0.0047,0.3102,0.0135,0.0035,0.1578,-0.0022,0.0007,0.0019,0.0014,0.0223,0.1739,0.2219,-0.4362,0.1144,0.7012,-0.9251,0.4226,-0.6551,0.4077,0.082,0.7147,-0.9583,0.4409,-0.6256,0.4109,0.5304,0.6439,-0.8111,0.0,0.0,0.0,0.0,0.0,0.0,0.0,0.0,0.0,
2.48,run,-0.15,3.29,0.9,0.04,-1.76,0.0,0.0,0.0,0.156,6.06,-14.85,32.61,3.34,13.45,-13.54,14.94,-61.17,85.17,2.9,14.24,-16.44,15.38,-59.24,82.71,18.54,10.55,-4.75,6.32,-9.96,27.04,5.56,14.21,-14.15,14.26,-59.08,94.66,1.67,14.75,-16.83,15.53,-58.72,89.36,18.51,10.1,-1.61,0.1806,0.2761,-0.4841,0.1588,0.7128,-0.9311,0.4073,-0.6197,0.411,0.0476,0.7227,-0.9627,0.4438,-0.613,0.4188,0.529,0.6382,-0.7836,0.006,0.006,0.013,0.026,0.0,0.013,0.006,0.006,0.019,0.006,0.006,0.0,0.013,0.0,0.013,0.006,0.0,0.013,0.1043,-0.2899,0.589,0.0506,0.2316,-0.2301,0.27,-1.0784,1.4542,0.0598,0.2378,-0.2884,0.2669,-1.04,1.4143,0.3206,0.1795,-0.1012,0.0288,0.2602,-0.294,0.1573,0.1035,-0.1613,-0.0132,0.1028,0.3074,-0.1452,0.0774,-0.0923,0.0312,0.013,0.3095,0.0095,0.0025,0.1737,-0.0029,-0.0009,-0.0116,-0.0113,-0.0137,0.1771,0.2463,-0.4593,0.1352,0.7067,-0.9262,0.4167,-0.6362,0.4076,0.0653,0.7192,-0.9597,0.4418,-0.6164,0.4157,0.5286,0.6417,-0.7974,0.0,0.0,0.0,0.0,0.0,0.0,0.0,0.0,0.0,
2.52,run,-0.18,3.28,-0.6,0.05,1.68,0.0,0.0,0.0,0.156,6.24,-13.54,31.2,4.04,13.71,-13.89,14.59,-60.29,86.57,2.29,14.5,-16.7,15.38,-58.97,84.11,18.54,10.46,-3.87,6.41,-8.55,25.54,6.21,14.45,-14.47,14.0,-58.29,96.16,1.19,14.9,-17.08,15.58,-58.56,90.86,18.49,9.96,-0.87,0.1832,0.299,-0.5053,0.1774,0.7172,-0.935,0.4001,-0.6053,0.4104,0.034,0.7255,-0.9656,0.4452,-0.6101,0.4202,0.5283,0.6357,-0.775,0.0,0.006,0.013,0.006,0.0,0.006,0.006,0.006,0.026,0.006,0.0,0.006,0.0,0.006,0.006,0.0,0.006,0.013,0.1043,-0.27,0.566,0.0629,0.2362,-0.2393,0.2654,-1.0692,1.4788,0.0506,0.2408,-0.2899,0.27,-1.0385,1.4404,0.3237,0.1795,-0.0874,0.0202,0.2557,-0.2908,0.1554,0.0894,-0.1469,-0.0263,0.1059,0.3058,-0.1356,0.0655,-0.0703,0.0332,0.0148,0.3129,0.018,0.0017,0.1725,0.0007,-0.0021,0.0157,0.0007,-0.0307,0.1806,0.2761,-0.4841,0.1588,0.7128,-0.9311,0.4073,-0.6197,0.411,0.0476,0.7227,-0.9627,0.4438,-0.613,0.4188,0.529,0.6382,-0.7836,0.0,0.0,0.0,0.0,0.0,0.0,0.0,0.0,0.0,
2.56,run,-0.17,3.27,0.63,-0.02,-1.73,0.0,0.0,0.0,0.156,6.42,-12.22,29.79,4.83,14.15,-14.33,14.33,-59.41,87.98,1.58,14.77,-16.96,15.47,-58.54,85.52,18.54,10.28,-2.9,6.52,-7.21,24.04,6.89,14.7,-14.43,13.73,-57.05,97.66,0.7,15.05,-17.07,15.54,-57.91,92.36,18.38,9.65,0.46,0.1862,0.3235,-0.5282,0.1969,0.7218,-0.9345,0.3924,-0.5827,0.411,0.0201,0.7282,-0.9655,0.4441,-0.5983,0.4231,0.5252,0.63,-0.7592,0.0,0.006,0.013,0.006,0.0,0.006,0.006,0.006,0.026,0.006,0.0,0.006,0.0,0.006,0.006,0.0,0.006,0.013,0.1074,-0.247,0.5415,0.0752,0.2408,-0.2454,0.2592,-1.0538,1.5033,0.0399,0.2454,-0.2945,0.27,-1.0339,1.465,0.3237,0.1779,-0.0721,0.0256,0.2653,-0.2956,0.1549,0.0799,-0.1259,-0.0414,0.1317,0.3061,-0.1352,0.0631,-0.0665,0.0232,0.0276,0.3111,0.0126,-0.0045,0.1783,-0.0023,-0.0027,-0.0105,0.0009,0.0294,0.1832,0.299,-0.5053,0.1774,0.7172,-0.935,0.4001,-0.6053,0.4104,0.034,0.7255,-0.9656,0.4452,-0.6101,0.4202,0.5283,0.6357,-0.775,0.0,0.0,0.0,0.0,0.0,0.0,0.0,0.0,0.0,
2.6,run,-0.18,3.25,-0.4,-0.13,0.7,0.0,0.0,0.0,0.156,6.42,-10.81,28.39,5.54,14.41,-14.41,14.06,-58.62,89.47,1.05,14.85,-16.96,15.38,-58.54,86.92,18.46,10.11,-1.93,6.59,-5.92,22.54,7.49,14.91,-14.7,13.38,-56.32,99.16,0.33,15.09,-17.28,15.6,-57.92,93.86,18.36,9.42,1.12,0.1884,0.3469,-0.549,0.2141,0.7256,-0.9376,0.3823,-0.5695,0.4107,0.0095,0.729,-0.968,0.4457,-0.5986,0.4234,0.5245,0.6258,-0.7515,0.0,0.006,0.013,0.006,0.0,0.006,0.006,0.006,0.026,0.006,0.0,0.006,0.0,0.006,0.006,0.0,0.006,0.013,0.1104,-0.224,0.517,0.089,0.2485,-0.2531,0.2546,-1.0385,1.5278,0.0276,0.25,-0.2991,0.2715,-1.0262,1.4895,0.3237,0.1749,-0.0552,0.0295,0.2725,-0.2994,0.1604,0.0848,-0.117,-0.0463,0.15,0.3068,-0.1409,0.0615,-0.0639,0.022,0.0482,0.3103,0.0088,-0.0147,0.1884,-0.0011,-0.0036,0.0109,-0.0003,-0.0302,0.1862,0.3235,-0.5282,0.1969,0.7218,-0.9345,0.3924,-0.5827,0.411,0.0201,0.7282,-0.9655,0.4441,-0.5983,0.4231,0.5252,0.63,-0.7592,0.0,0.0,0.0,0.0,0.0,0.0,0.0,0.0,0.0,
2.64,run,-0.17,3.25,0.33,0.18,-0.69,0.0,0.0,0.0,0.156,6.42,-9.49,26.98,6.24,14.68,-14.5,13.8,-57.66,90.88,0.53,15.03,-17.23,15.47,-58.01,88.42,18.46,9.93,-0.88,6.67,-4.79,21.04,8.08,14.99,-14.61,13.11,-55.15,99.79,-0.03,15.11,-17.15,15.54,-57.39,95.36,18.2,9.04,2.23,0.1905,0.3674,-0.569,0.2309,0.7271,-0.9366,0.3747,-0.5481,0.4092,-0.0008,0.7292,-0.9665,0.444,-0.5888,0.424,0.52,0.6188,-0.7385,0.013,0.013,0.019,0.013,0.0,0.0,0.006,0.006,0.026,0.0,0.0,0.006,0.0,0.0,0.006,0.006,0.013,0.006,0.1104,-0.1994,0.4924,0.1012,0.2531,-0.2546,0.25,-1.0247,1.5539,0.0184,0.2516,-0.2991,0.27,-1.0262,1.514,0.3221,0.1718,-0.0383,0.0206,0.2823,-0.3012,0.1581,0.0765,-0.0876,-0.0496,0.1565,0.3121,-0.133,0.0488,-0.0447,0.0097,0.0338,0.3088,0.0004,-0.0218,0.1949,-0.002,-0.0053,-0.0071,-0.0023,0.0123,0.1884,0.3469,-0.549,0.2141,0.7256,-0.9376,0.3823,-0.5695,0.4107,0.0095,0.729,-0.968,0.4457,-0.5986,0.4234,0.5245,0.6258,-0.7515,0.0,0.0,0.0,0.0,0.0,0.0,0.0,0.0,0.0,
2.68,run,-0.18,3.25,-0.21,0.19,0.56,0.0,0.0,0.0,0.156,6.68,-8.09,25.58,6.94,14.85,-14.59,13.36,-56.69,92.2,0.18,15.03,-17.31,15.38,-57.83,89.74,18.19,9.76,0.09,6.7,-3.7,19.54,8.6,15.06,-14.62,12.79,-54.32,99.56,-0.31,15.03,-17.09,15.56,-57.28,96.86,18.09,8.69,2.76,0.1915,0.3873,-0.5876,0.2457,0.7284,-0.9367,0.3654,-0.5332,0.4066,-0.0089,0.7279,-0.9658,0.4444,-0.5869,0.4231,0.5169,0.6126,-0.7323,0.013,0.013,0.019,0.013,0.0,0.0,0.006,0.006,0.026,0.0,0.0,0.006,0.0,0.0,0.006,0.006,0.013,0.006,0.1104,-0.1764,0.4679,0.1135,0.2577,-0.2562,0.2454,-1.0078,1.5785,0.0092,0.2546,-0.3037,0.2715,-1.017,1.5401,0.3221,0.1687,-0.0199,0.0145,0.2839,-0.3029,0.1567,0.0708,-0.0671,-0.052,0.1729,0.3105,-0.1276,0.0457,-0.0486,0.0125,0.0582,0.314,0.0003,-0.0267,0.2054,-0.0006,-0.0055,0.0057,0.0031,-0.0121,0.1905,0.3674,-0.569,0.2309,0.7271,-0.9366,0.3747,-0.5481,0.4092,-0.0008,0.7293,-0.9665,0.444,-0.5888,0.424,0.52,0.6188,-0.7385,0.0,0.0,0.0,0.0,0.0,0.0,0.0,0.0,0.0,
2.72,run,-0.2,3.24,0.11,0.14,-0.78,0.0,0.0,0.0,0.156,6.77,-6.86,24.17,7.56,14.94,-14.59,13.18,-55.72,93.6,-0.18,15.03,-17.05,15.38,-57.48,91.23,18.11,9.49,1.05,6.71,-2.77,18.04,9.06,15.02,-14.44,12.5,-53.3,99.41,-0.5,14.84,-16.81,15.5,-56.9,98.36,17.93,8.23,3.56,0.1918,0.4042,-0.604,0.259,0.7276,-0.9346,0.3571,-0.5145,0.4048,-0.0143,0.7244,-0.9625,0.4428,-0.5799,0.4224,0.5122,0.6041,-0.7228,0.013,0.013,0.019,0.013,0.0,0.0,0.006,0.006,0.026,0.0,0.0,0.006,0.0,0.0,0.006,0.006,0.013,0.006,0.115,-0.1519,0.4433,0.1258,0.2608,-0.2577,0.2378,-0.991,1.6015,0.0031,0.2546,-0.3053,0.27,-1.014,1.5631,0.3175,0.1657,-0.0031,0.0274,0.2911,-0.3043,0.1558,0.0611,-0.0527,-0.0652,0.1845,0.3039,-0.1124,0.032,-0.0398,0.003,0.0522,0.3063,-0.0171,-0.0303,0.2073,-0.0019,-0.005,-0.0036,0.0033,0.0098,0.1915,0.3873,-0.5876,0.2457,0.7284,-0.9367,0.3654,-0.5332,0.4066,-0.0089,0.7279,-0.9658,0.4444,-0.5869,0.4231,0.5169,0.6126,-0.7323,0.0,0.0,0.0,0.0,0.0,0.0,0.0,0.0,0.0,
2.76,run,-0.21,3.26,-0.21,-0.02,0.35,0.0,0.0,0.0,0.156,6.77,-5.62,22.68,8.17,14.94,-14.5,12.83,-54.76,95.1,-0.53,15.03,-17.05,15.38,-57.04,92.72,18.02,9.14,1.93,6.69,-1.92,16.54,9.49,14.91,-14.38,12.21,-52.5,99.12,-0.69,14.62,-16.59,15.49,-56.78,99.86,17.74,7.76,3.95,0.1913,0.4197,-0.619,0.271,0.7256,-0.9339,0.3488,-0.5001,0.4014,-0.0197,0.7204,-0.9599,0.4426,-0.5779,0.4199,0.507,0.5956,-0.7182,0.0,0.006,0.013,0.013,0.0,0.006,0.006,0.006,0.019,0.006,0.006,0.013,0.0,0.0,0.006,0.006,0.019,0.006,0.1166,-0.1304,0.4188,0.1365,0.2623,-0.2577,0.2347,-0.9741,1.626,-0.0031,0.2546,-0.3007,0.27,-1.0078,1.5892,0.316,0.1611,0.0138,0.0249,0.2839,-0.3047,0.1492,0.0485,-0.0369,-0.0571,0.1921,0.3044,-0.1016,0.0224,-0.0106,0.0021,0.0595,0.3118,-0.0177,-0.0384,0.2081,-0.0036,-0.0062,0.0019,0.0025,-0.0137,0.1918,0.4042,-0.604,0.259,0.7276,-0.9346,0.3571,-0.5145,0.4048,-0.0143,0.7244,-0.9625,0.4428,-0.5799,0.4224,0.5122,0.6041,-0.7228,0.0,0.0,0.0,0.0,0.0,0.0,0.0,0.0,0.0,
2.8,run,-0.22,3.27,0.05,-0.09,0.27,0.0,0.0,0.0,0.156,6.77,-4.39,21.27,8.7,14.94,-14.41,12.57,-53.79,96.42,-0.62,14.94,-16.7,15.38,-56.87,94.04,17.58,8.79,2.72,6.67,-1.16,15.04,9.88,14.81,-14.28,11.96,-51.65,98.84,-0.85,14.38,-16.27,15.46,-56.58,100.51,17.54,7.26,4.44,0.1905,0.4335,-0.6334,0.2822,0.7237,-0.9327,0.3416,-0.4845,0.3981,-0.0243,0.7161,-0.9562,0.4418,-0.5743,0.4177,0.5011,0.5865,-0.7124,0.0,0.006,0.013,0.013,0.0,0.006,0.006,0.006,0.019,0.006,0.006,0.013,0.0,0.0,0.006,0.006,0.019,0.006,0.1166,-0.1089,0.3927,0.1473,0.2623,-0.2562,0.2286,-0.9572,1.6521,-0.0092,0.2546,-0.3007,0.27,-1.0002,1.6153,0.3145,0.1549,0.0291,0.0174,0.2793,-0.311,0.1447,0.034,-0.0201,-0.063,0.1978,0.3108,-0.0941,0.0157,-0.0075,0.0015,0.0704,0.316,-0.0181,-0.0499,0.2032,-0.005,-0.0049,-0.0036,-0.0003,0.0062,0.1913,0.4197,-0.619,0.271,0.7256,-0.9339,0.3488,-0.5001,0.4014,-0.0197,0.7204,-0.9599,0.4426,-0.5779,0.4199,0.507,0.5956,-0.7182,0.0,0.0,0.0,0.0,0.0,0.0,0.0,0.0,0.0,
2.84,run,-0.22,3.26,0.15,0.1,-0.54,0.0,0.0,0.0,0.156,6.77,-3.34,19.86,9.14,14.94,-14.33,12.3,-52.91,97.38,-0.79,14.94,-16.61,15.38,-56.78,95.54,17.58,8.35,3.43,6.62,-0.57,13.54,10.18,14.57,-14.17,11.7,-50.89,98.45,-0.92,14.02,-15.89,15.42,-56.46,100.24,17.32,6.69,4.73,0.1892,0.4442,-0.6449,0.291,0.7195,-0.9314,0.3343,-0.4707,0.3935,-0.0264,0.7094,-0.9516,0.4404,-0.572,0.4146,0.4948,0.5762,-0.7091,0.0,0.006,0.013,0.013,0.0,0.006,0.006,0.006,0.019,0.006,0.006,0.013,0.0,0.0,0.006,0.006,0.019,0.006,0.1166,-0.0874,0.3682,0.1565,0.2623,-0.2546,0.224,-0.9403,1.6751,-0.0107,0.2531,-0.2945,0.27,-0.9971,1.6383,0.3068,0.1488,0.043,0.0122,0.2766,-0.3105,0.1361,0.0238,-0.0083,-0.0615,0.2022,0.3045,-0.0717,0.0052,0.018,0.001,0.0609,0.3082,-0.0417,-0.0581,0.1944,-0.0051,-0.004,0.0008,-0.0015,0.0047,0.1905,0.4335,-0.6334,0.2822,0.7237,-0.9327,0.3416,-0.4845,0.3981,-0.0243,0.7161,-0.9562,0.4418,-0.5743,0.4177,0.5011,0.5865,-0.7124,0.0,0.0,0.0,0.0,0.0,0.0,0.0,0.0,0.0,
2.88,run,-0.21,3.24,-0.07,0.06,0.42,0.0,0.0,0.0,0.156,6.59,-2.29,18.46,9.49,14.94,-14.24,12.04,-52.03,98.17,-0.97,14.68,-16.08,15.38,-56.51,96.94,17.58,7.82,4.04,6.53,0.0,12.04,10.46,14.34,-14.17,11.48,-50.29,98.01,-0.99,13.69,-15.53,15.42,-56.43,99.9,17.1,6.13,4.9,0.1865,0.4545,-0.6554,0.2989,0.7152,-0.9314,0.328,-0.4599,0.3884,-0.0283,0.7034,-0.9474,0.4407,-0.5715,0.4106,0.4886,0.566,-0.7071,0.006,0.006,0.013,0.013,0.013,0.006,0.006,0.013,0.013,0.0,0.013,0.0,0.0,0.006,0.0,0.006,0.019,0.006,0.1166,-0.069,0.3436,0.1641,0.2623,-0.2531,0.2194,-0.925,1.692,-0.0138,0.2531,-0.293,0.27,-0.9956,1.6644,0.3068,0.1411,0.0552,0.0086,0.2623,-0.3088,0.1238,0.0166,-0.0001,-0.0602,0.1987,0.2761,-0.0616,0.0036,0.0183,0.0007,0.0483,0.3129,-0.0292,-0.0693,0.1818,-0.0053,-0.0045,0.0027,0.0018,-0.0094,0.1892,0.4442,-0.6449,0.291,0.7195,-0.9314,0.3343,-0.4707,0.3935,-0.0264,0.7094,-0.9516,0.4404,-0.572,0.4146,0.4948,0.5762,-0.7091,0.0,0.0,0.0,0.0,0.0,0.0,0.0,0.0,0.0,
2.92,run,-0.21,3.23,-0.18,-0.1,0.19,0.0,0.0,0.0,0.156,6.59,-1.41,17.05,9.93,14.94,-14.15,11.78,-51.15,98.61,-0.97,14.33,-15.82,15.38,-56.51,98.17,16.96,7.29,4.48,6.45,0.46,10.54,10.73,14.04,-14.0,11.29,-49.57,97.48,-1.06,13.35,-15.16,15.43,-56.29,99.55,16.85,5.52,5.07,0.1844,0.4628,-0.6663,0.3067,0.7099,-0.9294,0.3226,-0.4468,0.3822,-0.0304,0.6974,-0.943,0.4407,-0.5689,0.4064,0.4813,0.555,-0.7051,0.006,0.006,0.013,0.013,0.013,0.006,0.006,0.013,0.013,0.0,0.013,0.0,0.0,0.006,0.0,0.006,0.019,0.006,0.1135,-0.0506,0.3191,0.1703,0.2623,-0.2516,0.2148,-0.9097,1.7058,-0.0169,0.2485,-0.2838,0.27,-0.991,1.6889,0.3068,0.1319,0.066,-0.0056,0.2529,-0.3087,0.1098,0.0116,0.0057,-0.0595,0.1969,0.2453,-0.0547,-0.0148,0.0475,0.0005,0.0512,0.3115,-0.0204,-0.0832,0.1677,-0.0048,-0.0061,-0.0012,0.001,0.0074,0.1865,0.4545,-0.6554,0.2989,0.7152,-0.9314,0.328,-0.4599,0.3884,-0.0283,0.7034,-0.9474,0.4407,-0.5715,0.4106,0.4886,0.566,-0.7071,0.0,0.0,0.0,0.0,0.0,0.0,0.0,0.0,0.0,
2.96,run,-0.18,3.24,0.87,0.67,-0.68,0.0,0.0,0.0,0.156,6.42,-0.62,15.64,10.2,14.77,-14.15,11.6,-50.54,98.79,-0.97,14.06,-15.38,15.38,-56.51,99.14,16.96,6.77,4.75,6.36,0.84,9.04,10.9,13.7,-14.03,11.12,-48.97,97.0,-1.02,12.91,-14.72,15.41,-56.25,99.26,16.64,4.87,5.19,0.1816,0.4698,-0.6738,0.3115,0.7037,-0.9298,0.3177,-0.4358,0.3765,-0.0292,0.6893,-0.9379,0.4403,-0.5682,0.4031,0.4756,0.543,-0.7036,0.006,0.006,0.013,0.013,0.013,0.006,0.006,0.013,0.013,0.0,0.013,0.0,0.0,0.006,0.0,0.006,0.019,0.006,0.1135,-0.0353,0.2945,0.1779,0.2623,-0.25,0.2102,-0.8943,1.7135,-0.0169,0.2424,-0.2792,0.27,-0.991,1.7104,0.2961,0.1227,0.0736,-0.0039,0.2346,-0.3082,0.1056,0.0082,0.0098,-0.0589,0.1954,0.2005,-0.0383,-0.0334,0.0505,0.0004,0.0358,0.2987,-0.0546,-0.0927,0.1462,-0.0042,-0.007,-0.0032,-0.0018,0.0032,0.1844,0.4628,-0.6663,0.3067,0.7099,-0.9294,0.3226,-0.4468,0.3822,-0.0304,0.6974,-0.943,0.4407,-0.5689,0.4064,0.4813,0.555,-0.7051,0.0,0.0,0.0,0.0,0.0,0.0,0.0,0.0,0.0,
3.0,run,-0.22,3.21,-0.6,-0.32,-0.55,0.0,0.0,0.0,0.156,6.42,0.09,14.24,10.46,14.41,-14.15,11.25,-49.75,98.79,-0.97,13.71,-14.94,15.38,-56.34,99.76,16.7,6.24,5.01,6.23,1.05,7.54,11.02,13.36,-14.05,10.97,-48.56,96.35,-1.02,12.55,-14.39,15.43,-56.25,98.73,16.44,4.34,5.07,0.178,0.4737,-0.6796,0.3148,0.6974,-0.93,0.3134,-0.4283,0.3688,-0.0291,0.6827,-0.9339,0.4409,-0.5681,0.3968,0.4697,0.5335,-0.705,0.006,0.006,0.013,0.0,0.006,0.0,0.006,0.006,0.013,0.0,0.006,0.006,0.0,0.0,0.006,0.006,0.026,0.0,0.1104,-0.0215,0.27,0.1825,0.2592,-0.25,0.2071,-0.8836,1.7165,-0.0169,0.2378,-0.2715,0.27,-0.991,1.7273,0.2961,0.1135,0.0782,-0.0141,0.2155,-0.3069,0.091,-0.0057,0.0068,-0.0526,0.1767,0.1517,-0.0268,-0.0405,0.0639,0.0002,0.0251,0.2718,-0.0382,-0.0991,0.1194,-0.0017,-0.0062,0.0152,0.0117,-0.0119,0.1816,0.4698,-0.6738,0.3115,0.7037,-0.9298,0.3177,-0.4358,0.3765,-0.0292,0.6893,-0.9379,0.4403,-0.5682,0.4031,0.4756,0.543,-0.7036,0.0,0.0,0.0,0.0,0.0,0.0,0.0,0.0,0.0,
3.04,run,-0.22,3.22,-0.01,0.04,0.57,0.0,0.0,0.0,0.156,6.24,0.62,12.74,10.63,14.15,-14.15,11.25,-49.04,98.26,-0.97,13.27,-14.59,15.38,-56.43,100.02,16.35,5.54,5.01,6.14,1.32,6.82,11.17,13.05,-14.02,10.88,-48.06,96.07,-1.04,12.26,-14.07,15.46,-56.15,98.44,16.27,3.81,5.42,0.1754,0.4786,-0.6845,0.3191,0.6919,-0.9296,0.3108,-0.4193,0.3655,-0.0296,0.6774,-0.9302,0.4418,-0.5663,0.3934,0.4648,0.5237,-0.7009,0.006,0.006,0.013,0.0,0.006,0.0,0.006,0.006,0.013,0.0,0.006,0.006,0.0,0.0,0.006,0.006,0.026,0.0,0.1104,-0.0092,0.2454,0.1871,0.2531,-0.25,0.201,-0.8698,1.7165,-0.0169,0.2316,-0.2638,0.27,-0.9879,1.738,0.2915,0.1043,0.0828,-0.0099,0.1971,-0.3072,0.0811,-0.0271,0.0048,-0.0599,0.1756,0.1062,-0.0188,-0.0514,0.0736,0.0002,0.0291,0.2306,-0.0441,-0.104,0.1009,-0.0055,-0.0087,-0.0105,-0.0055,-0.0097,0.178,0.4737,-0.6796,0.3148,0.6974,-0.93,0.3134,-0.4283,0.3688,-0.0291,0.6827,-0.9339,0.4409,-0.5681,0.3968,0.4697,0.5335,-0.705,0.0,0.0,0.0,0.0,0.0,0.0,0.0,0.0,0.0,
3.08,run,-0.21,3.22,0.21,0.07,-0.26,0.0,0.0,0.0,0.156,6.24,0.97,11.34,10.63,13.8,-14.15,11.07,-48.6,97.65,-0.97,12.92,-14.41,15.38,-56.25,100.02,16.26,5.01,5.01,6.06,1.39,6.49,11.17,12.77,-14.04,10.78,-47.54,95.44,-0.97,12.0,-13.74,15.46,-55.98,98.04,16.1,3.32,5.51,0.1731,0.4798,-0.6884,0.319,0.6866,-0.9299,0.3079,-0.4098,0.3582,-0.0276,0.6727,-0.9264,0.4416,-0.5633,0.3887,0.46,0.515,-0.6999,0.006,0.006,0.013,0.0,0.006,0.0,0.006,0.006,0.013,0.0,0.006,0.006,0.0,0.0,0.006,0.006,0.026,0.0,0.1074,0.0,0.2194,0.1902,0.2485,-0.25,0.201,-0.8575,1.7073,-0.0169,0.224,-0.2577,0.27,-0.9894,1.7426,0.2853,0.092,0.0828,-0.0185,0.1726,-0.3134,0.0683,-0.0363,0.0034,-0.042,0.1692,0.0396,-0.0131,-0.0649,0.0746,0.0001,0.0146,0.1788,-0.054,-0.1191,0.0706,-0.0055,-0.0078,-0.0003,0.0007,0.0099,0.1754,0.4786,-0.6845,0.3191,0.6919,-0.9296,0.3108,-0.4193,0.3655,-0.0296,0.6774,-0.9302,0.4418,-0.5663,0.3934,0.4648,0.5237,-0.7009,0.0,0.0,0.0,0.0,0.0,0.0,0.0,0.0,0.0,
3.12,run,-0.24,3.22,-0.28,-0.07,0.1,0.0,0.0,0.0,0.156,6.15,1.23,9.93,10.72,13.54,-14.15,10.99,-47.99,97.12,-0.97,12.57,-13.89,15.38,-56.16,99.4,16.26,4.39,5.19,5.95,1.44,6.28,11.17,12.48,-14.08,10.74,-47.3,94.94,-0.93,11.8,-13.63,15.52,-55.9,97.72,16.02,2.96,5.5,0.1699,0.4807,-0.6908,0.3192,0.6814,-0.9303,0.3068,-0.4055,0.3522,-0.0265,0.6692,-0.925,0.4434,-0.5618,0.3849,0.4577,0.5084,-0.7,0.0,0.0,0.006,0.006,0.013,0.0,0.0,0.0,0.013,0.0,0.013,0.006,0.013,0.006,0.006,0.006,0.026,0.0,0.1074,0.0061,0.1948,0.1902,0.2424,-0.25,0.1979,-0.8498,1.6966,-0.0169,0.2178,-0.2546,0.27,-0.9863,1.7426,0.2838,0.0828,0.0828,-0.0129,0.1437,-0.3109,0.0478,-0.0483,0.0023,-0.0408,0.1471,-0.0123,-0.0092,-0.0683,0.0637,0.0001,0.0217,0.1252,-0.0435,-0.1177,0.0495,-0.0047,-0.0078,0.0037,0.0011,-0.0046,0.1731,0.4798,-0.6884,0.319,0.6866,-0.9299,0.3079,-0.4098,0.3582,-0.0276,0.6727,-0.9264,0.4416,-0.5633,0.3887,0.46,0.515,-0.6999,0.0,0.0,0.0,0.0,0.0,0.0,0.0,0.0,0.0,
3.16,run,-0.22,3.21,-0.22,-0.15,0.02,0.0,0.0,0.0,0.156,5.8,1.32,8.7,10.72,13.18,-14.15,10.9,-47.55,96.15,-0.97,12.3,-13.8,15.47,-56.16,98.44,16.0,3.96,5.36,5.89,1.39,6.18,11.16,12.22,-13.95,10.66,-47.0,94.38,-0.93,11.67,-13.46,15.53,-55.72,97.19,15.9,2.66,5.62,0.1683,0.4798,-0.692,0.319,0.6767,-0.9288,0.3045,-0.4001,0.3457,-0.0267,0.6667,-0.923,0.4436,-0.5585,0.3787,0.4543,0.5029,-0.6986,0.0,0.0,0.006,0.006,0.013,0.0,0.0,0.0,0.013,0.0,0.013,0.006,0.013,0.006,0.006,0.006,0.026,0.0,0.1058,0.0107,0.1703,0.1917,0.2378,-0.25,0.1963,-0.8391,1.6874,-0.0169,0.2117,-0.2454,0.27,-0.9848,1.7319,0.2838,0.0721,0.0859,-0.0148,0.1179,-0.3096,0.0392,-0.0511,0.0016,-0.0343,0.1432,-0.0431,-0.0064,-0.0708,0.0791,0.0001,0.0209,0.0474,-0.0305,-0.1226,0.0461,-0.0076,-0.0081,-0.0049,-0.0013,0.0018,0.1699,0.4807,-0.6908,0.3192,0.6814,-0.9303,0.3068,-0.4055,0.3522,-0.0265,0.6692,-0.925,0.4434,-0.5618,0.3849,0.4577,0.5084,-0.7,0.0,0.0,0.0,0.0,0.0,0.0,0.0,0.0,0.0,
3.2,run,-0.2,3.21,0.31,0.39,-0.34,0.0,0.0,0.0,0.156,5.8,1.32,7.65,10.72,12.92,-14.15,10.9,-47.2,95.62,-0.97,12.13,-13.54,15.38,-55.9,97.91,16.0,3.6,5.54,5.84,1.28,6.24,11.09,12.03,-13.82,10.64,-46.82,93.82,-0.9,11.6,-13.29,15.53,-55.54,96.72,15.85,2.54,5.69,0.1668,0.4778,-0.6913,0.3169,0.6733,-0.9273,0.304,-0.3968,0.3391,-0.0258,0.6655,-0.921,0.4438,-0.5554,0.3732,0.453,0.5006,-0.6977,0.0,0.0,0.006,0.006,0.013,0.0,0.0,0.0,0.013,0.0,0.013,0.006,0.013,0.006,0.006,0.006,0.026,0.0,0.0997,0.0123,0.1488,0.1917,0.2316,-0.25,0.1948,-0.8314,1.6705,-0.0169,0.2071,-0.2439,0.2715,-0.9848,1.715,0.2792,0.0644,0.089,-0.0335,0.0883,-0.2977,0.0275,-0.0589,0.0011,-0.0298,0.1291,-0.0938,-0.0045,-0.0669,0.0611,0.0058,0.0146,-0.0304,-0.0387,-0.1147,0.0438,-0.0053,-0.0086,-0.0039,-0.0026,0.0003,0.1683,0.4798,-0.692,0.319,0.6767,-0.9288,0.3045,-0.4001,0.3457,-0.0267,0.6667,-0.923,0.4436,-0.5585,0.3787,0.4543,0.5029,-0.6986,0.0,0.0,0.0,0.0,0.0,0.0,0.0,0.0,0.0,
3.24,run,-0.22,3.21,-0.2,0.04,-0.13,0.0,0.0,0.0,0.156,5.71,1.32,6.94,10.72,12.57,-13.97,10.81,-46.93,95.01,-0.97,12.04,-13.45,15.38,-55.63,97.21,15.82,3.25,5.54,5.77,1.15,6.15,11.06,11.83,-13.62,10.59,-46.72,93.34,-0.87,11.48,-13.23,15.55,-55.42,96.3,15.78,2.34,5.5,0.165,0.4755,-0.6924,0.316,0.6697,-0.9249,0.3027,-0.395,0.3334,-0.0248,0.6632,-0.9204,0.4442,-0.5531,0.3683,0.4508,0.497,-0.7,0.0,0.006,0.0,0.0,0.013,0.0,0.0,0.006,0.013,0.0,0.006,0.0,0.0,0.006,0.006,0.0,0.013,0.0,0.0997,0.0123,0.1304,0.1917,0.227,-0.25,0.1948,-0.8253,1.6613,-0.0169,0.204,-0.2393,0.27,-0.9802,1.7058,0.2792,0.0583,0.092,-0.0234,0.0618,-0.2771,0.0192,-0.0584,0.0008,-0.0209,0.1133,-0.1,-0.0032,-0.0583,0.06,-0.0016,0.0274,-0.0556,-0.0271,-0.1032,0.0421,-0.0037,-0.0093,0.0053,0.0067,-0.006,0.1668,0.4778,-0.6913,0.3169,0.6733,-0.9273,0.304,-0.3968,0.3391,-0.0258,0.6655,-0.921,0.4438,-0.5554,0.3732,0.453,0.5006,-0.6977,0.0,0.0,0.0,0.0,0.0,0.0,0.0,0.0,0.0,
3.28,run,-0.22,3.19,0.13,-0.13,-0.14,0.0,0.0,0.0,0.156,5.71,1.32,6.5,10.72,12.39,-13.71,10.81,-46.93,94.48,-0.97,12.04,-13.36,15.47,-55.63,96.59,15.82,2.99,5.54,5.73,1.04,6.21,11.01,11.71,-13.6,10.6,-46.66,93.05,-0.85,11.45,-13.2,15.57,-55.31,96.0,15.77,2.24,5.61,0.1637,0.4734,-0.6917,0.3145,0.6674,-0.9247,0.3028,-0.3939,0.33,-0.0242,0.6628,-0.92,0.4449,-0.551,0.3647,0.4505,0.4953,-0.6987,0.0,0.006,0.0,0.0,0.013,0.0,0.0,0.006,0.013,0.0,0.006,0.0,0.0,0.006,0.006,0.0,0.013,0.0,0.0982,0.0123,0.1181,0.1917,0.2209,-0.247,0.1933,-0.8207,1.6506,-0.0169,0.2025,-0.2378,0.27,-0.9756,1.6935,0.2761,0.0522,0.092,-0.0222,0.0433,-0.24,0.0135,-0.0639,0.0121,-0.0204,0.0966,-0.1103,-0.0022,-0.0466,0.0477,-0.0012,0.0365,-0.085,-0.0305,-0.0953,0.0295,-0.0057,-0.0092,-0.0035,0.0007,-0.0022,0.165,0.4755,-0.6924,0.316,0.6697,-0.9249,0.3027,-0.395,0.3334,-0.0248,0.6632,-0.9204,0.4442,-0.5531,0.3683,0.4508,0.497,-0.7,0.0,0.0,0.0,0.0,0.0,0.0,0.0,0.0,0.0,
3.32,run,-0.21,3.2,-0.06,0.07,0.22,0.0,0.0,0.0,0.156,5.71,1.32,6.42,10.72,12.3,-13.71,10.81,-46.67,93.96,-0.97,12.04,-13.36,15.38,-55.55,96.24,15.82,2.99,5.54,5.69,0.92,6.19,10.97,11.58,-13.57,10.59,-46.67,92.62,-0.85,11.45,-13.24,15.59,-55.19,95.65,15.78,2.19,5.58,0.1627,0.4713,-0.6918,0.3135,0.6651,-0.9244,0.3025,-0.394,0.325,-0.0243,0.6627,-0.9205,0.4455,-0.5489,0.3606,0.4508,0.4944,-0.699,0.0,0.006,0.0,0.0,0.013,0.0,0.0,0.006,0.013,0.0,0.006,0.0,0.0,0.006,0.006,0.0,0.013,0.0,0.0982,0.0123,0.1104,0.1917,0.2178,-0.2424,0.1933,-0.8207,1.6414,-0.0169,0.2025,-0.2362,0.2715,-0.9756,1.6828,0.2761,0.0476,0.092,-0.0155,0.0303,-0.1968,0.0094,-0.0562,0.0257,-0.0143,0.0676,-0.1118,-0.0015,-0.0326,0.0392,0.005,0.0255,-0.0998,-0.0213,-0.084,0.0206,-0.0051,-0.0102,0.0023,-0.0023,-0.0025,0.1637,0.4734,-0.6917,0.3145,0.6674,-0.9247,0.3028,-0.3939,0.33,-0.0242,0.6628,-0.92,0.4449,-0.551,0.3647,0.4505,0.4953,-0.6987,0.0,0.0,0.0,0.0,0.0,0.0,0.0,0.0,0.0,
3.36,run,-0.23,3.18,-0.25,-0.21,-0.42,0.0,0.0,0.0,0.156,5.71,1.32,6.42,10.72,12.22,-13.54,10.81,-46.76,93.52,-0.97,12.04,-13.36,15.47,-55.28,95.8,15.82,2.99,5.54,5.69,0.89,6.16,10.97,11.5,-13.36,10.55,-46.66,92.45,-0.85,11.38,-13.15,15.58,-55.11,95.43,15.73,2.13,5.54,0.1626,0.4708,-0.6922,0.3136,0.6636,-0.9219,0.3016,-0.3938,0.323,-0.0244,0.6615,-0.9194,0.4451,-0.5474,0.3579,0.4495,0.4933,-0.6995,0.0,0.013,0.0,0.0,0.019,0.006,0.006,0.0,0.013,0.0,0.019,0.006,0.006,0.0,0.0,0.0,0.019,0.0,0.0982,0.0123,0.1089,0.1917,0.2163,-0.2424,0.1933,-0.8161,1.6322,-0.0169,0.2025,-0.2362,0.27,-0.9741,1.6766,0.2761,0.0476,0.092,-0.0109,0.0212,-0.1436,0.0066,-0.0452,0.018,-0.01,0.0648,-0.1132,-0.0011,-0.0228,0.0274,-0.0024,0.0237,-0.0932,-0.0149,-0.0588,0.0145,-0.0047,-0.0094,-0.0011,0.0011,0.0039,0.1627,0.4713,-0.6918,0.3135,0.6651,-0.9244,0.3025,-0.394,0.325,-0.0243,0.6627,-0.9205,0.4455,-0.5489,0.3606,0.4508,0.4944,-0.699,0.0,0.0,0.0,0.0,0.0,0.0,0.0,0.0,0.0,
3.4,run,-0.21,3.19,0.18,0.25,0.33,0.0,0.0,0.0,0.156,5.71,1.32,6.42,10.72,12.22,-13.45,10.81,-46.76,93.08,-0.97,12.04,-13.27,15.38,-55.28,95.54,15.82,2.81,5.54,5.67,0.85,6.17,10.97,11.44,-13.32,10.57,-46.73,92.27,-0.88,11.41,-13.21,15.61,-55.08,95.25,15.76,2.16,5.52,0.1619,0.4699,-0.6921,0.3134,0.6625,-0.9214,0.3019,-0.3951,0.3208,-0.0252,0.662,-0.9201,0.4461,-0.5469,0.3558,0.4504,0.4937,-0.6998,0.0,0.013,0.0,0.0,0.019,0.006,0.006,0.0,0.013,0.0,0.019,0.006,0.006,0.0,0.0,0.0,0.019,0.0,0.0982,0.0123,0.1089,0.1917,0.2148,-0.2393,0.1933,-0.8176,1.6245,-0.0169,0.2025,-0.2362,0.2715,-0.9695,1.669,0.2761,0.0476,0.092,-0.0076,0.0148,-0.1005,0.0046,-0.0373,0.024,-0.007,0.0397,-0.1076,-0.0008,-0.016,0.0192,0.004,0.0336,-0.0936,-0.0104,-0.0411,0.0101,-0.0063,-0.0113,-0.0044,-0.0037,-0.0074,0.1626,0.4708,-0.6922,0.3136,0.6636,-0.9219,0.3016,-0.3938,0.323,-0.0244,0.6615,-0.9194,0.4451,-0.5474,0.3579,0.4495,0.4933,-0.6995,0.0,0.0,0.0,0.0,0.0,0.0,0.0,0.0,0.0,
3.44,run,-0.23,3.17,-0.28,-0.28,-0.29,0.0,0.0,0.0,0.156,5.71,1.32,6.42,10.72,12.22,-13.45,10.81,-46.76,92.9,-0.97,11.95,-13.36,15.47,-55.28,95.54,15.82,2.81,5.54,5.66,0.71,6.17,10.92,11.39,-13.25,10.56,-46.71,92.06,-0.84,11.37,-13.2,15.59,-54.99,95.04,15.75,2.13,5.44,0.1617,0.4674,-0.6921,0.3121,0.6616,-0.9206,0.3017,-0.3947,0.3183,-0.024,0.6612,-0.92,0.4455,-0.5453,0.3534,0.4499,0.4933,-0.7007,0.0,0.013,0.0,0.0,0.019,0.006,0.006,0.0,0.013,0.0,0.019,0.006,0.006,0.0,0.0,0.0,0.019,0.0,0.0982,0.0123,0.1089,0.1917,0.2148,-0.2378,0.1933,-0.8176,1.6168,-0.0169,0.2025,-0.2347,0.27,-0.9695,1.6644,0.2761,0.0445,0.092,-0.0053,0.0104,-0.0704,0.0032,-0.0261,0.0226,-0.0049,0.0278,-0.1043,-0.0005,-0.0112,0.0192,-0.003,0.0235,-0.0829,-0.0073,-0.0404,0.0071,-0.0047,-0.0104,0.0032,0.0043,0.0058,0.1619,0.4699,-0.6921,0.3134,0.6625,-0.9214,0.3019,-0.3951,0.3208,-0.0252,0.662,-0.9201,0.4461,-0.5469,0.3558,0.4504,0.4937,-0.6998,0.0,0.0,0.0,0.0,0.0,0.0,0.0,0.0,0.0,
3.48,run,-0.25,3.16,-0.43,-0.16,0.16,0.0,0.0,0.0,0.156,5.71,1.32,6.42,10.72,11.95,-13.36,10.81,-46.76,92.81,-0.97,11.95,-13.18,15.38,-55.11,95.01,15.82,2.81,5.54,5.67,0.8,6.13,10.95,11.39,-13.35,10.57,-46.76,92.05,-0.87,11.39,-13.24,15.59,-55.06,94.94,15.75,2.13,5.49,0.1621,0.469,-0.6926,0.3129,0.6617,-0.9218,0.3019,-0.3957,0.3183,-0.0248,0.6616,-0.9205,0.4454,-0.5466,0.3522,0.4501,0.4933,-0.7001,0.0,0.006,0.006,0.006,0.006,0.0,0.006,0.0,0.013,0.0,0.006,0.0,0.006,0.0,0.013,0.0,0.019,0.0,0.0982,0.0123,0.1089,0.1917,0.2148,-0.2378,0.1933,-0.8176,1.6137,-0.0169,0.201,-0.2362,0.2715,-0.9695,1.6644,0.2761,0.0445,0.092,-0.0037,0.0073,-0.0492,0.0023,-0.0183,0.0158,-0.0034,0.0194,-0.0845,-0.0004,-0.0136,0.0077,0.0037,0.0165,-0.0581,-0.0051,-0.0283,0.005,-0.0066,-0.0122,-0.0049,-0.0049,-0.005,0.1617,0.4674,-0.6921,0.3121,0.6616,-0.9206,0.3017,-0.3947,0.3183,-0.024,0.6612,-0.92,0.4455,-0.5453,0.3534,0.4499,0.4933,-0.7007,0.0,0.0,0.0,0.0,0.0,0.0,0.0,0.0,0.0,
3.52,run,-0.25,3.15,0.06,0.02,0.07,0.0,0.0,0.0,0.156,5.71,1.32,6.42,10.72,11.95,-13.36,10.81,-46.76,92.55,-0.97,11.95,-13.18,15.38,-55.2,95.1,15.82,2.81,5.54,5.68,0.68,6.23,10.94,11.4,-13.21,10.57,-46.74,92.05,-0.88,11.42,-13.21,15.56,-54.96,94.77,15.74,2.2,5.58,0.1624,0.467,-0.6914,0.3124,0.6617,-0.9201,0.3019,-0.3953,0.3182,-0.0252,0.6622,-0.9201,0.4446,-0.5447,0.3502,0.4498,0.4945,-0.6991,0.0,0.006,0.006,0.006,0.006,0.0,0.006,0.0,0.013,0.0,0.006,0.0,0.006,0.0,0.013,0.0,0.019,0.0,0.0982,0.0123,0.1089,0.1917,0.2102,-0.2362,0.1933,-0.8176,1.6122,-0.0169,0.201,-0.2332,0.27,-0.9664,1.6552,0.2761,0.0445,0.092,-0.0026,0.0051,-0.0345,0.0016,-0.03,0.0168,-0.0024,0.0136,-0.0649,-0.0003,-0.0095,0.0168,-0.0031,0.023,-0.075,-0.0036,-0.0198,0.0035,-0.0084,-0.013,-0.0076,-0.0029,0.0027,0.1621,0.469,-0.6926,0.3129,0.6617,-0.9218,0.3019,-0.3957,0.3183,-0.0248,0.6616,-0.9205,0.4454,-0.5466,0.3522,0.4501,0.4933,-0.7001,0.0,0.0,0.0,0.0,0.0,0.0,0.0,0.0,0.0,
3.56,run,-0.25,3.15,-0.01,0.02,0.2,0.0,0.0,0.0,0.156,5.71,1.32,6.42,10.72,11.95,-13.36,10.81,-46.76,92.55,-0.97,11.95,-13.18,15.47,-55.11,94.83,15.82,2.81,5.54,5.68,0.68,6.19,10.93,11.39,-13.21,10.56,-46.76,91.97,-0.86,11.39,-13.22,15.54,-54.98,94.67,15.73,2.17,5.48,0.1624,0.4669,-0.6919,0.3123,0.6617,-0.9201,0.3016,-0.3956,0.3172,-0.0246,0.6616,-0.9203,0.4439,-0.5452,0.3491,0.4494,0.494,-0.7003,0.0,0.006,0.006,0.006,0.006,0.0,0.006,0.0,0.013,0.0,0.006,0.0,0.006,0.0,0.013,0.0,0.019,0.0,0.0982,0.0123,0.1089,0.1917,0.2102,-0.2362,0.1933,-0.8176,1.6076,-0.0169,0.201,-0.2332,0.27,-0.9679,1.6567,0.2761,0.0445,0.092,-0.0018,0.0036,-0.0241,0.0011,-0.021,0.0117,-0.0017,0.0095,-0.0628,-0.0002,-0.0067,0.0118,-0.0022,0.0103,-0.0467,-0.0025,-0.0139,0.0024,-0.0084,-0.0139,0.0011,0.0003,0.0012,0.1624,0.467,-0.6914,0.3124,0.6617,-0.9201,0.3019,-0.3953,0.3182,-0.0252,0.6622,-0.9201,0.4446,-0.5447,0.3502,0.4498,0.4945,-0.6991,0.0,0.0,0.0,0.0,0.0,0.0,0.0,0.0,0.0,
3.6,run,-0.23,3.16,0.35,0.25,0.19,0.0,0.0,0.0,0.156,5.71,1.32,6.42,10.72,11.95,-13.27,10.81,-46.76,92.55,-0.97,11.95,-13.18,15.38,-55.2,94.66,15.82,2.81,5.54,5.7,0.65,6.22,10.92,11.4,-13.2,10.55,-46.78,91.92,-0.88,11.41,-13.25,15.52,-54.99,94.6,15.73,2.21,5.48,0.1628,0.4663,-0.6915,0.3121,0.6618,-0.92,0.3015,-0.396,0.3167,-0.025,0.6619,-0.9206,0.4435,-0.5452,0.3483,0.4495,0.4947,-0.7002,0.0,0.019,0.0,0.006,0.013,0.006,0.006,0.0,0.013,0.0,0.013,0.0,0.006,0.006,0.013,0.0,0.013,0.0,0.0982,0.0123,0.1089,0.1917,0.2102,-0.2362,0.1933,-0.8176,1.6076,-0.0169,0.201,-0.2332,0.2715,-0.9664,1.6521,0.2761,0.0445,0.092,-0.0013,0.0025,-0.0169,0.0008,-0.0147,0.0082,-0.0012,0.0067,-0.044,-0.0001,-0.0047,0.0082,0.0042,0.0129,-0.0498,-0.0018,-0.0097,0.0017,-0.0084,-0.014,-0.0003,0.0003,0.0035,0.1624,0.4669,-0.6919,0.3123,0.6617,-0.9201,0.3016,-0.3956,0.3172,-0.0246,0.6616,-0.9203,0.4439,-0.5452,0.3491,0.4494,0.494,-0.7003,0.0,0.0,0.0,0.0,0.0,0.0,0.0,0.0,0.0,
3.64,run,-0.23,3.16,0.06,0.05,-0.27,0.0,0.0,0.0,0.156,5.71,1.23,6.42,10.72,11.95,-13.36,10.81,-46.76,92.55,-0.97,11.95,-13.18,15.47,-55.2,94.75,15.82,2.81,5.54,5.7,0.58,6.26,10.91,11.37,-13.18,10.55,-46.81,91.8,-0.87,11.38,-13.23,15.5,-54.97,94.5,15.73,2.22,5.44,0.1628,0.4652,-0.6911,0.3116,0.6613,-0.9198,0.3013,-0.3965,0.3153,-0.0247,0.6615,-0.9203,0.4429,-0.5449,0.347,0.4496,0.4949,-0.7007,0.0,0.019,0.0,0.006,0.013,0.006,0.006,0.0,0.013,0.0,0.013,0.0,0.006,0.006,0.013,0.0,0.013,0.0,0.0982,0.0123,0.1089,0.1917,0.2102,-0.2347,0.1933,-0.8176,1.6076,-0.0169,0.201,-0.2332,0.27,-0.9679,1.649,0.2761,0.0445,0.092,-0.0009,0.0017,-0.0118,0.0005,-0.0103,0.0115,-0.0008,0.0047,-0.0308,-0.0001,-0.0033,0.0058,-0.0028,0.0033,-0.0464,-0.0012,-0.0068,0.0012,-0.0063,-0.0132,0.0061,0.0043,0.0032,0.1628,0.4663,-0.6915,0.3121,0.6618,-0.92,0.3015,-0.396,0.3167,-0.025,0.6619,-0.9206,0.4435,-0.5452,0.3483,0.4495,0.4947,-0.7002,0.0,0.0,0.0,0.0,0.0,0.0,0.0,0.0,0.0,
3.68,run,-0.24,3.15,-0.14,0.07,0.23,0.0,0.0,0.0,0.156,5.71,1.14,6.42,10.72,11.95,-13.18,10.72,-46.76,92.46,-0.97,11.95,-13.18,15.38,-55.02,94.57,15.82,2.81,5.54,5.71,0.64,6.25,10.92,11.4,-13.27,10.56,-46.86,91.88,-0.88,11.4,-13.28,15.5,-55.04,94.5,15.74,2.23,5.43,0.163,0.4662,-0.6912,0.312,0.6618,-0.9208,0.3016,-0.3975,0.3162,-0.0252,0.6619,-0.921,0.443,-0.5463,0.347,0.4497,0.4952,-0.7008,0.0,0.019,0.0,0.006,0.013,0.006,0.006,0.0,0.013,0.0,0.013,0.0,0.006,0.006,0.013,0.0,0.013,0.0,0.0982,0.0107,0.1089,0.1917,0.2102,-0.2362,0.1933,-0.8176,1.6076,-0.0169,0.201,-0.2332,0.2715,-0.9679,1.6506,0.2761,0.0445,0.092,-0.0006,-0.0046,-0.0083,0.0004,-0.0072,0.0023,-0.0006,0.0033,-0.0215,-0.0001,-0.0023,0.004,0.0038,0.0023,-0.0267,-0.0009,-0.0048,0.0008,-0.0063,-0.0135,0.0011,0.0009,-0.0048,0.1628,0.4652,-0.6911,0.3116,0.6613,-0.9198,0.3013,-0.3965,0.3153,-0.0247,0.6615,-0.9203,0.4429,-0.5449,0.347,0.4496,0.4949,-0.7007,0.0,0.0,0.0,0.0,0.0,0.0,0.0,0.0,0.0,
3.72,run,-0.24,3.15,-0.05,0.07,-0.12,0.0,0.0,0.0,0.156,5.71,1.14,6.42,10.72,11.87,-13.18,10.72,-46.76,92.37,-0.97,11.95,-13.18,15.38,-55.02,94.57,15.82,2.81,5.54,5.7,0.55,6.28,10.91,11.4,-13.18,10.57,-46.85,91.87,-0.87,11.41,-13.27,15.51,-54.99,94.53,15.74,2.23,5.43,0.1628,0.4646,-0.6908,0.3117,0.6618,-0.9198,0.3021,-0.3972,0.3161,-0.0248,0.6621,-0.9208,0.4433,-0.5453,0.3474,0.4497,0.4951,-0.7008,0.0,0.019,0.0,0.006,0.006,0.0,0.0,0.0,0.006,0.0,0.013,0.0,0.006,0.0,0.0,0.0,0.013,0.0,0.0982,0.0092,0.1089,0.1917,0.2102,-0.2332,0.1917,-0.8176,1.6061,-0.0169,0.201,-0.2332,0.27,-0.9649,1.6475,0.2761,0.0445,0.092,-0.0004,-0.0089,-0.0058,0.0003,-0.005,0.013,-0.0061,0.0023,-0.0208,-0.0,-0.0016,0.0028,-0.003,0.013,-0.0301,-0.0006,-0.0033,0.0006,-0.0074,-0.0144,-0.0024,0.0011,0.004,0.163,0.4662,-0.6912,0.312,0.6618,-0.9208,0.3016,-0.3975,0.3162,-0.0252,0.6619,-0.921,0.443,-0.5463,0.347,0.4497,0.4952,-0.7008,0.0,0.0,0.0,0.0,0.0,0.0,0.0,0.0,0.0,
3.76,run,-0.25,3.15,-0.08,0.05,0.25,0.0,0.0,0.0,0.156,5.71,1.14,6.42,10.72,11.87,-13.18,10.72,-46.76,92.37,-0.97,11.95,-13.18,15.38,-54.93,94.48,15.82,2.81,5.54,5.7,0.56,6.31,10.9,11.4,-13.22,10.58,-46.88,91.89,-0.86,11.42,-13.28,15.51,-55.01,94.48,15.75,2.26,5.43,0.1628,0.4647,-0.6905,0.3114,0.6619,-0.9202,0.3021,-0.3978,0.3163,-0.0247,0.6621,-0.9209,0.4432,-0.5457,0.3469,0.45,0.4956,-0.7008,0.0,0.019,0.0,0.006,0.006,0.0,0.0,0.0,0.006,0.0,0.013,0.0,0.006,0.0,0.0,0.0,0.013,0.0,0.0982,0.0092,0.1089,0.1917,0.2086,-0.2332,0.1917,-0.8176,1.6045,-0.0169,0.201,-0.2332,0.27,-0.9649,1.6475,0.2761,0.0445,0.092,-0.0003,-0.0062,-0.0041,0.0002,-0.0093,0.0091,-0.0043,0.0016,-0.0203,-0.0,-0.0011,0.002,-0.0021,0.0091,-0.021,-0.0004,-0.0023,0.0004,-0.0071,-0.014,-0.0009,0.0011,-0.0021,0.1628,0.4646,-0.6908,0.3117,0.6618,-0.9198,0.3021,-0.3972,0.3161,-0.0248,0.6621,-0.9208,0.4433,-0.5453,0.3474,0.4497,0.4951,-0.7008,0.0,0.0,0.0,0.0,0.0,0.0,0.0,0.0,0.0,
3.8,run,-0.25,3.15,-0.04,-0.03,0.01,0.0,0.0,0.0,0.156,5.71,1.14,6.42,10.72,11.87,-13.18,10.72,-46.76,92.37,-0.97,11.95,-13.18,15.38,-54.93,94.48,15.82,2.81,5.54,5.71,0.53,6.31,10.9,11.42,-13.19,10.57,-46.87,91.9,-0.86,11.43,-13.28,15.5,-55.0,94.49,15.74,2.27,5.45,0.1631,0.4643,-0.6904,0.3113,0.6623,-0.9199,0.3021,-0.3976,0.3165,-0.0247,0.6623,-0.9209,0.4429,-0.5455,0.3469,0.4497,0.4958,-0.7006,0.0,0.019,0.0,0.006,0.006,0.0,0.0,0.0,0.006,0.0,0.013,0.0,0.006,0.0,0.0,0.0,0.013,0.0,0.0982,0.0092,0.1089,0.1917,0.2086,-0.2332,0.1917,-0.8176,1.6045,-0.0169,0.201,-0.2332,0.27,-0.9633,1.646,0.2761,0.0445,0.092,-0.0002,-0.0044,-0.0028,0.0001,-0.0065,0.0063,-0.003,0.0011,-0.0142,-0.0,-0.0008,0.0014,-0.0015,0.0121,-0.0205,-0.0003,-0.0016,0.0003,-0.008,-0.0141,-0.0013,0.0009,0.0044,0.1628,0.4647,-0.6905,0.3114,0.6619,-0.9202,0.3021,-0.3978,0.3163,-0.0247,0.6621,-0.9209,0.4432,-0.5457,0.3469,0.45,0.4956,-0.7008,0.0,0.0,0.0,0.0,0.0,0.0,0.0,0.0,0.0,
3.84,run,-0.25,3.15,-0.08,-0.03,0.25,0.0,0.0,0.0,0.156,5.71,1.14,6.42,10.72,11.87,-13.18,10.72,-46.76,92.37,-0.97,11.95,-13.18,15.38,-54.93,94.48,15.82,2.81,5.54,5.71,0.54,6.31,10.89,11.43,-13.21,10.57,-46.89,91.89,-0.87,11.43,-13.29,15.5,-55.02,94.47,15.75,2.28,5.44,0.1632,0.4644,-0.6905,0.3113,0.6623,-0.9201,0.3021,-0.398,0.3164,-0.0248,0.6624,-0.9211,0.4428,-0.5458,0.3466,0.4499,0.4959,-0.7007,0.0,0.013,0.0,0.0,0.006,0.0,0.006,0.006,0.013,0.0,0.013,0.0,0.0,0.0,0.0,0.0,0.006,0.0,0.0982,0.0092,0.1089,0.1917,0.2086,-0.2332,0.1917,-0.8176,1.6045,-0.0169,0.201,-0.2332,0.27,-0.9633,1.646,0.2761,0.0445,0.092,-0.0002,-0.0031,-0.002,0.0001,-0.0045,0.0044,-0.0021,0.0008,-0.0099,-0.0,-0.0005,0.001,-0.001,0.0085,-0.0143,-0.0002,-0.0011,0.0002,-0.0077,-0.0142,-0.0007,-0.0005,0.0002,0.1631,0.4643,-0.6904,0.3113,0.6623,-0.9199,0.3021,-0.3976,0.3165,-0.0247,0.6623,-0.9209,0.4429,-0.5455,0.3469,0.4497,0.4958,-0.7006,0.0,0.0,0.0,0.0,0.0,0.0,0.0,0.0,0.0,
3.88,run,-0.24,3.15,0.05,0.04,0.17,0.0,0.0,0.0,0.156,5.71,1.14,6.42,10.72,11.87,-13.18,10.72,-47.02,92.37,-0.97,11.95,-13.18,15.38,-54.93,94.48,15.82,2.81,5.54,5.72,0.54,6.3,10.9,11.43,-13.2,10.57,-46.88,91.89,-0.87,11.43,-13.29,15.49,-55.01,94.46,15.74,2.27,5.46,0.1633,0.4643,-0.6906,0.3114,0.6624,-0.92,0.302,-0.3978,0.3164,-0.0248,0.6623,-0.921,0.4426,-0.5456,0.3465,0.4497,0.4958,-0.7005,0.0,0.013,0.0,0.0,0.006,0.0,0.006,0.006,0.013,0.0,0.013,0.0,0.0,0.0,0.0,0.0,0.006,0.0,0.0982,0.0092,0.1089,0.1917,0.2086,-0.2332,0.1917,-0.8176,1.6045,-0.0169,0.201,-0.2332,0.27,-0.9633,1.646,0.2761,0.0445,0.092,-0.0001,-0.0021,-0.0014,0.0001,-0.0032,0.0031,-0.0015,0.0005,-0.007,-0.0,-0.0004,0.0007,-0.0007,0.0059,-0.01,-0.0001,-0.0008,0.0001,-0.0078,-0.0142,-0.0015,-0.0005,0.0043,0.1632,0.4644,-0.6905,0.3113,0.6623,-0.9201,0.3021,-0.398,0.3164,-0.0248,0.6624,-0.9211,0.4428,-0.5458,0.3466,0.4499,0.4959,-0.7007,0.0,0.0,0.0,0.0,0.0,0.0,0.0,0.0,0.0,
3.92,run,-0.24,3.15,-0.04,-0.02,0.06,0.0,0.0,0.0,0.156,5.71,1.14,6.42,10.72,11.87,-13.18,10.72,-47.02,92.37,-0.97,11.95,-13.18,15.38,-54.93,94.48,15.82,2.81,5.54,5.7,0.51,6.31,10.89,11.44,-13.25,10.6,-46.9,91.88,-0.87,11.45,-13.34,15.5,-55.0,94.44,15.76,2.3,5.43,0.1629,0.4639,-0.6905,0.3112,0.6625,-0.9206,0.3027,-0.3982,0.3163,-0.0249,0.6627,-0.9216,0.4429,-0.5454,0.3463,0.4503,0.4964,-0.7008,0.0,0.013,0.0,0.0,0.006,0.0,0.006,0.006,0.013,0.0,0.013,0.0,0.0,0.0,0.0,0.0,0.006,0.0,0.0982,0.0092,0.1089,0.1917,0.2086,-0.2332,0.1917,-0.8222,1.6045,-0.0169,0.201,-0.2332,0.27,-0.9633,1.646,0.2761,0.0445,0.092,-0.0001,-0.0015,-0.001,0.0,-0.0022,0.0022,-0.001,-0.017,-0.0049,-0.0,-0.0003,0.0005,-0.0005,0.0042,-0.007,-0.0001,-0.0006,0.0001,-0.0074,-0.0142,0.0009,0.0007,0.003,0.1633,0.4643,-0.6906,0.3114,0.6624,-0.92,0.302,-0.3978,0.3164,-0.0248,0.6623,-0.921,0.4426,-0.5456,0.3465,0.4497,0.4958,-0.7005,0.0,0.0,0.0,0.0,0.0,0.0,0.0,0.0,0.0,
3.96,run,-0.24,3.15,0.08,0.03,0.11,0.0,0.0,0.0,0.156,5.71,1.14,6.42,10.72,11.87,-13.18,10.72,-47.02,92.37,-0.97,11.95,-13.18,15.38,-54.93,94.48,15.82,2.81,5.54,5.71,0.52,6.32,10.89,11.45,-13.27,10.59,-46.92,91.91,-0.87,11.46,-13.34,15.5,-55.01,94.44,15.76,2.31,5.44,0.1632,0.4641,-0.6903,0.3112,0.6627,-0.9208,0.3027,-0.3985,0.3166,-0.0249,0.6629,-0.9217,0.4428,-0.5457,0.3464,0.4504,0.4965,-0.7007,0.0,0.013,0.0,0.006,0.006,0.0,0.0,0.0,0.006,0.0,0.013,0.0,0.0,0.0,0.0,0.0,0.013,0.0,0.0982,0.0092,0.1089,0.1917,0.2086,-0.2332,0.1917,-0.8222,1.6045,-0.0169,0.201,-0.2332,0.27,-0.9633,1.646,0.2761,0.0445,0.092,-0.0001,-0.001,-0.0007,0.0,-0.0016,0.0015,-0.0007,-0.0119,-0.0034,-0.0,-0.0002,0.0003,-0.0004,0.0029,-0.0049,-0.0001,-0.0004,0.0001,-0.0076,-0.0141,-0.0007,-0.0003,0.0011,0.1629,0.4639,-0.6905,0.3112,0.6625,-0.9206,0.3027,-0.3982,0.3163,-0.0249,0.6627,-0.9216,0.4429,-0.5454,0.3463,0.4503,0.4964,-0.7008,0.0,0.0,0.0,0.0,0.0,0.0,0.0,0.0,0.0,
4.0,run,-0.25,3.15,-0.18,-0.05,0.08,0.0,0.0,0.0,0.156,5.71,1.14,6.42,10.72,11.87,-13.18,10.72,-47.02,92.37,-0.97,11.95,-13.27,15.38,-54.93,94.48,15.82,2.81,5.54,5.72,0.52,6.32,10.89,11.46,-13.26,10.59,-46.92,91.91,-0.87,11.46,-13.35,15.49,-55.02,94.44,15.76,2.31,5.43,0.1634,0.464,-0.6904,0.3111,0.6628,-0.9207,0.3026,-0.3985,0.3166,-0.0249,0.6629,-0.9217,0.4427,-0.5458,0.3464,0.4503,0.4966,-0.7008,0.0,0.013,0.0,0.006,0.006,0.0,0.0,0.0,0.006,0.0,0.013,0.0,0.0,0.0,0.0,0.0,0.013,0.0,0.0982,0.0092,0.1089,0.1917,0.2086,-0.2332,0.1917,-0.8222,1.6045,-0.0169,0.201,-0.2332,0.27,-0.9633,1.646,0.2761,0.0445,0.092,-0.0,-0.0007,-0.0005,0.0,-0.0011,0.0011,-0.0005,-0.0083,-0.0024,-0.0,-0.0001,0.0002,-0.0002,0.002,-0.0034,-0.0,-0.0003,0.0,-0.0072,-0.0139,0.0013,0.0005,0.0019,0.1632,0.4641,-0.6903,0.3112,0.6627,-0.9208,0.3027,-0.3985,0.3166,-0.0249,0.6629,-0.9217,0.4428,-0.5457,0.3464,0.4504,0.4965,-0.7007,0.0,0.0,0.0,0.0,0.0,0.0,0.0,0.0,0.0,
4.04,run,-0.25,3.15,-0.05,-0.05,0.09,0.0,0.0,0.0,0.156,5.71,1.14,6.42,10.72,11.87,-13.18,10.72,-47.02,92.37,-0.97,11.95,-13.27,15.38,-54.93,94.48,15.82,2.81,5.54,5.72,0.55,6.34,10.89,11.48,-13.3,10.59,-46.92,91.96,-0.87,11.48,-13.34,15.5,-55.03,94.47,15.77,2.32,5.47,0.1635,0.4645,-0.6902,0.3112,0.6632,-0.9212,0.3027,-0.3986,0.3172,-0.025,0.6632,-0.9217,0.4427,-0.546,0.3467,0.4505,0.4967,-0.7003,0.0,0.013,0.0,0.006,0.006,0.0,0.0,0.0,0.006,0.0,0.013,0.0,0.0,0.0,0.0,0.0,0.013,0.0,0.0982,0.0092,0.1089,0.1917,0.2086,-0.2332,0.1917,-0.8222,1.6045,-0.0169,0.201,-0.2347,0.27,-0.9633,1.646,0.2761,0.0445,0.092,-0.0,-0.0005,-0.0003,0.0,-0.0008,0.0007,-0.0004,-0.0058,-0.0017,-0.0,-0.0001,-0.0056,-0.0002,0.0014,-0.0024,-0.0,-0.0002,0.0,-0.0082,-0.014,-0.0032,-0.0009,0.0014,0.1634,0.464,-0.6904,0.3111,0.6628,-0.9207,0.3026,-0.3985,0.3166,-0.0249,0.6629,-0.9217,0.4427,-0.5458,0.3464,0.4503,0.4966,-0.7008,0.0,0.0,0.0,0.0,0.0,0.0,0.0,0.0,0.0,
4.08,run,-0.25,3.15,-0.01,0.02,-0.02,0.0,0.0,0.0,0.156,5.71,1.14,6.42,10.72,11.87,-13.18,10.72,-47.02,92.37,-0.97,11.95,-13.27,15.38,-54.93,94.48,15.82,2.81,5.54,5.73,0.54,6.33,10.89,11.48,-13.29,10.59,-46.93,91.96,-0.87,11.48,-13.35,15.49,-55.04,94.48,15.77,2.32,5.46,0.1636,0.4644,-0.6902,0.3111,0.6633,-0.921,0.3026,-0.3987,0.3172,-0.0249,0.6632,-0.9218,0.4426,-0.5461,0.3468,0.4505,0.4968,-0.7004,0.0,0.013,0.0,0.0,0.0,0.0,0.0,0.0,0.006,0.006,0.006,0.0,0.0,0.0,0.0,0.0,0.013,0.0,0.0982,0.0092,0.1089,0.1917,0.2086,-0.2332,0.1917,-0.8222,1.6045,-0.0169,0.201,-0.2347,0.27,-0.9633,1.646,0.2761,0.0445,0.092,-0.0,-0.0004,-0.0002,0.0,-0.0005,0.0005,-0.0002,-0.0041,-0.0012,-0.0,-0.0001,-0.0039,-0.0001,0.001,-0.0017,-0.0,-0.0001,0.0,-0.0083,-0.0141,-0.0008,-0.0009,0.0015,0.1635,0.4645,-0.6902,0.3112,0.6632,-0.9212,0.3027,-0.3986,0.3172,-0.025,0.6632,-0.9217,0.4427,-0.546,0.3467,0.4505,0.4967,-0.7003,0.0,0.0,0.0,0.0,0.0,0.0,0.0,0.0,0.0,
4.12,run,-0.26,3.15,-0.08,0.07,0.1,0.0,0.0,0.0,0.156,5.71,1.14,6.42,10.72,11.87,-13.18,10.72,-47.02,92.37,-0.97,11.95,-13.27,15.38,-54.93,94.48,15.82,2.81,5.54,5.73,0.54,6.34,10.89,11.48,-13.29,10.59,-46.93,91.96,-0.87,11.48,-13.35,15.49,-55.04,94.47,15.77,2.32,5.45,0.1636,0.4643,-0.6901,0.311,0.6633,-0.9211,0.3025,-0.3988,0.3171,-0.0249,0.6632,-0.9218,0.4426,-0.5463,0.3467,0.4505,0.4968,-0.7005,0.0,0.013,0.0,0.0,0.0,0.0,0.0,0.0,0.006,0.006,0.006,0.0,0.0,0.0,0.0,0.0,0.013,0.0,0.0982,0.0092,0.1089,0.1917,0.2086,-0.2332,0.1917,-0.8222,1.6045,-0.0169,0.201,-0.2347,0.27,-0.9633,1.646,0.2761,0.0445,0.092,-0.0,-0.0003,-0.0002,0.0,-0.0004,0.0004,-0.0002,-0.0029,-0.0008,-0.0,-0.0,-0.0028,-0.0001,0.0007,-0.0012,-0.0,-0.0001,0.0,-0.0084,-0.0142,-0.0003,0.0003,-0.0004,0.1636,0.4644,-0.6902,0.3111,0.6633,-0.921,0.3026,-0.3987,0.3172,-0.0249,0.6632,-0.9218,0.4426,-0.5461,0.3468,0.4505,0.4968,-0.7004,0.0,0.0,0.0,0.0,0.0,0.0,0.0,0.0,0.0,
4.16,run,-0.25,3.15,-0.04,-0.01,0.04,0.0,0.0,0.0,0.156,5.71,1.14,6.42,10.72,11.87,-13.18,10.72,-47.02,92.37,-0.97,11.95,-13.27,15.38,-54.93,94.48,15.82,2.81,5.54,5.73,0.54,6.34,10.89,11.49,-13.29,10.59,-46.93,91.96,-0.87,11.48,-13.35,15.49,-55.04,94.48,15.76,2.32,5.46,0.1637,0.4643,-0.6901,0.3111,0.6634,-0.921,0.3025,-0.3986,0.3172,-0.0249,0.6632,-0.9217,0.4425,-0.5461,0.3468,0.4504,0.4968,-0.7005,0.0,0.013,0.0,0.0,0.0,0.0,0.0,0.0,0.006,0.006,0.006,0.0,0.0,0.0,0.0,0.0,0.013,0.0,0.0982,0.0092,0.1089,0.1917,0.2086,-0.2332,0.1917,-0.8222,1.6045,-0.0169,0.201,-0.2347,0.27,-0.9633,1.646,0.2761,0.0445,0.092,-0.0,-0.0002,-0.0001,0.0,-0.0003,0.0003,-0.0001,-0.002,-0.0006,-0.0,-0.0,-0.0019,-0.0001,0.0005,-0.0008,-0.0,-0.0001,0.0,-0.0086,-0.0144,-0.0013,0.0011,0.0018,0.1636,0.4643,-0.6901,0.311,0.6633,-0.9211,0.3025,-0.3988,0.3171,-0.0249,0.6632,-0.9218,0.4426,-0.5463,0.3467,0.4505,0.4968,-0.7005,0.0,0.0,0.0,0.0,0.0,0.0,0.0,0.0,0.0,
4.2,run,-0.25,3.14,-0.01,0.0,0.09,0.0,0.0,0.0,0.156,5.71,1.14,6.42,10.72,11.87,-13.18,10.72,-47.02,92.37,-0.97,11.95,-13.27,15.38,-54.93,94.48,15.82,2.81,5.54,5.73,0.54,6.34,10.89,11.49,-13.29,10.59,-46.93,91.96,-0.87,11.48,-13.36,15.49,-55.04,94.48,15.77,2.32,5.46,0.1637,0.4644,-0.6902,0.3111,0.6634,-0.921,0.3025,-0.3987,0.3172,-0.025,0.6633,-0.9218,0.4425,-0.5462,0.3468,0.4505,0.4968,-0.7005,0.0,0.013,0.0,0.0,0.006,0.0,0.0,0.0,0.006,0.0,0.013,0.0,0.0,0.0,0.0,0.0,0.013,0.0,0.0982,0.0092,0.1089,0.1917,0.2086,-0.2332,0.1917,-0.8222,1.6045,-0.0169,0.201,-0.2347,0.27,-0.9633,1.646,0.2761,0.0445,0.092,-0.0,-0.0001,-0.0001,0.0,-0.0002,0.0002,-0.0001,-0.0014,-0.0004,-0.0,-0.0,-0.0013,-0.0,0.0003,-0.0006,-0.0,-0.0,0.0,-0.0085,-0.0144,-0.0007,-0.0002,0.0007,0.1637,0.4643,-0.6901,0.3111,0.6634,-0.921,0.3025,-0.3986,0.3172,-0.0249,0.6632,-0.9217,0.4425,-0.5461,0.3468,0.4504,0.4968,-0.7005,0.0,0.0,0.0,0.0,0.0,0.0,0.0,0.0,0.0,
4.24,run,-0.25,3.14,-0.11,-0.08,0.07,0.0,0.0,0.0,0.156,5.71,1.14,6.42,10.72,11.87,-13.18,10.72,-47.02,92.37,-0.97,11.95,-13.27,15.38,-54.93,94.48,15.82,2.81,5.54,5.73,0.54,6.33,10.89,11.49,-13.28,10.59,-46.93,91.96,-0.87,11.48,-13.36,15.49,-55.04,94.48,15.76,2.32,5.45,0.1637,0.4643,-0.6903,0.3111,0.6634,-0.9209,0.3025,-0.3986,0.3171,-0.0249,0.6632,-0.9218,0.4425,-0.5461,0.3468,0.4504,0.4968,-0.7005,0.0,0.013,0.0,0.0,0.006,0.0,0.0,0.0,0.006,0.0,0.013,0.0,0.0,0.0,0.0,0.0,0.013,0.0,0.0982,0.0092,0.1089,0.1917,0.2086,-0.2332,0.1917,-0.8222,1.6045,-0.0169,0.201,-0.2347,0.27,-0.9633,1.646,0.2761,0.0445,0.092,-0.0,-0.0001,-0.0001,0.0,-0.0001,0.0001,-0.0001,-0.001,-0.0003,-0.0,-0.0,-0.0009,-0.0,0.0002,-0.0004,-0.0,-0.0,0.0,-0.0081,-0.0146,-0.0001,0.0001,0.0015,0.1637,0.4644,-0.6902,0.3111,0.6634,-0.921,0.3025,-0.3987,0.3172,-0.025,0.6633,-0.9218,0.4425,-0.5462,0.3468,0.4505,0.4968,-0.7005,0.0,0.0,0.0,0.0,0.0,0.0,0.0,0.0,0.0,
4.28,run,-0.25,3.14,0.01,0.03,0.02,0.0,0.0,0.0,0.156,5.71,1.14,6.42,10.72,11.87,-13.18,10.72,-47.02,92.37,-0.97,11.95,-13.27,15.38,-54.93,94.48,15.82,2.81,5.54,5.73,0.54,6.32,10.89,11.49,-13.28,10.59,-46.92,91.97,-0.88,11.48,-13.36,15.49,-55.04,94.48,15.77,2.32,5.47,0.1638,0.4645,-0.6903,0.3112,0.6634,-0.921,0.3025,-0.3986,0.3173,-0.025,0.6633,-0.9219,0.4425,-0.5461,0.3468,0.4505,0.4967,-0.7004,0.0,0.013,0.0,0.0,0.006,0.0,0.0,0.0,0.006,0.0,0.013,0.0,0.0,0.0,0.0,0.0,0.013,0.0,0.0982,0.0092,0.1089,0.1917,0.2086,-0.2332,0.1917,-0.8222,1.6045,-0.0169,0.201,-0.2347,0.27,-0.9633,1.646,0.2761,0.0445,0.092,-0.0,-0.0001,-0.0,0.0,-0.0001,0.0001,-0.0,-0.0007,-0.0002,-0.0,-0.0,-0.0007,-0.0,0.0002,-0.0003,-0.0,-0.0,0.0,-0.0083,-0.0149,-0.002,-0.0014,0.0012,0.1637,0.4643,-0.6903,0.3111,0.6634,-0.9209,0.3025,-0.3986,0.3171,-0.0249,0.6632,-0.9218,0.4425,-0.5461,0.3468,0.4504,0.4968,-0.7005,0.0,0.0,0.0,0.0,0.0,0.0,0.0,0.0,0.0,
4.32,run,-0.25,3.14,-0.06,-0.06,0.08,0.0,0.0,0.0,0.156,5.71,1.14,6.42,10.72,11.87,-13.18,10.72,-47.02,92.37,-0.97,11.95,-13.27,15.38,-54.93,94.48,15.82,2.81,5.54,5.73,0.54,6.33,10.89,11.48,-13.28,10.59,-46.93,91.95,-0.87,11.48,-13.36,15.49,-55.04,94.47,15.76,2.32,5.45,0.1637,0.4643,-0.6903,0.3111,0.6634,-0.9209,0.3025,-0.3987,0.3171,-0.0249,0.6632,-0.9219,0.4425,-0.5462,0.3467,0.4504,0.4968,-0.7006,0.0,0.013,0.0,0.0,0.006,0.0,0.0,0.0,0.006,0.0,0.006,0.0,0.0,0.0,0.0,0.0,0.006,0.0,0.0982,0.0092,0.1089,0.1917,0.2086,-0.2332,0.1917,-0.8222,1.6045,-0.0169,0.201,-0.2347,0.27,-0.9633,1.646,0.2761,0.0445,0.092,-0.0,-0.0,-0.0,0.0,-0.0001,0.0001,-0.0,-0.0005,-0.0001,-0.0,-0.0,-0.0005,-0.0,0.0001,-0.0002,-0.0,-0.0,0.0,-0.0082,-0.0149,0.0001,0.0005,0.0003,0.1638,0.4645,-0.6903,0.3112,0.6634,-0.921,0.3025,-0.3986,0.3173,-0.025,0.6633,-0.9219,0.4425,-0.5461,0.3468,0.4505,0.4967,-0.7004,0.0,0.0,0.0,0.0,0.0,0.0,0.0,0.0,0.0,
4.36,run,-0.25,3.14,0.0,0.02,0.11,0.0,0.0,0.0,0.156,5.71,1.14,6.42,10.72,11.87,-13.18,10.72,-47.02,92.37,-0.97,11.95,-13.27,15.38,-54.93,94.48,15.82,2.81,5.54,5.73,0.54,6.32,10.89,11.49,-13.27,10.59,-46.92,91.96,-0.88,11.48,-13.36,15.49,-55.03,94.48,15.76,2.32,5.46,0.1638,0.4644,-0.6904,0.3113,0.6634,-0.9209,0.3025,-0.3985,0.3172,-0.025,0.6633,-0.9219,0.4424,-0.5461,0.3468,0.4504,0.4967,-0.7004,0.0,0.013,0.0,0.0,0.006,0.0,0.0,0.0,0.006,0.0,0.006,0.0,0.0,0.0,0.0,0.0,0.006,0.0,0.0982,0.0092,0.1089,0.1917,0.2086,-0.2332,0.1917,-0.8222,1.6045,-0.0169,0.201,-0.2347,0.27,-0.9633,1.646,0.2761,0.0445,0.092,-0.0,-0.0,-0.0,0.0,-0.0,0.0,-0.0,-0.0003,-0.0001,-0.0,-0.0,-0.0003,-0.0,0.0001,-0.0001,-0.0,-0.0,0.0,-0.0083,-0.0154,-0.0011,-0.001,0.0014,0.1637,0.4643,-0.6903,0.3111,0.6634,-0.9209,0.3025,-0.3987,0.3171,-0.0249,0.6632,-0.9219,0.4425,-0.5462,0.3467,0.4504,0.4968,-0.7006,0.0,0.0,0.0,0.0,0.0,0.0,0.0,0.0,0.0,
4.4,run,-0.25,3.14,-0.08,0.03,0.09,0.0,0.0,0.0,0.156,5.71,1.14,6.42,10.72,11.87,-13.18,10.72,-47.02,92.37,-0.97,11.95,-13.27,15.38,-54.93,94.48,15.82,2.81,5.54,5.73,0.54,6.32,10.89,11.49,-13.27,10.59,-46.92,91.95,-0.87,11.48,-13.36,15.48,-55.03,94.47,15.76,2.32,5.45,0.1638,0.4643,-0.6903,0.3112,0.6634,-0.9208,0.3025,-0.3985,0.3171,-0.0249,0.6633,-0.9219,0.4424,-0.5461,0.3467,0.4503,0.4967,-0.7006,0.0,0.013,0.0,0.0,0.006,0.0,0.0,0.0,0.006,0.0,0.006,0.0,0.0,0.0,0.0,0.0,0.006,0.0,0.0982,0.0092,0.1089,0.1917,0.2086,-0.2332,0.1917,-0.8222,1.6045,-0.0169,0.201,-0.2347,0.27,-0.9633,1.646,0.2761,0.0445,0.092,-0.0,-0.0,-0.0,0.0,-0.0,0.0,-0.0,-0.0002,-0.0001,-0.0,-0.0,-0.0002,-0.0,0.0001,-0.0001,-0.0,-0.0,0.0,-0.0083,-0.0152,0.0,0.0003,0.0019,0.1638,0.4644,-0.6904,0.3113,0.6634,-0.9209,0.3025,-0.3985,0.3172,-0.025,0.6633,-0.9219,0.4424,-0.5461,0.3468,0.4504,0.4967,-0.7004,0.0,0.0,0.0,0.0,0.0,0.0,0.0,0.0,0.0,
4.44,run,-0.25,3.14,0.02,-0.02,0.07,0.0,0.0,0.0,0.156,5.71,1.14,6.42,10.72,11.87,-13.18,10.72,-47.02,92.37,-0.97,11.95,-13.27,15.38,-54.93,94.48,15.82,2.81,5.54,5.73,0.54,6.33,10.89,11.49,-13.28,10.59,-46.92,91.96,-0.87,11.48,-13.36,15.48,-55.03,94.47,15.76,2.32,5.46,0.1637,0.4644,-0.6902,0.3112,0.6634,-0.9209,0.3025,-0.3985,0.3172,-0.025,0.6633,-0.9218,0.4424,-0.5461,0.3467,0.4504,0.4967,-0.7005,0.0,0.013,0.0,0.006,0.006,0.0,0.0,0.0,0.006,0.0,0.006,0.0,0.0,0.0,0.0,0.0,0.013,0.0,0.0982,0.0092,0.1089,0.1917,0.2086,-0.2332,0.1917,-0.8222,1.6045,-0.0169,0.201,-0.2347,0.27,-0.9633,1.646,0.2761,0.0445,0.092,-0.0,-0.0,-0.0,0.0,-0.0,0.0,-0.0,-0.0002,-0.0,-0.0,-0.0,-0.0002,-0.0,0.0,-0.0001,-0.0,-0.0,0.0,-0.0085,-0.0151,-0.0015,0.0006,0.0016,0.1638,0.4643,-0.6903,0.3112,0.6634,-0.9208,0.3025,-0.3985,0.3171,-0.0249,0.6633,-0.9219,0.4424,-0.5461,0.3467,0.4503,0.4967,-0.7006,0.0,0.0,0.0,0.0,0.0,0.0,0.0,0.0,0.0,
4.48,run,-0.26,3.14,-0.07,0.07,0.11,0.0,0.0,0.0,0.156,5.71,1.14,6.42,10.72,11.87,-13.18,10.72,-47.02,92.37,-0.97,11.95,-13.27,15.38,-54.93,94.48,15.82,2.81,5.54,5.73,0.54,6.32,10.89,11.49,-13.27,10.59,-46.92,91.95,-0.87,11.48,-13.36,15.48,-55.04,94.47,15.76,2.32,5.45,0.1638,0.4643,-0.6904,0.3112,0.6634,-0.9208,0.3025,-0.3986,0.3171,-0.025,0.6633,-0.9219,0.4424,-0.5461,0.3467,0.4504,0.4967,-0.7006,0.0,0.013,0.0,0.006,0.006,0.0,0.0,0.0,0.006,0.0,0.006,0.0,0.0,0.0,0.0,0.0,0.013,0.0,0.0982,0.0092,0.1089,0.1917,0.2086,-0.2332,0.1917,-0.8222,1.6045,-0.0169,0.201,-0.2347,0.27,-0.9633,1.646,0.2761,0.0445,0.092,-0.0,-0.0,-0.0,0.0,-0.0,0.0,-0.0,-0.0001,-0.0,-0.0,-0.0,-0.0001,-0.0,0.0,-0.0,-0.0,-0.0,0.0,-0.0083,-0.0152,0.0004,-0.0003,0.0012,0.1637,0.4644,-0.6902,0.3112,0.6634,-0.9209,0.3025,-0.3985,0.3172,-0.025,0.6633,-0.9218,0.4424,-0.5461,0.3467,0.4504,0.4967,-0.7005,0.0,0.0,0.0,0.0,0.0,0.0,0.0,0.0,0.0,
4.52,run,-0.25,3.14,-0.01,0.04,0.09,0.0,0.0,0.0,0.156,5.71,1.14,6.42,10.72,11.87,-13.18,10.72,-47.02,92.37,-0.97,11.95,-13.27,15.38,-54.93,94.48,15.82,2.81,5.54,5.73,0.54,6.33,10.89,11.49,-13.28,10.59,-46.92,91.96,-0.87,11.48,-13.35,15.48,-55.03,94.47,15.76,2.32,5.46,0.1637,0.4643,-0.6902,0.3111,0.6634,-0.9209,0.3025,-0.3985,0.3172,-0.0249,0.6632,-0.9218,0.4424,-0.5461,0.3467,0.4503,0.4967,-0.7005,0.0,0.013,0.0,0.006,0.006,0.0,0.0,0.0,0.006,0.0,0.006,0.0,0.0,0.0,0.0,0.0,0.013,0.0,0.0982,0.0092,0.1089,0.1917,0.2086,-0.2332,0.1917,-0.8222,1.6045,-0.0169,0.201,-0.2347,0.27,-0.9633,1.646,0.2761,0.0445,0.092,-0.0,-0.0,-0.0,0.0,-0.0,0.0,-0.0,-0.0001,-0.0,-0.0,-0.0,-0.0001,-0.0,0.0,-0.0,-0.0,-0.0,0.0,-0.0085,-0.015,-0.0012,0.0011,0.0019,0.1638,0.4643,-0.6904,0.3112,0.6634,-0.9208,0.3025,-0.3986,0.3171,-0.025,0.6633,-0.9219,0.4424,-0.5461,0.3467,0.4504,0.4967,-0.7006,0.0,0.0,0.0,0.0,0.0,0.0,0.0,0.0,0.0,
4.56,run,-0.25,3.14,-0.04,-0.03,0.08,0.0,0.0,0.0,0.156,5.71,1.14,6.42,10.72,11.87,-13.18,10.72,-47.02,92.37,-0.97,11.95,-13.27,15.38,-54.93,94.48,15.82,2.81,5.54,5.73,0.54,6.33,10.89,11.49,-13.28,10.59,-46.92,91.96,-0.87,11.48,-13.36,15.48,-55.04,94.47,15.76,2.32,5.45,0.1637,0.4643,-0.6902,0.3111,0.6634,-0.9209,0.3024,-0.3986,0.3171,-0.0249,0.6632,-0.9218,0.4424,-0.5461,0.3467,0.4503,0.4967,-0.7006,0.0,0.013,0.0,0.0,0.006,0.0,0.006,0.0,0.013,0.0,0.006,0.0,0.0,0.0,0.0,0.0,0.013,0.0,0.0982,0.0092,0.1089,0.1917,0.2086,-0.2332,0.1917,-0.8222,1.6045,-0.0169,0.201,-0.2347,0.27,-0.9633,1.646,0.2761,0.0445,0.092,-0.0,-0.0,-0.0,0.0,-0.0,0.0,-0.0,-0.0001,-0.0,-0.0,-0.0,-0.0001,-0.0,0.0,-0.0,-0.0,-0.0,0.0,-0.0084,-0.0148,-0.0001,0.0007,0.0016,0.1637,0.4643,-0.6902,0.3111,0.6634,-0.9209,0.3025,-0.3985,0.3172,-0.0249,0.6632,-0.9218,0.4424,-0.5461,0.3467,0.4503,0.4967,-0.7005,0.0,0.0,0.0,0.0,0.0,0.0,0.0,0.0,0.0,
4.6,run,-0.25,3.14,-0.05,-0.04,0.12,0.0,0.0,0.0,0.156,5.71,1.14,6.42,10.72,11.87,-13.18,10.72,-47.02,92.37,-0.97,11.95,-13.27,15.38,-54.93,94.48,15.82,2.81,5.54,5.73,0.54,6.32,10.89,11.49,-13.28,10.59,-46.92,91.96,-0.87,11.48,-13.36,15.49,-55.04,94.48,15.76,2.32,5.46,0.1638,0.4644,-0.6903,0.3112,0.6634,-0.9209,0.3025,-0.3986,0.3172,-0.025,0.6633,-0.9219,0.4424,-0.5461,0.3468,0.4504,0.4967,-0.7005,0.0,0.013,0.0,0.0,0.006,0.0,0.006,0.0,0.013,0.0,0.006,0.0,0.0,0.0,0.0,0.0,0.013,0.0,0.0982,0.0092,0.1089,0.1917,0.2086,-0.2332,0.1917,-0.8222,1.6045,-0.0169,0.201,-0.2347,0.27,-0.9633,1.646,0.2761,0.0445,0.092,-0.0,-0.0,-0.0,0.0,-0.0,0.0,-0.0,-0.0,-0.0,-0.0,-0.0,-0.0,-0.0,0.0,-0.0,-0.0,-0.0,0.0,-0.0083,-0.0149,-0.0007,-0.0006,0.0014,0.1637,0.4643,-0.6902,0.3111,0.6634,-0.9209,0.3024,-0.3986,0.3171,-0.0249,0.6632,-0.9218,0.4424,-0.5461,0.3467,0.4503,0.4967,-0.7006,0.0,0.0,0.0,0.0,0.0,0.0,0.0,0.0,0.0,
4.64,run,-0.25,3.14,0.02,0.05,0.03,0.0,0.0,0.0,0.156,5.71,1.14,6.42,10.72,11.87,-13.18,10.72,-47.02,92.37,-0.97,11.95,-13.27,15.38,-54.93,94.48,15.82,2.81,5.54,5.73,0.54,6.32,10.89,11.49,-13.27,10.59,-46.92,91.96,-0.87,11.48,-13.36,15.48,-55.03,94.48,15.76,2.32,5.46,0.1638,0.4644,-0.6904,0.3112,0.6634,-0.9208,0.3025,-0.3985,0.3172,-0.025,0.6633,-0.9219,0.4424,-0.546,0.3468,0.4503,0.4967,-0.7004,0.0,0.013,0.0,0.0,0.006,0.0,0.006,0.0,0.013,0.0,0.006,0.0,0.0,0.0,0.0,0.0,0.013,0.0,0.0982,0.0092,0.1089,0.1917,0.2086,-0.2332,0.1917,-0.8222,1.6045,-0.0169,0.201,-0.2347,0.27,-0.9633,1.646,0.2761,0.0445,0.092,-0.0,-0.0,-0.0,0.0,-0.0,0.0,-0.0,-0.0,-0.0,-0.0,-0.0,-0.0,-0.0,0.0,-0.0,-0.0,-0.0,0.0,-0.0084,-0.0153,-0.0008,-0.0007,0.0022,0.1638,0.4644,-0.6903,0.3112,0.6634,-0.9209,0.3025,-0.3986,0.3172,-0.025,0.6633,-0.9219,0.4424,-0.5461,0.3468,0.4504,0.4967,-0.7005,0.0,0.0,0.0,0.0,0.0,0.0,0.0,0.0,0.0,
4.68,run,-0.25,3.14,-0.02,0.05,0.06,0.0,0.0,0.0,0.156,5.71,1.14,6.42,10.72,11.87,-13.18,10.72,-47.02,92.37,-0.97,11.95,-13.27,15.38,-54.93,94.48,15.82,2.81,5.54,5.73,0.54,6.33,10.89,11.48,-13.28,10.59,-46.93,91.95,-0.87,11.48,-13.36,15.48,-55.04,94.47,15.76,2.32,5.45,0.1637,0.4643,-0.6903,0.3111,0.6634,-0.9209,0.3024,-0.3986,0.3171,-0.0249,0.6632,-0.9219,0.4424,-0.5462,0.3467,0.4504,0.4967,-0.7006,0.0,0.013,0.0,0.0,0.006,0.0,0.006,0.0,0.013,0.0,0.006,0.0,0.0,0.0,0.0,0.0,0.013,0.0,0.0982,0.0092,0.1089,0.1917,0.2086,-0.2332,0.1917,-0.8222,1.6045,-0.0169,0.201,-0.2347,0.27,-0.9633,1.646,0.2761,0.0445,0.092,-0.0,-0.0,-0.0,0.0,-0.0,0.0,-0.0,-0.0,-0.0,-0.0,-0.0,-0.0,-0.0,0.0,-0.0,-0.0,-0.0,0.0,-0.0083,-0.015,0.0003,0.0009,0.0006,0.1638,0.4644,-0.6904,0.3112,0.6634,-0.9208,0.3025,-0.3985,0.3172,-0.025,0.6633,-0.9219,0.4424,-0.546,0.3468,0.4503,0.4967,-0.7004,0.0,0.0,0.0,0.0,0.0,0.0,0.0,0.0,0.0,
4.72,run,-0.25,3.14,-0.03,0.06,0.08,0.0,0.0,0.0,0.156,5.71,1.14,6.42,10.72,11.87,-13.18,10.72,-47.02,92.37,-0.97,11.95,-13.27,15.38,-54.93,94.48,15.82,2.81,5.54,5.73,0.54,6.33,10.89,11.48,-13.28,10.59,-46.93,91.95,-0.87,11.48,-13.36,15.48,-55.04,94.47,15.76,2.32,5.45,0.1637,0.4643,-0.6902,0.3111,0.6634,-0.9209,0.3025,-0.3986,0.3171,-0.0249,0.6632,-0.9218,0.4424,-0.5462,0.3467,0.4504,0.4967,-0.7006,0.0,0.013,0.0,0.0,0.006,0.0,0.006,0.0,0.013,0.0,0.006,0.0,0.0,0.0,0.0,0.0,0.013,0.0,0.0982,0.0092,0.1089,0.1917,0.2086,-0.2332,0.1917,-0.8222,1.6045,-0.0169,0.201,-0.2347,0.27,-0.9633,1.646,0.2761,0.0445,0.092,-0.0,-0.0,-0.0,0.0,-0.0,0.0,-0.0,-0.0,-0.0,-0.0,-0.0,-0.0,-0.0,0.0,-0.0,-0.0,-0.0,0.0,-0.0083,-0.0149,-0.0004,0.0009,0.001,0.1637,0.4643,-0.6903,0.3111,0.6634,-0.9209,0.3024,-0.3986,0.3171,-0.0249,0.6632,-0.9219,0.4424,-0.5462,0.3467,0.4504,0.4967,-0.7006,0.0,0.0,0.0,0.0,0.0,0.0,0.0,0.0,0.0,
4.76,run,-0.25,3.15,-0.03,0.08,0.1,0.0,0.0,0.0,0.156,5.71,1.14,6.42,10.72,11.87,-13.18,10.72,-47.02,92.37,-0.97,11.95,-13.27,15.38,-54.93,94.48,15.82,2.81,5.54,5.73,0.54,6.33,10.89,11.48,-13.28,10.59,-46.93,91.95,-0.87,11.48,-13.36,15.48,-55.04,94.47,15.76,2.32,5.45,0.1637,0.4643,-0.6902,0.3111,0.6634,-0.9209,0.3025,-0.3987,0.3171,-0.0249,0.6632,-0.9218,0.4424,-0.5461,0.3467,0.4504,0.4968,-0.7006,0.0,0.013,0.0,0.0,0.006,0.0,0.006,0.0,0.013,0.0,0.006,0.0,0.0,0.0,0.0,0.0,0.013,0.0,0.0982,0.0092,0.1089,0.1917,0.2086,-0.2332,0.1917,-0.8222,1.6045,-0.0169,0.201,-0.2347,0.27,-0.9633,1.646,0.2761,0.0445,0.092,-0.0,-0.0,-0.0,0.0,-0.0,0.0,-0.0,-0.0,-0.0,-0.0,-0.0,-0.0,-0.0,0.0,-0.0,-0.0,-0.0,0.0,-0.0082,-0.0147,-0.0005,0.001,0.0014,0.1637,0.4643,-0.6902,0.3111,0.6634,-0.9209,0.3025,-0.3986,0.3171,-0.0249,0.6632,-0.9218,0.4424,-0.5462,0.3467,0.4504,0.4967,-0.7006,0.0,0.0,0.0,0.0,0.0,0.0,0.0,0.0,0.0,
4.8,run,-0.25,3.15,-0.06,0.05,0.11,0.0,0.0,0.0,0.156,5.71,1.14,6.42,10.72,11.87,-13.18,10.72,-47.02,92.37,-0.97,11.95,-13.27,15.38,-54.93,94.48,15.82,2.81,5.54,5.73,0.54,6.34,10.89,11.49,-13.28,10.59,-46.93,91.96,-0.87,11.47,-13.35,15.49,-55.04,94.47,15.77,2.32,5.45,0.1637,0.4643,-0.6901,0.311,0.6634,-0.921,0.3024,-0.3987,0.3172,-0.0249,0.6632,-0.9218,0.4424,-0.5462,0.3468,0.4504,0.4968,-0.7006,0.0,0.013,0.0,0.006,0.006,0.0,0.0,0.0,0.013,0.006,0.013,0.0,0.0,0.0,0.0,0.0,0.013,0.0,0.0982,0.0092,0.1089,0.1917,0.2086,-0.2332,0.1917,-0.8222,1.6045,-0.0169,0.201,-0.2347,0.27,-0.9633,1.646,0.2761,0.0445,0.092,-0.0,-0.0,-0.0,0.0,-0.0,0.0,-0.0,-0.0,-0.0,-0.0,-0.0,-0.0,-0.0,0.0,-0.0,-0.0,-0.0,0.0,-0.0081,-0.0141,-0.0005,0.0014,0.0018,0.1637,0.4643,-0.6902,0.3111,0.6634,-0.9209,0.3025,-0.3987,0.3171,-0.0249,0.6632,-0.9218,0.4424,-0.5461,0.3467,0.4504,0.4968,-0.7006,0.0,0.0,0.0,0.0,0.0,0.0,0.0,0.0,0.0,
4.84,run,-0.25,3.15,-0.01,-0.03,0.11,0.0,0.0,0.0,0.156,5.71,1.14,6.42,10.72,11.87,-13.18,10.72,-47.02,92.37,-0.97,11.95,-13.27,15.38,-54.93,94.48,15.82,2.81,5.54,5.73,0.54,6.34,10.89,11.49,-13.29,10.59,-46.93,91.97,-0.87,11.48,-13.35,15.49,-55.04,94.48,15.77,2.32,5.45,0.1637,0.4643,-0.6901,0.3111,0.6634,-0.921,0.3024,-0.3987,0.3172,-0.0249,0.6632,-0.9218,0.4424,-0.5462,0.3468,0.4504,0.4968,-0.7006,0.0,0.013,0.0,0.006,0.006,0.0,0.0,0.0,0.013,0.006,0.013,0.0,0.0,0.0,0.0,0.0,0.013,0.0,0.0982,0.0092,0.1089,0.1917,0.2086,-0.2332,0.1917,-0.8222,1.6045,-0.0169,0.201,-0.2347,0.27,-0.9633,1.646,0.2761,0.0445,0.092,-0.0,-0.0,-0.0,0.0,-0.0,0.0,-0.0,-0.0,-0.0,-0.0,-0.0,-0.0,-0.0,0.0,-0.0,-0.0,-0.0,0.0,-0.0083,-0.014,-0.0011,0.0009,0.0019,0.1637,0.4643,-0.6901,0.311,0.6634,-0.921,0.3024,-0.3987,0.3172,-0.0249,0.6632,-0.9218,0.4424,-0.5462,0.3468,0.4504,0.4968,-0.7006,0.0,0.0,0.0,0.0,0.0,0.0,0.0,0.0,0.0,
4.88,run,-0.25,3.15,-0.01,0.02,0.12,0.0,0.0,0.0,0.156,5.71,1.14,6.42,10.72,11.87,-13.18,10.72,-47.02,92.37,-0.97,11.95,-13.27,15.38,-54.93,94.48,15.82,2.81,5.54,5.73,0.54,6.33,10.89,11.49,-13.28,10.59,-46.93,91.97,-0.87,11.48,-13.36,15.49,-55.04,94.48,15.77,2.33,5.46,0.1638,0.4643,-0.6902,0.3111,0.6634,-0.921,0.3024,-0.3987,0.3172,-0.025,0.6632,-0.9218,0.4424,-0.5462,0.3468,0.4505,0.4968,-0.7005,0.0,0.013,0.0,0.006,0.006,0.0,0.0,0.0,0.013,0.006,0.013,0.0,0.0,0.0,0.0,0.0,0.013,0.0,0.0982,0.0092,0.1089,0.1917,0.2086,-0.2332,0.1917,-0.8222,1.6045,-0.0169,0.201,-0.2347,0.27,-0.9633,1.646,0.2761,0.0445,0.092,-0.0,-0.0,-0.0,0.0,-0.0,0.0,-0.0,-0.0,-0.0,-0.0,-0.0,-0.0,-0.0,0.0,-0.0,-0.0,-0.0,0.0,-0.0083,-0.014,-0.0001,-0.0006,0.0019,0.1637,0.4643,-0.6901,0.3111,0.6634,-0.921,0.3024,-0.3987,0.3172,-0.0249,0.6632,-0.9218,0.4424,-0.5462,0.3468,0.4504,0.4968,-0.7006,0.0,0.0,0.0,0.0,0.0,0.0,0.0,0.0,0.0,
4.92,run,-0.25,3.15,-0.07,-0.02,0.11,0.0,0.0,0.0,0.156,5.71,1.14,6.42,10.72,11.87,-13.18,10.72,-47.02,92.37,-0.97,11.95,-13.27,15.38,-54.93,94.48,15.82,2.81,5.54,5.73,0.54,6.33,10.89,11.49,-13.28,10.59,-46.93,91.96,-0.87,11.48,-13.36,15.49,-55.04,94.48,15.77,2.32,5.45,0.1638,0.4643,-0.6902,0.3111,0.6634,-0.9209,0.3024,-0.3987,0.3172,-0.0249,0.6632,-0.9218,0.4424,-0.5462,0.3468,0.4504,0.4968,-0.7006,0.0,0.013,0.0,0.0,0.006,0.0,0.006,0.0,0.006,0.0,0.006,0.0,0.0,0.0,0.0,0.0,0.006,0.0,0.0982,0.0092,0.1089,0.1917,0.2086,-0.2332,0.1917,-0.8222,1.6045,-0.0169,0.201,-0.2347,0.27,-0.9633,1.646,0.2761,0.0445,0.092,-0.0,-0.0,-0.0,0.0,-0.0,0.0,-0.0,-0.0,-0.0,-0.0,-0.0,-0.0,-0.0,0.0,-0.0,-0.0,-0.0,0.0,-0.0081,-0.0143,-0.0003,0.0003,0.0022,0.1638,0.4643,-0.6902,0.3111,0.6634,-0.921,0.3024,-0.3987,0.3172,-0.025,0.6632,-0.9218,0.4424,-0.5462,0.3468,0.4505,0.4968,-0.7005,0.0,0.0,0.0,0.0,0.0,0.0,0.0,0.0,0.0,
4.96,run,-0.26,3.14,-0.08,-0.03,0.11,0.0,0.0,0.0,0.156,5.71,1.14,6.42,10.72,11.87,-13.18,10.72,-47.02,92.37,-0.97,11.95,-13.27,15.38,-54.93,94.48,15.82,2.81,5.54,5.73,0.54,6.33,10.89,11.49,-13.28,10.59,-46.93,91.97,-0.87,11.48,-13.36,15.49,-55.04,94.48,15.77,2.32,5.46,0.1638,0.4644,-0.6902,0.3111,0.6634,-0.921,0.3025,-0.3987,0.3173,-0.025,0.6633,-0.9218,0.4425,-0.5462,0.3468,0.4504,0.4968,-0.7005,0.0,0.013,0.0,0.0,0.006,0.0,0.006,0.0,0.006,0.0,0.006,0.0,0.0,0.0,0.0,0.0,0.006,0.0,0.0982,0.0092,0.1089,0.1917,0.2086,-0.2332,0.1917,-0.8222,1.6045,-0.0169,0.201,-0.2347,0.27,-0.9633,1.646,0.2761,0.0445,0.092,-0.0,-0.0,-0.0,0.0,-0.0,0.0,-0.0,-0.0,-0.0,-0.0,-0.0,-0.0,-0.0,0.0,-0.0,-0.0,-0.0,0.0,-0.0084,-0.0144,-0.0012,-0.0003,0.0019,0.1638,0.4643,-0.6902,0.3111,0.6634,-0.9209,0.3024,-0.3987,0.3172,-0.0249,0.6632,-0.9218,0.4424,-0.5462,0.3468,0.4504,0.4968,-0.7006,0.0,0.0,0.0,0.0,0.0,0.0,0.0,0.0,0.0,
